onset	duration	onset_delay	onset_unadjusted	trial_number	block	amount_change	certain_amount	current_amount	mood_target	multiplier	outcome	outcome1_amount	outcome2_amount	question_duration	rating	response	rpe	rt	rt_time	slider_response	trial_phase	trial_type
-30.389	-0.001	0.021	46.424	n/a	0	n/a	n/a	n/a	n/a	n/a	n/a	n/a	n/a	n/a	n/a	{SPACE}	n/a	4.203	-26.186	n/a	Welcome	n/a
-26.157	5.0	0.029	50.656	n/a	0	n/a	n/a	n/a	n/a	n/a	n/a	n/a	n/a	n/a	n/a	n/a	n/a	n/a	n/a	n/a	LifeHappyPreview	n/a
-21.126	4.906	0.031	55.687	n/a	0	n/a	n/a	n/a	n/a	n/a	n/a	n/a	n/a	n/a	n/a	n/a	n/a	n/a	n/a	272.0	LifeHappiness	n/a
-21.125	4.577	n/a	56.017	n/a	0	n/a	n/a	n/a	n/a	n/a	n/a	n/a	n/a	n/a	n/a	n/a	n/a	n/a	n/a	272.0	LifeHappinessSliderResponse	n/a
-15.877	4.0	0.013	60.936	n/a	0	n/a	n/a	n/a	n/a	n/a	n/a	n/a	n/a	n/a	n/a	n/a	n/a	n/a	n/a	n/a	BlockHappyPreview	n/a
-11.862	2.795	0.015	64.951	n/a	0	n/a	n/a	n/a	n/a	n/a	n/a	n/a	n/a	n/a	n/a	n/a	n/a	n/a	n/a	412.0	BlockStartHappiness	n/a
-11.862	2.465	n/a	65.281	n/a	0	n/a	n/a	n/a	n/a	n/a	n/a	n/a	n/a	n/a	n/a	n/a	n/a	n/a	n/a	412.0	BlockStartHappinessSliderResponse	n/a
-4.098	-0.001	0.025	72.715	n/a	0	n/a	n/a	n/a	n/a	n/a	n/a	n/a	n/a	n/a	n/a	5.0	n/a	4.079	-0.019	n/a	ScanWait	n/a
0.0	10.0	0.019	76.813	n/a	1	n/a	n/a	n/a	n/a	n/a	n/a	n/a	n/a	n/a	n/a	n/a	n/a	n/a	n/a	n/a	GetReady	n/a
10.03	3.0	0.03	86.843	1.0	1	4.7	0.0	10.5875	955.0	1.82	Outcome1	4.7	-4.52	0.0	No	2.0	9.2242355605889	1.554	11.584	n/a	GetAnswer	Gain
11.596	4.0	0.012	88.409	1.0	1	4.7	0.0	10.5875	955.0	1.82	Outcome1	4.7	-4.52	0.0	No	n/a	9.2242355605889	n/a	n/a	n/a	ShowChoice	Gain
15.612	1.0	0.016	92.425	1.0	1	4.7	0.0	10.5875	955.0	1.82	Outcome1	4.7	-4.52	0.0	No	n/a	9.2242355605889	n/a	n/a	n/a	ShowResult	Gain
16.628	2.431	0.016	93.441	1.0	1	4.7	0.0	10.5875	955.0	1.82	Outcome1	4.7	-4.52	0.0	No	n/a	9.2242355605889	n/a	n/a	n/a	ISITrial	Gain
19.077	3.0	0.018	95.89	2.0	1	0.45	1.0	10.6437	955.0	0.3	Outcome2	2.7	0.45	0.0	No	2.0	-2.25481313703284	1.679	20.756	n/a	GetAnswer	Mixed
20.777	4.0	0.021	97.59	2.0	1	0.45	1.0	10.6437	955.0	0.3	Outcome2	2.7	0.45	0.0	No	n/a	-2.25481313703284	n/a	n/a	n/a	ShowChoice	Mixed
24.792	1.0	0.015	101.605	2.0	1	0.45	1.0	10.6437	955.0	0.3	Outcome2	2.7	0.45	0.0	No	n/a	-2.25481313703284	n/a	n/a	n/a	ShowResult	Mixed
25.808	4.568	0.016	102.621	2.0	1	0.45	1.0	10.6437	955.0	0.3	Outcome2	2.7	0.45	0.0	No	n/a	-2.25481313703284	n/a	n/a	n/a	ISITrial	Mixed
30.407	3.0	0.031	107.22	3.0	1	-3.0	-3.0	10.2687	955.0	1.2	Certain	1.9	-8.55	2.868	Yes	4.0	10.4541336353341	0.586	30.993	n/a	GetAnswer	Mixed
31.006	4.0	0.013	107.819	3.0	1	-3.0	-3.0	10.2687	955.0	1.2	Certain	1.9	-8.55	2.868	Yes	n/a	10.4541336353341	n/a	n/a	n/a	ShowChoice	Mixed
35.022	1.0	0.016	111.835	3.0	1	-3.0	-3.0	10.2687	955.0	1.2	Certain	1.9	-8.55	2.868	Yes	n/a	10.4541336353341	n/a	n/a	n/a	ShowResult	Mixed
36.038	3.243	0.016	112.851	3.0	1	-3.0	-3.0	10.2687	955.0	1.2	Certain	1.9	-8.55	2.868	Yes	n/a	10.4541336353341	n/a	n/a	n/a	ISITrial	Mixed
39.303	2.868	0.022	116.116	3.0	1	-3.0	-3.0	10.2687	955.0	1.2	Certain	1.9	-8.55	2.868	Yes	n/a	10.4541336353341	n/a	n/a	n/a	TrialHappPreview	Mixed
42.186	4.015	0.015	118.999	3.0	1	-3.0	-3.0	10.2687	955.0	1.2	Certain	1.9	-8.55	2.868	Yes	n/a	10.4541336353341	n/a	n/a	472.0	TrialHappiness	Mixed
42.186	1.424	n/a	119.051	3.0	1	-3.0	-3.0	10.2687	955.0	1.2	Certain	1.9	-8.55	2.868	Yes	n/a	10.4541336353341	n/a	n/a	472.0	TrialHappinessSliderResponse	Mixed
46.201	3.472	4.015	123.014	3.0	1	-3.0	-3.0	10.2687	955.0	1.2	Certain	1.9	-8.55	2.868	Yes	n/a	10.4541336353341	n/a	n/a	n/a	ISIRate	Mixed
49.7	3.0	0.027	126.513	4.0	1	-4.0	-4.0	9.7687	955.0	0.2	Certain	-9.55	0.5	0.0	No	4.0	10.0498301245753	1.315	51.015	n/a	GetAnswer	Mixed
51.033	4.0	0.018	127.846	4.0	1	-4.0	-4.0	9.7687	955.0	0.2	Certain	-9.55	0.5	0.0	No	n/a	10.0498301245753	n/a	n/a	n/a	ShowChoice	Mixed
55.048	1.0	0.015	131.861	4.0	1	-4.0	-4.0	9.7687	955.0	0.2	Certain	-9.55	0.5	0.0	No	n/a	10.0498301245753	n/a	n/a	n/a	ShowResult	Mixed
56.064	2.011	0.016	132.877	4.0	1	-4.0	-4.0	9.7687	955.0	0.2	Certain	-9.55	0.5	0.0	No	n/a	10.0498301245753	n/a	n/a	n/a	ISITrial	Mixed
58.097	3.0	0.022	134.91	5.0	1	4.54	2.27	10.3362	955.0	1.82	Outcome2	6.7	4.54	2.5825	Yes	2.0	-2.15939977349943	1.177	59.274	n/a	GetAnswer	Gain
59.297	4.0	0.023	136.11	5.0	1	4.54	2.27	10.3362	955.0	1.82	Outcome2	6.7	4.54	2.5825	Yes	n/a	-2.15939977349943	n/a	n/a	n/a	ShowChoice	Gain
63.312	1.0	0.015	140.125	5.0	1	4.54	2.27	10.3362	955.0	1.82	Outcome2	6.7	4.54	2.5825	Yes	n/a	-2.15939977349943	n/a	n/a	n/a	ShowResult	Gain
64.328	5.129	0.016	141.141	5.0	1	4.54	2.27	10.3362	955.0	1.82	Outcome2	6.7	4.54	2.5825	Yes	n/a	-2.15939977349943	n/a	n/a	n/a	ISITrial	Gain
69.476	2.582	0.019	146.289	5.0	1	4.54	2.27	10.3362	955.0	1.82	Outcome2	6.7	4.54	2.5825	Yes	n/a	-2.15939977349943	n/a	n/a	n/a	TrialHappPreview	Gain
72.075	4.016	0.017	148.888	5.0	1	4.54	2.27	10.3362	955.0	1.82	Outcome2	6.7	4.54	2.5825	Yes	n/a	-2.15939977349943	n/a	n/a	504.0	TrialHappiness	Gain
72.076	2.359	n/a	149.296	5.0	1	4.54	2.27	10.3362	955.0	1.82	Outcome2	6.7	4.54	2.5825	Yes	n/a	-2.15939977349943	n/a	n/a	504.0	TrialHappinessSliderResponse	Gain
76.091	2.33	4.016	152.904	5.0	1	4.54	2.27	10.3362	955.0	1.82	Outcome2	6.7	4.54	2.5825	Yes	n/a	-2.15939977349943	n/a	n/a	n/a	ISIRate	Gain
78.44	3.0	0.019	155.253	6.0	1	-2.0	-2.0	10.0862	955.0	0.4	Certain	2.9	-7.7	0.0	No	4.0	10.6002265005663	1.476	79.916	n/a	GetAnswer	Mixed
79.939	4.0	0.023	156.752	6.0	1	-2.0	-2.0	10.0862	955.0	0.4	Certain	2.9	-7.7	0.0	No	n/a	10.6002265005663	n/a	n/a	n/a	ShowChoice	Mixed
83.955	1.0	0.016	160.768	6.0	1	-2.0	-2.0	10.0862	955.0	0.4	Certain	2.9	-7.7	0.0	No	n/a	10.6002265005663	n/a	n/a	n/a	ShowResult	Mixed
84.971	6.232	0.016	161.784	6.0	1	-2.0	-2.0	10.0862	955.0	0.4	Certain	2.9	-7.7	0.0	No	n/a	10.6002265005663	n/a	n/a	n/a	ISITrial	Mixed
91.219	3.0	0.016	168.032	7.0	1	0.0	0.0	10.0862	955.0	3.16	Certain	5.7	-5.41	0.0	No	4.0	11.1109852774632	0.195	91.414	n/a	GetAnswer	Gain
91.435	4.0	0.021	168.248	7.0	1	0.0	0.0	10.0862	955.0	3.16	Certain	5.7	-5.41	0.0	No	n/a	11.1109852774632	n/a	n/a	n/a	ShowChoice	Gain
95.451	1.0	0.016	172.264	7.0	1	0.0	0.0	10.0862	955.0	3.16	Certain	5.7	-5.41	0.0	No	n/a	11.1109852774632	n/a	n/a	n/a	ShowResult	Gain
96.467	2.305	0.016	173.28	7.0	1	0.0	0.0	10.0862	955.0	3.16	Certain	5.7	-5.41	0.0	No	n/a	11.1109852774632	n/a	n/a	n/a	ISITrial	Gain
98.8	3.0	0.028	175.613	8.0	1	-4.0	-4.0	9.5862	955.0	1.0	Certain	1.7	-9.92	3.1125	Yes	4.0	11.621744054360098	1.729	100.529	n/a	GetAnswer	Mixed
100.549	4.0	0.02	177.362	8.0	1	-4.0	-4.0	9.5862	955.0	1.0	Certain	1.7	-9.92	3.1125	Yes	n/a	11.621744054360098	n/a	n/a	n/a	ShowChoice	Mixed
104.564	1.0	0.015	181.377	8.0	1	-4.0	-4.0	9.5862	955.0	1.0	Certain	1.7	-9.92	3.1125	Yes	n/a	11.621744054360098	n/a	n/a	n/a	ShowResult	Mixed
105.581	3.506	0.017	182.394	8.0	1	-4.0	-4.0	9.5862	955.0	1.0	Certain	1.7	-9.92	3.1125	Yes	n/a	11.621744054360098	n/a	n/a	n/a	ISITrial	Mixed
109.113	3.112	0.026	185.926	8.0	1	-4.0	-4.0	9.5862	955.0	1.0	Certain	1.7	-9.92	3.1125	Yes	n/a	11.621744054360098	n/a	n/a	n/a	TrialHappPreview	Mixed
112.245	4.015	0.02	189.058	8.0	1	-4.0	-4.0	9.5862	955.0	1.0	Certain	1.7	-9.92	3.1125	Yes	n/a	11.621744054360098	n/a	n/a	440.0	TrialHappiness	Mixed
112.246	3.806	n/a	189.146	8.0	1	-4.0	-4.0	9.5862	955.0	1.0	Certain	1.7	-9.92	3.1125	Yes	n/a	11.621744054360098	n/a	n/a	440.0	TrialHappinessSliderResponse	Mixed
116.26	4.45	4.015	193.073	8.0	1	-4.0	-4.0	9.5862	955.0	1.0	Certain	1.7	-9.92	3.1125	Yes	n/a	11.621744054360098	n/a	n/a	n/a	ISIRate	Mixed
120.742	3.0	0.032	197.555	9.0	1	-6.0	-6.0	8.8362	955.0	0.3	Certain	0.7	-12.52	0.0	No	4.0	13.2197055492639	1.23	121.972	n/a	GetAnswer	Mixed
121.992	4.0	0.02	198.805	9.0	1	-6.0	-6.0	8.8362	955.0	0.3	Certain	0.7	-12.52	0.0	No	n/a	13.2197055492639	n/a	n/a	n/a	ShowChoice	Mixed
126.007	1.0	0.015	202.82	9.0	1	-6.0	-6.0	8.8362	955.0	0.3	Certain	0.7	-12.52	0.0	No	n/a	13.2197055492639	n/a	n/a	n/a	ShowResult	Mixed
127.023	2.0	0.016	203.836	9.0	1	-6.0	-6.0	8.8362	955.0	0.3	Certain	0.7	-12.52	0.0	No	n/a	13.2197055492639	n/a	n/a	n/a	ISITrial	Mixed
129.039	3.0	0.016	205.852	10.0	1	1.0	1.0	8.9612	955.0	4.2	Certain	-5.7	8.1	4.0	Yes	4.0	13.8029445073613	1.151	130.19	n/a	GetAnswer	Gain
130.205	4.0	0.015	207.018	10.0	1	1.0	1.0	8.9612	955.0	4.2	Certain	-5.7	8.1	4.0	Yes	n/a	13.8029445073613	n/a	n/a	n/a	ShowChoice	Gain
134.221	1.0	0.016	211.034	10.0	1	1.0	1.0	8.9612	955.0	4.2	Certain	-5.7	8.1	4.0	Yes	n/a	13.8029445073613	n/a	n/a	n/a	ShowResult	Gain
135.237	2.0	0.016	212.05	10.0	1	1.0	1.0	8.9612	955.0	4.2	Certain	-5.7	8.1	4.0	Yes	n/a	13.8029445073613	n/a	n/a	n/a	ISITrial	Gain
137.253	4.0	0.016	214.066	10.0	1	1.0	1.0	8.9612	955.0	4.2	Certain	-5.7	8.1	4.0	Yes	n/a	13.8029445073613	n/a	n/a	n/a	TrialHappPreview	Gain
141.285	4.015	0.032	218.098	10.0	1	1.0	1.0	8.9612	955.0	4.2	Certain	-5.7	8.1	4.0	Yes	n/a	13.8029445073613	n/a	n/a	488.0	TrialHappiness	Gain
141.285	0.197	n/a	218.374	10.0	1	1.0	1.0	8.9612	955.0	4.2	Certain	-5.7	8.1	4.0	Yes	n/a	13.8029445073613	n/a	n/a	488.0	TrialHappinessSliderResponse	Gain
145.3	8.0	4.015	222.113	10.0	1	1.0	1.0	8.9612	955.0	4.2	Certain	-5.7	8.1	4.0	Yes	n/a	13.8029445073613	n/a	n/a	n/a	ISIRate	Gain
153.331	3.0	0.031	230.144	11.0	1	10.1	-1.74	10.2237	955.0	4.2	Outcome1	10.1	-3.47	0.0	No	2.0	13.5707814269536	1.245	154.576	n/a	GetAnswer	Gain
154.597	4.0	0.021	231.41	11.0	1	10.1	-1.74	10.2237	955.0	4.2	Outcome1	10.1	-3.47	0.0	No	n/a	13.5707814269536	n/a	n/a	n/a	ShowChoice	Gain
158.612	1.0	0.015	235.425	11.0	1	10.1	-1.74	10.2237	955.0	4.2	Outcome1	10.1	-3.47	0.0	No	n/a	13.5707814269536	n/a	n/a	n/a	ShowResult	Gain
159.629	3.324	0.017	236.442	11.0	1	10.1	-1.74	10.2237	955.0	4.2	Outcome1	10.1	-3.47	0.0	No	n/a	13.5707814269536	n/a	n/a	n/a	ISITrial	Gain
162.977	3.0	0.024	239.79	12.0	1	1.49	2.0	10.4099	955.0	1.2	Outcome2	3.9	1.49	2.61875	Yes	2.0	-2.4090222725556805	1.74	164.717	n/a	GetAnswer	Mixed
164.743	4.0	0.026	241.556	12.0	1	1.49	2.0	10.4099	955.0	1.2	Outcome2	3.9	1.49	2.61875	Yes	n/a	-2.4090222725556805	n/a	n/a	n/a	ShowChoice	Mixed
168.759	1.0	0.016	245.572	12.0	1	1.49	2.0	10.4099	955.0	1.2	Outcome2	3.9	1.49	2.61875	Yes	n/a	-2.4090222725556805	n/a	n/a	n/a	ShowResult	Mixed
169.775	6.642	0.016	246.588	12.0	1	1.49	2.0	10.4099	955.0	1.2	Outcome2	3.9	1.49	2.61875	Yes	n/a	-2.4090222725556805	n/a	n/a	n/a	ISITrial	Mixed
176.439	2.619	0.022	253.252	12.0	1	1.49	2.0	10.4099	955.0	1.2	Outcome2	3.9	1.49	2.61875	Yes	n/a	-2.4090222725556805	n/a	n/a	n/a	TrialHappPreview	Mixed
179.088	4.016	0.03	255.901	12.0	1	1.49	2.0	10.4099	955.0	1.2	Outcome2	3.9	1.49	2.61875	Yes	n/a	-2.4090222725556805	n/a	n/a	528.0	TrialHappiness	Mixed
179.089	0.184	n/a	256.575	12.0	1	1.49	2.0	10.4099	955.0	1.2	Outcome2	3.9	1.49	2.61875	Yes	n/a	-2.4090222725556805	n/a	n/a	528.0	TrialHappinessSliderResponse	Mixed
183.104	2.475	4.016	259.917	12.0	1	1.49	2.0	10.4099	955.0	1.2	Outcome2	3.9	1.49	2.61875	Yes	n/a	-2.4090222725556805	n/a	n/a	n/a	ISIRate	Mixed
185.603	3.0	0.024	262.416	13.0	1	8.5	1.0	11.4724	955.0	1.68	Outcome1	8.5	-5.45	0.0	No	2.0	13.9490373725934	2.461	188.064	n/a	GetAnswer	Gain
188.085	4.0	0.021	264.898	13.0	1	8.5	1.0	11.4724	955.0	1.68	Outcome1	8.5	-5.45	0.0	No	n/a	13.9490373725934	n/a	n/a	n/a	ShowChoice	Gain
192.101	1.0	0.016	268.914	13.0	1	8.5	1.0	11.4724	955.0	1.68	Outcome1	8.5	-5.45	0.0	No	n/a	13.9490373725934	n/a	n/a	n/a	ShowResult	Gain
193.117	3.48	0.016	269.93	13.0	1	8.5	1.0	11.4724	955.0	1.68	Outcome1	8.5	-5.45	0.0	No	n/a	13.9490373725934	n/a	n/a	n/a	ISITrial	Gain
196.616	3.0	0.019	273.429	14.0	1	7.3	0.0	12.3849	955.0	2.48	Outcome1	7.3	-7.13	0.0	No	2.0	14.432616081540198	2.91	199.526	n/a	GetAnswer	Gain
199.548	4.0	0.022	276.361	14.0	1	7.3	0.0	12.3849	955.0	2.48	Outcome1	7.3	-7.13	0.0	No	n/a	14.432616081540198	n/a	n/a	n/a	ShowChoice	Gain
203.563	1.0	0.015	280.376	14.0	1	7.3	0.0	12.3849	955.0	2.48	Outcome1	7.3	-7.13	0.0	No	n/a	14.432616081540198	n/a	n/a	n/a	ShowResult	Gain
204.58	5.019	0.017	281.393	14.0	1	7.3	0.0	12.3849	955.0	2.48	Outcome1	7.3	-7.13	0.0	No	n/a	14.432616081540198	n/a	n/a	n/a	ISITrial	Gain
209.628	3.0	0.029	286.441	15.0	1	12.7	-1.11	13.9724	955.0	1.82	Outcome2	-2.22	12.7	3.3485	Yes	n/a	14.916194790487	n/a	n/a	n/a	GetAnswer	Loss
212.644	4.0	0.016	289.457	15.0	1	12.7	-1.11	13.9724	955.0	1.82	Outcome2	-2.22	12.7	3.3485	Yes	n/a	14.916194790487	n/a	n/a	n/a	ShowChoice	Loss
216.659	1.0	0.015	293.472	15.0	1	12.7	-1.11	13.9724	955.0	1.82	Outcome2	-2.22	12.7	3.3485	Yes	n/a	14.916194790487	n/a	n/a	n/a	ShowResult	Loss
217.675	7.614	0.016	294.488	15.0	1	12.7	-1.11	13.9724	955.0	1.82	Outcome2	-2.22	12.7	3.3485	Yes	n/a	14.916194790487	n/a	n/a	n/a	ISITrial	Loss
225.306	3.348	0.017	302.119	15.0	1	12.7	-1.11	13.9724	955.0	1.82	Outcome2	-2.22	12.7	3.3485	Yes	n/a	14.916194790487	n/a	n/a	n/a	TrialHappPreview	Loss
228.671	4.016	0.017	305.484	15.0	1	12.7	-1.11	13.9724	955.0	1.82	Outcome2	-2.22	12.7	3.3485	Yes	{-2}2{-2}2{-2}2{-2}2{-2}4{-4}	14.916194790487	2.523	231.194	568.0	TrialHappiness	Loss
228.672	2.466	n/a	305.542	15.0	1	12.7	-1.11	13.9724	955.0	1.82	Outcome2	-2.22	12.7	3.3485	Yes	n/a	14.916194790487	n/a	n/a	568.0	TrialHappinessSliderResponse	Loss
232.687	5.394	4.016	309.5	15.0	1	12.7	-1.11	13.9724	955.0	1.82	Outcome2	-2.22	12.7	3.3485	Yes	n/a	14.916194790487	n/a	n/a	n/a	ISIRate	Loss
238.101	3.0	0.02	314.914	16.0	1	1.1	-6.0	14.1099	955.0	0.52	Outcome2	-13.62	1.1	0.0	No	2.0	14.7202718006795	1.604	239.705	n/a	GetAnswer	Mixed
239.717	4.0	0.012	316.53	16.0	1	1.1	-6.0	14.1099	955.0	0.52	Outcome2	-13.62	1.1	0.0	No	n/a	14.7202718006795	n/a	n/a	n/a	ShowChoice	Mixed
243.733	1.0	0.016	320.546	16.0	1	1.1	-6.0	14.1099	955.0	0.52	Outcome2	-13.62	1.1	0.0	No	n/a	14.7202718006795	n/a	n/a	n/a	ShowResult	Mixed
244.749	3.008	0.016	321.562	16.0	1	1.1	-6.0	14.1099	955.0	0.52	Outcome2	-13.62	1.1	0.0	No	n/a	14.7202718006795	n/a	n/a	n/a	ISITrial	Mixed
247.781	3.0	0.024	324.594	17.0	1	11.7	-1.73	15.5724	955.0	3.16	Outcome1	11.7	-3.46	3.0415	Yes	2.0	15.158550396376	1.687	249.468	n/a	GetAnswer	Loss
249.481	4.0	0.013	326.294	17.0	1	11.7	-1.73	15.5724	955.0	3.16	Outcome1	11.7	-3.46	3.0415	Yes	n/a	15.158550396376	n/a	n/a	n/a	ShowChoice	Loss
253.496	1.0	0.015	330.309	17.0	1	11.7	-1.73	15.5724	955.0	3.16	Outcome1	11.7	-3.46	3.0415	Yes	n/a	15.158550396376	n/a	n/a	n/a	ShowResult	Loss
254.512	3.566	0.016	331.325	17.0	1	11.7	-1.73	15.5724	955.0	3.16	Outcome1	11.7	-3.46	3.0415	Yes	n/a	15.158550396376	n/a	n/a	n/a	ISITrial	Loss
258.094	3.042	0.016	334.907	17.0	1	11.7	-1.73	15.5724	955.0	3.16	Outcome1	11.7	-3.46	3.0415	Yes	n/a	15.158550396376	n/a	n/a	n/a	TrialHappPreview	Loss
261.16	4.015	0.024	337.973	17.0	1	11.7	-1.73	15.5724	955.0	3.16	Outcome1	11.7	-3.46	3.0415	Yes	2{-2}2{-2}4{-4}2{-2}2{-2}	15.158550396376	3.056	264.216	676.0	TrialHappiness	Loss
261.161	2.583	n/a	338.447	17.0	1	11.7	-1.73	15.5724	955.0	3.16	Outcome1	11.7	-3.46	3.0415	Yes	n/a	15.158550396376	n/a	n/a	676.0	TrialHappinessSliderResponse	Loss
265.175	4.166	4.015	341.988	17.0	1	11.7	-1.73	15.5724	955.0	3.16	Outcome1	11.7	-3.46	3.0415	Yes	n/a	15.158550396376	n/a	n/a	n/a	ISIRate	Loss
269.357	3.0	0.016	346.17	18.0	1	13.3	-0.23	17.2349	955.0	2.48	Outcome1	13.3	-0.46	0.0	No	2.0	13.762174405436	1.99	271.347	n/a	GetAnswer	Loss
271.373	4.0	0.026	348.186	18.0	1	13.3	-0.23	17.2349	955.0	2.48	Outcome1	13.3	-0.46	0.0	No	n/a	13.762174405436	n/a	n/a	n/a	ShowChoice	Loss
275.388	1.0	0.015	352.201	18.0	1	13.3	-0.23	17.2349	955.0	2.48	Outcome1	13.3	-0.46	0.0	No	n/a	13.762174405436	n/a	n/a	n/a	ShowResult	Loss
276.405	6.787	0.017	353.218	18.0	1	13.3	-0.23	17.2349	955.0	2.48	Outcome1	13.3	-0.46	0.0	No	n/a	13.762174405436	n/a	n/a	n/a	ISITrial	Loss
283.219	3.0	0.027	360.032	19.0	1	8.59	4.3	18.3087	955.0	1.68	Outcome1	8.59	10.5	0.0	No	2.0	-1.9104379010947496	1.288	284.507	n/a	GetAnswer	Loss
284.535	4.0	0.028	361.348	19.0	1	8.59	4.3	18.3087	955.0	1.68	Outcome1	8.59	10.5	0.0	No	n/a	-1.9104379010947496	n/a	n/a	n/a	ShowChoice	Loss
288.551	1.0	0.016	365.364	19.0	1	8.59	4.3	18.3087	955.0	1.68	Outcome1	8.59	10.5	0.0	No	n/a	-1.9104379010947496	n/a	n/a	n/a	ShowResult	Loss
289.567	2.0	0.016	366.38	19.0	1	8.59	4.3	18.3087	955.0	1.68	Outcome1	8.59	10.5	0.0	No	n/a	-1.9104379010947496	n/a	n/a	n/a	ISITrial	Loss
291.583	3.0	0.016	368.396	20.0	1	8.96	4.48	19.4287	955.0	2.0	Outcome2	10.9	8.96	2.92125	Yes	2.0	-1.93676859192148	1.489	293.072	n/a	GetAnswer	Loss
293.099	4.0	0.027	369.912	20.0	1	8.96	4.48	19.4287	955.0	2.0	Outcome2	10.9	8.96	2.92125	Yes	n/a	-1.93676859192148	n/a	n/a	n/a	ShowChoice	Loss
297.114	1.0	0.015	373.927	20.0	1	8.96	4.48	19.4287	955.0	2.0	Outcome2	10.9	8.96	2.92125	Yes	n/a	-1.93676859192148	n/a	n/a	n/a	ShowResult	Loss
298.131	8.0	0.017	374.944	20.0	1	8.96	4.48	19.4287	955.0	2.0	Outcome2	10.9	8.96	2.92125	Yes	n/a	-1.93676859192148	n/a	n/a	n/a	ISITrial	Loss
306.145	2.921	0.014	382.958	20.0	1	8.96	4.48	19.4287	955.0	2.0	Outcome2	10.9	8.96	2.92125	Yes	n/a	-1.93676859192148	n/a	n/a	n/a	TrialHappPreview	Loss
309.094	4.015	0.028	385.907	20.0	1	8.96	4.48	19.4287	955.0	2.0	Outcome2	10.9	8.96	2.92125	Yes	n/a	-1.93676859192148	n/a	n/a	456.0	TrialHappiness	Loss
309.094	0.257	n/a	386.223	20.0	1	8.96	4.48	19.4287	955.0	2.0	Outcome2	10.9	8.96	2.92125	Yes	n/a	-1.93676859192148	n/a	n/a	456.0	TrialHappinessSliderResponse	Loss
313.109	3.685	4.015	389.922	20.0	1	8.96	4.48	19.4287	955.0	2.0	Outcome2	10.9	8.96	2.92125	Yes	n/a	-1.93676859192148	n/a	n/a	n/a	ISIRate	Loss
316.824	3.0	0.03	393.637	21.0	1	2.1	-7.0	19.6912	955.0	1.5	Outcome2	-16.35	2.1	0.0	No	2.0	18.4473386183465	2.199	319.023	n/a	GetAnswer	Mixed
319.04	4.0	0.017	395.853	21.0	1	2.1	-7.0	19.6912	955.0	1.5	Outcome2	-16.35	2.1	0.0	No	n/a	18.4473386183465	n/a	n/a	n/a	ShowChoice	Mixed
323.055	1.0	0.015	399.868	21.0	1	2.1	-7.0	19.6912	955.0	1.5	Outcome2	-16.35	2.1	0.0	No	n/a	18.4473386183465	n/a	n/a	n/a	ShowResult	Mixed
324.072	3.555	0.017	400.885	21.0	1	2.1	-7.0	19.6912	955.0	1.5	Outcome2	-16.35	2.1	0.0	No	n/a	18.4473386183465	n/a	n/a	n/a	ISITrial	Mixed
327.654	3.0	0.027	404.467	22.0	1	12.9	-3.06	21.3037	955.0	2.0	Outcome1	12.9	-6.11	3.2195	Yes	n/a	19.0124575311438	n/a	n/a	n/a	GetAnswer	Loss
330.669	4.0	0.015	407.482	22.0	1	12.9	-3.06	21.3037	955.0	2.0	Outcome1	12.9	-6.11	3.2195	Yes	n/a	19.0124575311438	n/a	n/a	n/a	ShowChoice	Loss
334.685	1.0	0.016	411.498	22.0	1	12.9	-3.06	21.3037	955.0	2.0	Outcome1	12.9	-6.11	3.2195	Yes	n/a	19.0124575311438	n/a	n/a	n/a	ShowResult	Loss
335.701	6.793	0.016	412.514	22.0	1	12.9	-3.06	21.3037	955.0	2.0	Outcome1	12.9	-6.11	3.2195	Yes	n/a	19.0124575311438	n/a	n/a	n/a	ISITrial	Loss
342.515	3.22	0.021	419.328	22.0	1	12.9	-3.06	21.3037	955.0	2.0	Outcome1	12.9	-6.11	3.2195	Yes	n/a	19.0124575311438	n/a	n/a	n/a	TrialHappPreview	Loss
345.764	4.015	0.029	422.577	22.0	1	12.9	-3.06	21.3037	955.0	2.0	Outcome1	12.9	-6.11	3.2195	Yes	n/a	19.0124575311438	n/a	n/a	528.0	TrialHappiness	Loss
345.765	0.832	n/a	422.899	22.0	1	12.9	-3.06	21.3037	955.0	2.0	Outcome1	12.9	-6.11	3.2195	Yes	n/a	19.0124575311438	n/a	n/a	528.0	TrialHappinessSliderResponse	Loss
349.779	4.878	4.015	426.592	22.0	1	12.9	-3.06	21.3037	955.0	2.0	Outcome1	12.9	-6.11	3.2195	Yes	n/a	19.0124575311438	n/a	n/a	n/a	ISIRate	Loss
354.678	3.0	0.021	431.491	23.0	1	10.84	5.42	22.6587	955.0	2.8	Outcome1	10.84	13.5	0.0	No	2.0	-2.65788976972442	1.02	355.698	n/a	GetAnswer	Loss
355.711	4.0	0.013	432.524	23.0	1	10.84	5.42	22.6587	955.0	2.8	Outcome1	10.84	13.5	0.0	No	n/a	-2.65788976972442	n/a	n/a	n/a	ShowChoice	Loss
359.726	1.0	0.015	436.539	23.0	1	10.84	5.42	22.6587	955.0	2.8	Outcome1	10.84	13.5	0.0	No	n/a	-2.65788976972442	n/a	n/a	n/a	ShowResult	Loss
360.742	8.0	0.016	437.555	23.0	1	10.84	5.42	22.6587	955.0	2.8	Outcome1	10.84	13.5	0.0	No	n/a	-2.65788976972442	n/a	n/a	n/a	ISITrial	Loss
368.773	3.0	0.031	445.586	24.0	1	-11.0	-11.0	21.2837	955.0	0.2	Certain	-20.34	-1.5	3.255	Yes	4.0	18.8380520951302	2.094	370.867	n/a	GetAnswer	Mixed
370.889	4.0	0.022	447.702	24.0	1	-11.0	-11.0	21.2837	955.0	0.2	Certain	-20.34	-1.5	3.255	Yes	n/a	18.8380520951302	n/a	n/a	n/a	ShowChoice	Mixed
374.904	1.0	0.015	451.717	24.0	1	-11.0	-11.0	21.2837	955.0	0.2	Certain	-20.34	-1.5	3.255	Yes	n/a	18.8380520951302	n/a	n/a	n/a	ShowResult	Mixed
375.92	2.0	0.016	452.733	24.0	1	-11.0	-11.0	21.2837	955.0	0.2	Certain	-20.34	-1.5	3.255	Yes	n/a	18.8380520951302	n/a	n/a	n/a	ISITrial	Mixed
377.936	3.255	0.016	454.749	24.0	1	-11.0	-11.0	21.2837	955.0	0.2	Certain	-20.34	-1.5	3.255	Yes	n/a	18.8380520951302	n/a	n/a	n/a	TrialHappPreview	Mixed
381.219	4.015	0.028	458.032	24.0	1	-11.0	-11.0	21.2837	955.0	0.2	Certain	-20.34	-1.5	3.255	Yes	n/a	18.8380520951302	n/a	n/a	352.0	TrialHappiness	Mixed
381.219	3.45	n/a	458.321	24.0	1	-11.0	-11.0	21.2837	955.0	0.2	Certain	-20.34	-1.5	3.255	Yes	n/a	18.8380520951302	n/a	n/a	352.0	TrialHappinessSliderResponse	Mixed
385.234	5.02	4.015	462.047	24.0	1	-11.0	-11.0	21.2837	955.0	0.2	Certain	-20.34	-1.5	3.255	Yes	n/a	18.8380520951302	n/a	n/a	n/a	ISIRate	Mixed
390.282	3.0	0.028	467.095	25.0	1	5.1	-6.0	21.9212	955.0	2.22	Outcome2	-17.21	5.1	0.0	No	2.0	22.311438278595705	2.593	392.875	n/a	GetAnswer	Gain
392.898	4.0	0.023	469.711	25.0	1	5.1	-6.0	21.9212	955.0	2.22	Outcome2	-17.21	5.1	0.0	No	n/a	22.311438278595705	n/a	n/a	n/a	ShowChoice	Gain
396.913	1.0	0.015	473.726	25.0	1	5.1	-6.0	21.9212	955.0	2.22	Outcome2	-17.21	5.1	0.0	No	n/a	22.311438278595705	n/a	n/a	n/a	ShowResult	Gain
397.929	3.749	0.016	474.742	25.0	1	5.1	-6.0	21.9212	955.0	2.22	Outcome2	-17.21	5.1	0.0	No	n/a	22.311438278595705	n/a	n/a	n/a	ISITrial	Gain
401.695	3.0	0.017	478.508	26.0	1	-3.0	-3.0	21.5462	955.0	1.82	Certain	8.7	-14.29	0.0	No	4.0	22.9943374858437	1.57	403.265	n/a	GetAnswer	Gain
403.278	4.0	0.013	480.091	26.0	1	-3.0	-3.0	21.5462	955.0	1.82	Certain	8.7	-14.29	0.0	No	n/a	22.9943374858437	n/a	n/a	n/a	ShowChoice	Gain
407.293	1.0	0.015	484.106	26.0	1	-3.0	-3.0	21.5462	955.0	1.82	Certain	8.7	-14.29	0.0	No	n/a	22.9943374858437	n/a	n/a	n/a	ShowResult	Gain
408.309	7.834	0.016	485.122	26.0	1	-3.0	-3.0	21.5462	955.0	1.82	Certain	8.7	-14.29	0.0	No	n/a	22.9943374858437	n/a	n/a	n/a	ISITrial	Gain
416.173	3.0	0.03	492.986	27.0	1	-2.0	-2.0	21.2962	955.0	3.6	Certain	9.9	-13.78	2.54975	Yes	4.0	23.677236693091697	0.366	416.539	n/a	GetAnswer	Gain
416.556	4.0	0.017	493.369	27.0	1	-2.0	-2.0	21.2962	955.0	3.6	Certain	9.9	-13.78	2.54975	Yes	n/a	23.677236693091697	n/a	n/a	n/a	ShowChoice	Gain
420.572	1.0	0.016	497.385	27.0	1	-2.0	-2.0	21.2962	955.0	3.6	Certain	9.9	-13.78	2.54975	Yes	n/a	23.677236693091697	n/a	n/a	n/a	ShowResult	Gain
421.588	4.225	0.016	498.401	27.0	1	-2.0	-2.0	21.2962	955.0	3.6	Certain	9.9	-13.78	2.54975	Yes	n/a	23.677236693091697	n/a	n/a	n/a	ISITrial	Gain
425.836	2.55	0.023	502.649	27.0	1	-2.0	-2.0	21.2962	955.0	3.6	Certain	9.9	-13.78	2.54975	Yes	n/a	23.677236693091697	n/a	n/a	n/a	TrialHappPreview	Gain
428.402	4.016	0.016	505.215	27.0	1	-2.0	-2.0	21.2962	955.0	3.6	Certain	9.9	-13.78	2.54975	Yes	n/a	23.677236693091697	n/a	n/a	224.0	TrialHappiness	Gain
428.403	0.869	n/a	506.319	27.0	1	-2.0	-2.0	21.2962	955.0	3.6	Certain	9.9	-13.78	2.54975	Yes	n/a	23.677236693091697	n/a	n/a	224.0	TrialHappinessSliderResponse	Gain
432.418	2.199	4.016	509.231	27.0	1	-2.0	-2.0	21.2962	955.0	3.6	Certain	9.9	-13.78	2.54975	Yes	n/a	23.677236693091697	n/a	n/a	n/a	ISIRate	Gain
451.545	2.968	n/a	529.134	n/a	1	n/a	n/a	n/a	n/a	n/a	n/a	n/a	n/a	n/a	n/a	n/a	n/a	n/a	n/a	512.0	BlockStartHappinessSliderResponse	n/a
-197.299	-0.001	0.033	511.463	n/a	2	n/a	n/a	n/a	n/a	n/a	n/a	n/a	n/a	n/a	n/a	4	n/a	12.858	-184.441	n/a	Rest	n/a
-184.42	4.0	0.021	524.342	n/a	2	n/a	n/a	n/a	n/a	n/a	n/a	n/a	n/a	n/a	n/a	n/a	n/a	n/a	n/a	n/a	BlockHappyPreview	n/a
-180.405	3.744	0.015	528.357	n/a	2	n/a	n/a	n/a	n/a	n/a	n/a	n/a	n/a	n/a	n/a	n/a	n/a	n/a	n/a	512.0	BlockStartHappiness	n/a
-5.599	-0.001	0.019	703.163	n/a	2	n/a	n/a	n/a	n/a	n/a	n/a	n/a	n/a	n/a	n/a	5.0	n/a	5.573	-0.026	n/a	ScanWait	n/a
0.0	10.0	0.026	708.762	n/a	2	n/a	n/a	n/a	n/a	n/a	n/a	n/a	n/a	n/a	n/a	n/a	n/a	n/a	n/a	n/a	GetReady	n/a
10.013	3.0	0.013	718.775	28.0	2	1.38	0.0	21.4687	70.0	2.8	Outcome2	-0.42	1.38	0.0	No	2.0	1.79572940287226	1.939	11.952	n/a	GetAnswer	Gain
11.979	4.0	0.027	720.741	28.0	2	1.38	0.0	21.4687	70.0	2.8	Outcome2	-0.42	1.38	0.0	No	n/a	1.79572940287226	n/a	n/a	n/a	ShowChoice	Gain
15.994	1.0	0.015	724.756	28.0	2	1.38	0.0	21.4687	70.0	2.8	Outcome2	-0.42	1.38	0.0	No	n/a	1.79572940287226	n/a	n/a	n/a	ShowResult	Gain
17.01	3.575	0.016	725.772	28.0	2	1.38	0.0	21.4687	70.0	2.8	Outcome2	-0.42	1.38	0.0	No	n/a	1.79572940287226	n/a	n/a	n/a	ISITrial	Gain
20.609	3.0	0.024	729.371	29.0	2	5.68	2.84	22.1787	70.0	3.16	Outcome2	13.7	5.68	3.529	Yes	2.0	-8.01814058956916	1.708	22.317	n/a	GetAnswer	Loss
22.342	4.0	0.025	731.104	29.0	2	5.68	2.84	22.1787	70.0	3.16	Outcome2	13.7	5.68	3.529	Yes	n/a	-8.01814058956916	n/a	n/a	n/a	ShowChoice	Loss
26.357	1.0	0.015	735.119	29.0	2	5.68	2.84	22.1787	70.0	3.16	Outcome2	13.7	5.68	3.529	Yes	n/a	-8.01814058956916	n/a	n/a	n/a	ShowResult	Loss
27.373	3.955	0.016	736.135	29.0	2	5.68	2.84	22.1787	70.0	3.16	Outcome2	13.7	5.68	3.529	Yes	n/a	-8.01814058956916	n/a	n/a	n/a	ISITrial	Loss
31.339	3.529	0.011	740.101	29.0	2	5.68	2.84	22.1787	70.0	3.16	Outcome2	13.7	5.68	3.529	Yes	n/a	-8.01814058956916	n/a	n/a	n/a	TrialHappPreview	Loss
34.887	4.016	0.019	743.649	29.0	2	5.68	2.84	22.1787	70.0	3.16	Outcome2	13.7	5.68	3.529	Yes	n/a	-8.01814058956916	n/a	n/a	520.0	TrialHappiness	Loss
34.888	0.161	n/a	744.183	29.0	2	5.68	2.84	22.1787	70.0	3.16	Outcome2	13.7	5.68	3.529	Yes	n/a	-8.01814058956916	n/a	n/a	520.0	TrialHappinessSliderResponse	Loss
38.903	6.116	4.016	747.665	29.0	2	5.68	2.84	22.1787	70.0	3.16	Outcome2	13.7	5.68	3.529	Yes	n/a	-8.01814058956916	n/a	n/a	n/a	ISIRate	Loss
45.051	3.0	0.032	753.813	30.0	2	-6.16	-2.0	21.4087	70.0	0.2	Outcome1	-6.16	2.5	0.0	No	2.0	-8.655328798185941	2.678	47.729	n/a	GetAnswer	Mixed
47.75	4.0	0.021	756.512	30.0	2	-6.16	-2.0	21.4087	70.0	0.2	Outcome1	-6.16	2.5	0.0	No	n/a	-8.655328798185941	n/a	n/a	n/a	ShowChoice	Mixed
51.765	1.0	0.015	760.527	30.0	2	-6.16	-2.0	21.4087	70.0	0.2	Outcome1	-6.16	2.5	0.0	No	n/a	-8.655328798185941	n/a	n/a	n/a	ShowResult	Mixed
52.781	4.453	0.016	761.543	30.0	2	-6.16	-2.0	21.4087	70.0	0.2	Outcome1	-6.16	2.5	0.0	No	n/a	-8.655328798185941	n/a	n/a	n/a	ISITrial	Mixed
57.263	3.0	0.029	766.025	31.0	2	3.08	2.0	21.7937	70.0	5.0	Outcome2	1.13	3.08	2.50325	Yes	2.0	1.95427059712774	2.093	59.356	n/a	GetAnswer	Loss
59.379	4.0	0.023	768.141	31.0	2	3.08	2.0	21.7937	70.0	5.0	Outcome2	1.13	3.08	2.50325	Yes	n/a	1.95427059712774	n/a	n/a	n/a	ShowChoice	Loss
63.394	1.0	0.015	772.156	31.0	2	3.08	2.0	21.7937	70.0	5.0	Outcome2	1.13	3.08	2.50325	Yes	n/a	1.95427059712774	n/a	n/a	n/a	ShowResult	Loss
64.411	4.786	0.017	773.173	31.0	2	3.08	2.0	21.7937	70.0	5.0	Outcome2	1.13	3.08	2.50325	Yes	n/a	1.95427059712774	n/a	n/a	n/a	ISITrial	Loss
69.209	2.503	0.012	777.971	31.0	2	3.08	2.0	21.7937	70.0	5.0	Outcome2	1.13	3.08	2.50325	Yes	n/a	1.95427059712774	n/a	n/a	n/a	TrialHappPreview	Loss
71.741	4.016	0.029	780.503	31.0	2	3.08	2.0	21.7937	70.0	5.0	Outcome2	1.13	3.08	2.50325	Yes	n/a	1.95427059712774	n/a	n/a	440.0	TrialHappiness	Loss
71.742	0.302	n/a	780.81	31.0	2	3.08	2.0	21.7937	70.0	5.0	Outcome2	1.13	3.08	2.50325	Yes	n/a	1.95427059712774	n/a	n/a	440.0	TrialHappinessSliderResponse	Loss
75.757	2.013	4.016	784.519	31.0	2	3.08	2.0	21.7937	70.0	5.0	Outcome2	1.13	3.08	2.50325	Yes	n/a	1.95427059712774	n/a	n/a	n/a	ISIRate	Loss
77.789	3.0	0.019	786.551	32.0	2	-3.0	-3.0	21.4187	70.0	0.4	Certain	-7.42	0.9	0.0	No	4.0	-8.31519274376417	2.411	80.2	n/a	GetAnswer	Mixed
80.222	4.0	0.022	788.984	32.0	2	-3.0	-3.0	21.4187	70.0	0.4	Certain	-7.42	0.9	0.0	No	n/a	-8.31519274376417	n/a	n/a	n/a	ShowChoice	Mixed
84.237	1.0	0.015	792.999	32.0	2	-3.0	-3.0	21.4187	70.0	0.4	Certain	-7.42	0.9	0.0	No	n/a	-8.31519274376417	n/a	n/a	n/a	ShowResult	Mixed
85.253	2.0	0.016	794.015	32.0	2	-3.0	-3.0	21.4187	70.0	0.4	Certain	-7.42	0.9	0.0	No	n/a	-8.31519274376417	n/a	n/a	n/a	ISITrial	Mixed
87.269	3.0	0.016	796.031	33.0	2	-5.43	-1.0	20.7399	70.0	0.66	Outcome1	-5.43	3.3	0.0	No	2.0	-8.734693877551019	2.6	89.869	n/a	GetAnswer	Mixed
89.885	4.0	0.016	798.647	33.0	2	-5.43	-1.0	20.7399	70.0	0.66	Outcome1	-5.43	3.3	0.0	No	n/a	-8.734693877551019	n/a	n/a	n/a	ShowChoice	Mixed
93.9	1.0	0.015	802.662	33.0	2	-5.43	-1.0	20.7399	70.0	0.66	Outcome1	-5.43	3.3	0.0	No	n/a	-8.734693877551019	n/a	n/a	n/a	ShowResult	Mixed
94.917	5.099	0.017	803.679	33.0	2	-5.43	-1.0	20.7399	70.0	0.66	Outcome1	-5.43	3.3	0.0	No	n/a	-8.734693877551019	n/a	n/a	n/a	ISITrial	Mixed
100.048	3.0	0.032	808.81	34.0	2	-3.0	-3.0	20.3649	70.0	0.82	Certain	-7.65	1.5	3.2315	Yes	4.0	-9.154195011337867	1.777	101.825	n/a	GetAnswer	Mixed
101.848	4.0	0.023	810.61	34.0	2	-3.0	-3.0	20.3649	70.0	0.82	Certain	-7.65	1.5	3.2315	Yes	n/a	-9.154195011337867	n/a	n/a	n/a	ShowChoice	Mixed
105.863	1.0	0.015	814.625	34.0	2	-3.0	-3.0	20.3649	70.0	0.82	Certain	-7.65	1.5	3.2315	Yes	n/a	-9.154195011337867	n/a	n/a	n/a	ShowResult	Mixed
106.879	4.784	0.016	815.641	34.0	2	-3.0	-3.0	20.3649	70.0	0.82	Certain	-7.65	1.5	3.2315	Yes	n/a	-9.154195011337867	n/a	n/a	n/a	ISITrial	Mixed
111.678	3.232	0.015	820.44	34.0	2	-3.0	-3.0	20.3649	70.0	0.82	Certain	-7.65	1.5	3.2315	Yes	n/a	-9.154195011337867	n/a	n/a	n/a	TrialHappPreview	Mixed
114.926	4.016	0.016	823.688	34.0	2	-3.0	-3.0	20.3649	70.0	0.82	Certain	-7.65	1.5	3.2315	Yes	n/a	-9.154195011337867	n/a	n/a	444.0	TrialHappiness	Mixed
114.927	3.566	n/a	823.979	34.0	2	-3.0	-3.0	20.3649	70.0	0.82	Certain	-7.65	1.5	3.2315	Yes	n/a	-9.154195011337867	n/a	n/a	444.0	TrialHappinessSliderResponse	Mixed
118.942	4.926	4.016	827.704	34.0	2	-3.0	-3.0	20.3649	70.0	0.82	Certain	-7.65	1.5	3.2315	Yes	n/a	-9.154195011337867	n/a	n/a	n/a	ISIRate	Mixed
123.89	3.0	0.022	832.652	35.0	2	-1.0	-1.0	20.2399	70.0	0.66	Certain	-0.18	-1.97	0.0	No	4.0	1.79289493575208	1.452	125.342	n/a	GetAnswer	Mixed
125.356	4.0	0.014	834.118	35.0	2	-1.0	-1.0	20.2399	70.0	0.66	Certain	-0.18	-1.97	0.0	No	n/a	1.79289493575208	n/a	n/a	n/a	ShowChoice	Mixed
129.371	1.0	0.015	838.133	35.0	2	-1.0	-1.0	20.2399	70.0	0.66	Certain	-0.18	-1.97	0.0	No	n/a	1.79289493575208	n/a	n/a	n/a	ShowResult	Mixed
130.388	2.098	0.017	839.15	35.0	2	-1.0	-1.0	20.2399	70.0	0.66	Certain	-0.18	-1.97	0.0	No	n/a	1.79289493575208	n/a	n/a	n/a	ISITrial	Mixed
132.504	3.0	0.018	841.266	36.0	2	-1.0	-1.0	20.1149	70.0	1.2	Certain	-1.85	-0.02	3.33575	Yes	4.0	1.8282312925170097	2.903	135.407	n/a	GetAnswer	Mixed
135.419	4.0	0.012	844.181	36.0	2	-1.0	-1.0	20.1149	70.0	1.2	Certain	-1.85	-0.02	3.33575	Yes	n/a	1.8282312925170097	n/a	n/a	n/a	ShowChoice	Mixed
139.435	1.0	0.016	848.197	36.0	2	-1.0	-1.0	20.1149	70.0	1.2	Certain	-1.85	-0.02	3.33575	Yes	n/a	1.8282312925170097	n/a	n/a	n/a	ShowResult	Mixed
140.451	5.156	0.016	849.213	36.0	2	-1.0	-1.0	20.1149	70.0	1.2	Certain	-1.85	-0.02	3.33575	Yes	n/a	1.8282312925170097	n/a	n/a	n/a	ISITrial	Mixed
145.633	3.336	0.026	854.395	36.0	2	-1.0	-1.0	20.1149	70.0	1.2	Certain	-1.85	-0.02	3.33575	Yes	n/a	1.8282312925170097	n/a	n/a	n/a	TrialHappPreview	Mixed
148.998	4.015	0.029	857.76	36.0	2	-1.0	-1.0	20.1149	70.0	1.2	Certain	-1.85	-0.02	3.33575	Yes	4{-4}2{-2}2{-2}4{-4}4{-4}4{-4}	1.8282312925170097	3.843	152.841	516.0	TrialHappiness	Mixed
148.999	2.873	n/a	858.731	36.0	2	-1.0	-1.0	20.1149	70.0	1.2	Certain	-1.85	-0.02	3.33575	Yes	n/a	1.8282312925170097	n/a	n/a	516.0	TrialHappinessSliderResponse	Mixed
153.013	5.343	4.015	861.775	36.0	2	-1.0	-1.0	20.1149	70.0	1.2	Certain	-1.85	-0.02	3.33575	Yes	n/a	1.8282312925170097	n/a	n/a	n/a	ISIRate	Mixed
158.378	3.0	0.022	867.14	37.0	2	-0.21	-0.1	20.0887	70.0	2.8	Outcome1	-0.21	11.5	0.0	No	2.0	-11.7142857142857	1.426	159.804	n/a	GetAnswer	Loss
159.828	4.0	0.024	868.59	37.0	2	-0.21	-0.1	20.0887	70.0	2.8	Outcome1	-0.21	11.5	0.0	No	n/a	-11.7142857142857	n/a	n/a	n/a	ShowChoice	Loss
163.843	1.0	0.015	872.605	37.0	2	-0.21	-0.1	20.0887	70.0	2.8	Outcome1	-0.21	11.5	0.0	No	n/a	-11.7142857142857	n/a	n/a	n/a	ShowResult	Loss
164.859	3.598	0.016	873.621	37.0	2	-0.21	-0.1	20.0887	70.0	2.8	Outcome1	-0.21	11.5	0.0	No	n/a	-11.7142857142857	n/a	n/a	n/a	ISITrial	Loss
168.475	3.0	0.018	877.237	38.0	2	1.23	0.0	20.2425	70.0	2.0	Outcome1	1.23	-0.97	0.0	No	n/a	2.19822373393802	n/a	n/a	n/a	GetAnswer	Gain
171.49	4.0	0.015	880.252	38.0	2	1.23	0.0	20.2425	70.0	2.0	Outcome1	1.23	-0.97	0.0	No	n/a	2.19822373393802	n/a	n/a	n/a	ShowChoice	Gain
175.506	1.0	0.016	884.268	38.0	2	1.23	0.0	20.2425	70.0	2.0	Outcome1	1.23	-0.97	0.0	No	n/a	2.19822373393802	n/a	n/a	n/a	ShowResult	Gain
176.522	4.787	0.016	885.284	38.0	2	1.23	0.0	20.2425	70.0	2.0	Outcome1	1.23	-0.97	0.0	No	n/a	2.19822373393802	n/a	n/a	n/a	ISITrial	Gain
181.337	3.0	0.028	890.099	39.0	2	0.0	0.0	20.2425	70.0	1.68	Certain	6.5	-6.23	2.86425	Yes	4.0	-12.7256235827664	1.244	182.581	n/a	GetAnswer	Gain
182.603	4.0	0.022	891.365	39.0	2	0.0	0.0	20.2425	70.0	1.68	Certain	6.5	-6.23	2.86425	Yes	n/a	-12.7256235827664	n/a	n/a	n/a	ShowChoice	Gain
186.618	1.0	0.015	895.38	39.0	2	0.0	0.0	20.2425	70.0	1.68	Certain	6.5	-6.23	2.86425	Yes	n/a	-12.7256235827664	n/a	n/a	n/a	ShowResult	Gain
187.635	2.348	0.017	896.397	39.0	2	0.0	0.0	20.2425	70.0	1.68	Certain	6.5	-6.23	2.86425	Yes	n/a	-12.7256235827664	n/a	n/a	n/a	ISITrial	Gain
190.0	2.864	0.017	898.762	39.0	2	0.0	0.0	20.2425	70.0	1.68	Certain	6.5	-6.23	2.86425	Yes	n/a	-12.7256235827664	n/a	n/a	n/a	TrialHappPreview	Gain
192.883	4.015	0.019	901.645	39.0	2	0.0	0.0	20.2425	70.0	1.68	Certain	6.5	-6.23	2.86425	Yes	n/a	-12.7256235827664	n/a	n/a	460.0	TrialHappiness	Gain
192.883	0.695	n/a	901.861	39.0	2	0.0	0.0	20.2425	70.0	1.68	Certain	6.5	-6.23	2.86425	Yes	n/a	-12.7256235827664	n/a	n/a	460.0	TrialHappinessSliderResponse	Gain
196.898	3.457	4.015	905.66	39.0	2	0.0	0.0	20.2425	70.0	1.68	Certain	6.5	-6.23	2.86425	Yes	n/a	-12.7256235827664	n/a	n/a	n/a	ISIRate	Gain
200.38	3.0	0.025	909.142	40.0	2	1.08	0.0	20.3775	70.0	2.0	Outcome2	-0.98	1.08	0.0	No	2.0	2.05498866213152	1.814	202.194	n/a	GetAnswer	Mixed
202.213	4.0	0.019	910.975	40.0	2	1.08	0.0	20.3775	70.0	2.0	Outcome2	-0.98	1.08	0.0	No	n/a	2.05498866213152	n/a	n/a	n/a	ShowChoice	Mixed
206.228	1.0	0.015	914.99	40.0	2	1.08	0.0	20.3775	70.0	2.0	Outcome2	-0.98	1.08	0.0	No	n/a	2.05498866213152	n/a	n/a	n/a	ShowResult	Mixed
207.245	3.158	0.017	916.007	40.0	2	1.08	0.0	20.3775	70.0	2.0	Outcome2	-0.98	1.08	0.0	No	n/a	2.05498866213152	n/a	n/a	n/a	ISITrial	Mixed
210.427	3.0	0.024	919.189	41.0	2	-3.22	-1.61	19.975	70.0	2.8	Outcome2	9.5	-3.22	4.0	Yes	2.0	-12.7210884353741	1.976	212.403	n/a	GetAnswer	Gain
212.426	4.0	0.023	921.188	41.0	2	-3.22	-1.61	19.975	70.0	2.8	Outcome2	9.5	-3.22	4.0	Yes	n/a	-12.7210884353741	n/a	n/a	n/a	ShowChoice	Gain
216.441	1.0	0.015	925.203	41.0	2	-3.22	-1.61	19.975	70.0	2.8	Outcome2	9.5	-3.22	4.0	Yes	n/a	-12.7210884353741	n/a	n/a	n/a	ShowResult	Gain
217.458	4.506	0.017	926.22	41.0	2	-3.22	-1.61	19.975	70.0	2.8	Outcome2	9.5	-3.22	4.0	Yes	n/a	-12.7210884353741	n/a	n/a	n/a	ISITrial	Gain
221.989	4.0	0.025	930.751	41.0	2	-3.22	-1.61	19.975	70.0	2.8	Outcome2	9.5	-3.22	4.0	Yes	n/a	-12.7210884353741	n/a	n/a	n/a	TrialHappPreview	Gain
226.021	4.016	0.032	934.783	41.0	2	-3.22	-1.61	19.975	70.0	2.8	Outcome2	9.5	-3.22	4.0	Yes	n/a	-12.7210884353741	n/a	n/a	472.0	TrialHappiness	Gain
226.022	1.151	n/a	935.833	41.0	2	-3.22	-1.61	19.975	70.0	2.8	Outcome2	9.5	-3.22	4.0	Yes	n/a	-12.7210884353741	n/a	n/a	472.0	TrialHappinessSliderResponse	Gain
230.037	8.0	4.016	938.799	41.0	2	-3.22	-1.61	19.975	70.0	2.8	Outcome2	9.5	-3.22	4.0	Yes	n/a	-12.7210884353741	n/a	n/a	n/a	ISIRate	Gain
238.067	3.0	0.03	946.829	42.0	2	-11.07	-4.0	18.5912	70.0	2.0	Outcome1	-11.07	2.3	0.0	No	n/a	-13.3673469387755	n/a	n/a	n/a	GetAnswer	Mixed
241.083	4.0	0.016	949.845	42.0	2	-11.07	-4.0	18.5912	70.0	2.0	Outcome1	-11.07	2.3	0.0	No	n/a	-13.3673469387755	n/a	n/a	n/a	ShowChoice	Mixed
245.098	1.0	0.015	953.86	42.0	2	-11.07	-4.0	18.5912	70.0	2.0	Outcome1	-11.07	2.3	0.0	No	n/a	-13.3673469387755	n/a	n/a	n/a	ShowResult	Mixed
246.114	6.248	0.016	954.876	42.0	2	-11.07	-4.0	18.5912	70.0	2.0	Outcome1	-11.07	2.3	0.0	No	n/a	-13.3673469387755	n/a	n/a	n/a	ISITrial	Mixed
252.396	3.0	0.034	961.158	43.0	2	-6.12	1.0	17.8262	70.0	3.16	Outcome1	-6.12	7.7	2.77575	Yes	2.0	-13.8231292517007	2.231	254.627	n/a	GetAnswer	Gain
254.645	4.0	0.018	963.407	43.0	2	-6.12	1.0	17.8262	70.0	3.16	Outcome1	-6.12	7.7	2.77575	Yes	n/a	-13.8231292517007	n/a	n/a	n/a	ShowChoice	Gain
258.66	1.0	0.015	967.422	43.0	2	-6.12	1.0	17.8262	70.0	3.16	Outcome1	-6.12	7.7	2.77575	Yes	n/a	-13.8231292517007	n/a	n/a	n/a	ShowResult	Gain
259.676	4.596	0.016	968.438	43.0	2	-6.12	1.0	17.8262	70.0	3.16	Outcome1	-6.12	7.7	2.77575	Yes	n/a	-13.8231292517007	n/a	n/a	n/a	ISITrial	Gain
264.291	2.776	0.019	973.053	43.0	2	-6.12	1.0	17.8262	70.0	3.16	Outcome1	-6.12	7.7	2.77575	Yes	n/a	-13.8231292517007	n/a	n/a	n/a	TrialHappPreview	Gain
267.091	4.015	0.024	975.853	43.0	2	-6.12	1.0	17.8262	70.0	3.16	Outcome1	-6.12	7.7	2.77575	Yes	n/a	-13.8231292517007	n/a	n/a	456.0	TrialHappiness	Gain
267.091	0.755	n/a	975.921	43.0	2	-6.12	1.0	17.8262	70.0	3.16	Outcome1	-6.12	7.7	2.77575	Yes	n/a	-13.8231292517007	n/a	n/a	456.0	TrialHappinessSliderResponse	Gain
271.106	3.103	4.015	979.868	43.0	2	-6.12	1.0	17.8262	70.0	3.16	Outcome1	-6.12	7.7	2.77575	Yes	n/a	-13.8231292517007	n/a	n/a	n/a	ISIRate	Gain
274.238	3.0	0.029	983.0	44.0	2	2.33	1.0	18.1174	70.0	2.48	Outcome2	0.14	2.33	0.0	No	2.0	2.18839758125472	1.991	276.229	n/a	GetAnswer	Gain
276.254	4.0	0.025	985.016	44.0	2	2.33	1.0	18.1174	70.0	2.48	Outcome2	0.14	2.33	0.0	No	n/a	2.18839758125472	n/a	n/a	n/a	ShowChoice	Gain
280.269	1.0	0.015	989.031	44.0	2	2.33	1.0	18.1174	70.0	2.48	Outcome2	0.14	2.33	0.0	No	n/a	2.18839758125472	n/a	n/a	n/a	ShowResult	Gain
281.286	2.42	0.017	990.048	44.0	2	2.33	1.0	18.1174	70.0	2.48	Outcome2	0.14	2.33	0.0	No	n/a	2.18839758125472	n/a	n/a	n/a	ISITrial	Gain
283.735	3.0	0.029	992.497	45.0	2	-8.0	-8.0	17.1174	70.0	0.4	Certain	-15.54	-1.1	0.0	No	4.0	-14.444444444444402	2.47	286.205	n/a	GetAnswer	Mixed
286.234	4.0	0.029	994.996	45.0	2	-8.0	-8.0	17.1174	70.0	0.4	Certain	-15.54	-1.1	0.0	No	n/a	-14.444444444444402	n/a	n/a	n/a	ShowChoice	Mixed
290.249	1.0	0.015	999.011	45.0	2	-8.0	-8.0	17.1174	70.0	0.4	Certain	-15.54	-1.1	0.0	No	n/a	-14.444444444444402	n/a	n/a	n/a	ShowResult	Mixed
291.265	3.144	0.016	1000.027	45.0	2	-8.0	-8.0	17.1174	70.0	0.4	Certain	-15.54	-1.1	0.0	No	n/a	-14.444444444444402	n/a	n/a	n/a	ISITrial	Mixed
294.431	3.0	0.022	1003.193	46.0	2	1.32	0.0	17.2824	70.0	2.48	Outcome2	-0.94	1.32	3.84125	Yes	n/a	2.26133786848073	n/a	n/a	n/a	GetAnswer	Gain
297.447	4.0	0.016	1006.209	46.0	2	1.32	0.0	17.2824	70.0	2.48	Outcome2	-0.94	1.32	3.84125	Yes	n/a	2.26133786848073	n/a	n/a	n/a	ShowChoice	Gain
301.462	1.0	0.015	1010.224	46.0	2	1.32	0.0	17.2824	70.0	2.48	Outcome2	-0.94	1.32	3.84125	Yes	n/a	2.26133786848073	n/a	n/a	n/a	ShowResult	Gain
302.478	2.246	0.016	1011.24	46.0	2	1.32	0.0	17.2824	70.0	2.48	Outcome2	-0.94	1.32	3.84125	Yes	n/a	2.26133786848073	n/a	n/a	n/a	ISITrial	Gain
304.744	3.841	0.02	1013.506	46.0	2	1.32	0.0	17.2824	70.0	2.48	Outcome2	-0.94	1.32	3.84125	Yes	n/a	2.26133786848073	n/a	n/a	n/a	TrialHappPreview	Gain
308.609	4.016	0.024	1017.371	46.0	2	1.32	0.0	17.2824	70.0	2.48	Outcome2	-0.94	1.32	3.84125	Yes	n/a	2.26133786848073	n/a	n/a	464.0	TrialHappiness	Gain
308.61	0.246	n/a	1017.7	46.0	2	1.32	0.0	17.2824	70.0	2.48	Outcome2	-0.94	1.32	3.84125	Yes	n/a	2.26133786848073	n/a	n/a	464.0	TrialHappinessSliderResponse	Gain
312.625	7.365	4.016	1021.387	46.0	2	1.32	0.0	17.2824	70.0	2.48	Outcome2	-0.94	1.32	3.84125	Yes	n/a	2.26133786848073	n/a	n/a	n/a	ISIRate	Gain
320.022	3.0	0.032	1028.784	47.0	2	0.0	0.0	17.2824	70.0	2.22	Certain	-0.55	1.78	0.0	No	4.0	2.3303099017384703	1.448	321.47	n/a	GetAnswer	Gain
321.488	4.0	0.018	1030.25	47.0	2	0.0	0.0	17.2824	70.0	2.22	Certain	-0.55	1.78	0.0	No	n/a	2.3303099017384703	n/a	n/a	n/a	ShowChoice	Gain
325.504	1.0	0.016	1034.266	47.0	2	0.0	0.0	17.2824	70.0	2.22	Certain	-0.55	1.78	0.0	No	n/a	2.3303099017384703	n/a	n/a	n/a	ShowResult	Gain
326.52	2.0	0.016	1035.282	47.0	2	0.0	0.0	17.2824	70.0	2.22	Certain	-0.55	1.78	0.0	No	n/a	2.3303099017384703	n/a	n/a	n/a	ISITrial	Gain
328.553	3.0	0.033	1037.315	48.0	2	-9.8	-2.0	16.0574	70.0	4.2	Outcome1	-9.8	6.1	2.83175	Yes	2.0	-15.9024943310658	1.311	329.864	n/a	GetAnswer	Gain
329.885	4.0	0.021	1038.647	48.0	2	-9.8	-2.0	16.0574	70.0	4.2	Outcome1	-9.8	6.1	2.83175	Yes	n/a	-15.9024943310658	n/a	n/a	n/a	ShowChoice	Gain
333.901	1.0	0.016	1042.663	48.0	2	-9.8	-2.0	16.0574	70.0	4.2	Outcome1	-9.8	6.1	2.83175	Yes	n/a	-15.9024943310658	n/a	n/a	n/a	ShowResult	Gain
334.917	3.692	0.016	1043.679	48.0	2	-9.8	-2.0	16.0574	70.0	4.2	Outcome1	-9.8	6.1	2.83175	Yes	n/a	-15.9024943310658	n/a	n/a	n/a	ISITrial	Gain
338.632	2.832	0.023	1047.394	48.0	2	-9.8	-2.0	16.0574	70.0	4.2	Outcome1	-9.8	6.1	2.83175	Yes	n/a	-15.9024943310658	n/a	n/a	n/a	TrialHappPreview	Gain
341.498	4.015	0.034	1050.26	48.0	2	-9.8	-2.0	16.0574	70.0	4.2	Outcome1	-9.8	6.1	2.83175	Yes	n/a	-15.9024943310658	n/a	n/a	504.0	TrialHappiness	Gain
341.499	3.846	n/a	1050.288	48.0	2	-9.8	-2.0	16.0574	70.0	4.2	Outcome1	-9.8	6.1	2.83175	Yes	n/a	-15.9024943310658	n/a	n/a	504.0	TrialHappinessSliderResponse	Gain
345.513	3.327	4.015	1054.275	48.0	2	-9.8	-2.0	16.0574	70.0	4.2	Outcome1	-9.8	6.1	2.83175	Yes	n/a	-15.9024943310658	n/a	n/a	n/a	ISIRate	Gain
348.862	3.0	0.022	1057.624	49.0	2	-8.13	0.0	15.0411	70.0	2.0	Outcome1	-8.13	8.9	0.0	No	2.0	-17.0294784580499	1.396	350.258	n/a	GetAnswer	Gain
350.278	4.0	0.02	1059.04	49.0	2	-8.13	0.0	15.0411	70.0	2.0	Outcome1	-8.13	8.9	0.0	No	n/a	-17.0294784580499	n/a	n/a	n/a	ShowChoice	Gain
354.294	1.0	0.016	1063.056	49.0	2	-8.13	0.0	15.0411	70.0	2.0	Outcome1	-8.13	8.9	0.0	No	n/a	-17.0294784580499	n/a	n/a	n/a	ShowResult	Gain
355.31	8.0	0.016	1064.072	49.0	2	-8.13	0.0	15.0411	70.0	2.0	Outcome1	-8.13	8.9	0.0	No	n/a	-17.0294784580499	n/a	n/a	n/a	ISITrial	Gain
363.341	3.0	0.031	1072.103	50.0	2	2.42	1.0	15.3436	70.0	3.16	Outcome2	-0.19	2.42	3.54725	Yes	2.0	2.6082766439909304	1.926	365.267	n/a	GetAnswer	Gain
365.29	4.0	0.023	1074.052	50.0	2	2.42	1.0	15.3436	70.0	3.16	Outcome2	-0.19	2.42	3.54725	Yes	n/a	2.6082766439909304	n/a	n/a	n/a	ShowChoice	Gain
369.305	1.0	0.015	1078.067	50.0	2	2.42	1.0	15.3436	70.0	3.16	Outcome2	-0.19	2.42	3.54725	Yes	n/a	2.6082766439909304	n/a	n/a	n/a	ShowResult	Gain
370.321	7.537	0.016	1079.083	50.0	2	2.42	1.0	15.3436	70.0	3.16	Outcome2	-0.19	2.42	3.54725	Yes	n/a	2.6082766439909304	n/a	n/a	n/a	ISITrial	Gain
377.869	3.547	0.011	1086.631	50.0	2	2.42	1.0	15.3436	70.0	3.16	Outcome2	-0.19	2.42	3.54725	Yes	n/a	2.6082766439909304	n/a	n/a	n/a	TrialHappPreview	Gain
381.434	4.016	0.018	1090.196	50.0	2	2.42	1.0	15.3436	70.0	3.16	Outcome2	-0.19	2.42	3.54725	Yes	n/a	2.6082766439909304	n/a	n/a	512.0	TrialHappiness	Gain
381.435	0.0	n/a	1090.197	50.0	2	2.42	1.0	15.3436	70.0	3.16	Outcome2	-0.19	2.42	3.54725	Yes	n/a	2.6082766439909304	n/a	n/a	512.0	TrialHappinessSliderResponse	Gain
385.45	6.189	4.016	1094.212	50.0	2	2.42	1.0	15.3436	70.0	3.16	Outcome2	-0.19	2.42	3.54725	Yes	n/a	2.6082766439909304	n/a	n/a	n/a	ISIRate	Gain
391.664	3.0	0.025	1100.426	51.0	2	-7.45	1.0	14.4124	70.0	1.82	Outcome2	10.7	-7.45	0.0	No	2.0	-18.1496598639456	1.737	393.401	n/a	GetAnswer	Loss
393.413	4.0	0.012	1102.175	51.0	2	-7.45	1.0	14.4124	70.0	1.82	Outcome2	10.7	-7.45	0.0	No	n/a	-18.1496598639456	n/a	n/a	n/a	ShowChoice	Loss
397.429	1.0	0.016	1106.191	51.0	2	-7.45	1.0	14.4124	70.0	1.82	Outcome2	10.7	-7.45	0.0	No	n/a	-18.1496598639456	n/a	n/a	n/a	ShowResult	Loss
398.445	5.508	0.016	1107.207	51.0	2	-7.45	1.0	14.4124	70.0	1.82	Outcome2	10.7	-7.45	0.0	No	n/a	-18.1496598639456	n/a	n/a	n/a	ISITrial	Loss
403.977	3.0	0.024	1112.739	52.0	2	-4.75	-2.38	13.8186	70.0	3.6	Outcome1	-4.75	13.9	0.0	No	2.0	-18.6507936507937	1.854	405.831	n/a	GetAnswer	Loss
405.859	4.0	0.028	1114.621	52.0	2	-4.75	-2.38	13.8186	70.0	3.6	Outcome1	-4.75	13.9	0.0	No	n/a	-18.6507936507937	n/a	n/a	n/a	ShowChoice	Loss
409.874	1.0	0.015	1118.636	52.0	2	-4.75	-2.38	13.8186	70.0	3.6	Outcome1	-4.75	13.9	0.0	No	n/a	-18.6507936507937	n/a	n/a	n/a	ShowResult	Loss
410.891	5.913	0.017	1119.653	52.0	2	-4.75	-2.38	13.8186	70.0	3.6	Outcome1	-4.75	13.9	0.0	No	n/a	-18.6507936507937	n/a	n/a	n/a	ISITrial	Loss
416.822	3.0	0.018	1125.584	53.0	2	-15.05	-5.0	11.9374	70.0	1.5	Outcome1	-15.05	4.1	2.99675	Yes	2.0	-19.1519274376417	1.808	418.63	n/a	GetAnswer	Mixed
418.655	4.0	0.024	1127.417	53.0	2	-15.05	-5.0	11.9374	70.0	1.5	Outcome1	-15.05	4.1	2.99675	Yes	n/a	-19.1519274376417	n/a	n/a	n/a	ShowChoice	Mixed
422.67	1.0	0.015	1131.432	53.0	2	-15.05	-5.0	11.9374	70.0	1.5	Outcome1	-15.05	4.1	2.99675	Yes	n/a	-19.1519274376417	n/a	n/a	n/a	ShowResult	Mixed
423.686	3.66	0.016	1132.448	53.0	2	-15.05	-5.0	11.9374	70.0	1.5	Outcome1	-15.05	4.1	2.99675	Yes	n/a	-19.1519274376417	n/a	n/a	n/a	ISITrial	Mixed
427.368	2.997	0.022	1136.13	53.0	2	-15.05	-5.0	11.9374	70.0	1.5	Outcome1	-15.05	4.1	2.99675	Yes	n/a	-19.1519274376417	n/a	n/a	n/a	TrialHappPreview	Mixed
430.384	4.015	0.019	1139.146	53.0	2	-15.05	-5.0	11.9374	70.0	1.5	Outcome1	-15.05	4.1	2.99675	Yes	n/a	-19.1519274376417	n/a	n/a	488.0	TrialHappiness	Mixed
430.385	2.001	n/a	1139.888	53.0	2	-15.05	-5.0	11.9374	70.0	1.5	Outcome1	-15.05	4.1	2.99675	Yes	n/a	-19.1519274376417	n/a	n/a	488.0	TrialHappinessSliderResponse	Mixed
434.399	3.987	4.015	1143.161	53.0	2	-15.05	-5.0	11.9374	70.0	1.5	Outcome1	-15.05	4.1	2.99675	Yes	n/a	-19.1519274376417	n/a	n/a	n/a	ISIRate	Mixed
438.415	3.0	0.029	1147.177	54.0	2	-11.34	-1.0	10.5199	70.0	3.6	Outcome2	7.9	-11.34	0.0	No	2.0	-19.2448979591837	2.371	440.786	n/a	GetAnswer	Gain
440.814	4.0	0.028	1149.576	54.0	2	-11.34	-1.0	10.5199	70.0	3.6	Outcome2	7.9	-11.34	0.0	No	n/a	-19.2448979591837	n/a	n/a	n/a	ShowChoice	Gain
444.829	1.0	0.015	1153.591	54.0	2	-11.34	-1.0	10.5199	70.0	3.6	Outcome2	7.9	-11.34	0.0	No	n/a	-19.2448979591837	n/a	n/a	n/a	ShowResult	Gain
445.845	8.0	0.016	1154.607	54.0	2	-11.34	-1.0	10.5199	70.0	3.6	Outcome2	7.9	-11.34	0.0	No	n/a	-19.2448979591837	n/a	n/a	n/a	ISITrial	Gain
506.525	3.686	n/a	1215.309	n/a	2	n/a	n/a	n/a	n/a	n/a	n/a	n/a	n/a	n/a	n/a	n/a	n/a	n/a	n/a	424.0	BlockStartHappinessSliderResponse	n/a
-68.726	-0.001	0.031	1162.638	n/a	3	n/a	n/a	n/a	n/a	n/a	n/a	n/a	n/a	n/a	n/a	{SPACE}	n/a	48.609	-20.117	n/a	Rest	n/a
-20.093	4.0	0.024	1211.271	n/a	3	n/a	n/a	n/a	n/a	n/a	n/a	n/a	n/a	n/a	n/a	n/a	n/a	n/a	n/a	n/a	BlockHappyPreview	n/a
-16.078	3.708	0.015	1215.286	n/a	3	n/a	n/a	n/a	n/a	n/a	n/a	n/a	n/a	n/a	n/a	n/a	n/a	n/a	n/a	424.0	BlockStartHappiness	n/a
-10.096	-0.001	0.021	1221.268	n/a	3	n/a	n/a	n/a	n/a	n/a	n/a	n/a	n/a	n/a	n/a	5.0	n/a	10.08	-0.016	n/a	ScanWait	n/a
0.0	10.0	0.016	1231.364	n/a	3	n/a	n/a	n/a	n/a	n/a	n/a	n/a	n/a	n/a	n/a	n/a	n/a	n/a	n/a	n/a	GetReady	n/a
10.013	3.0	0.013	1241.377	55.0	3	13.1	2.04	12.1574	955.0	2.22	Outcome2	4.08	13.1	2.53325	Yes	2.0	9.02038505096263	1.209	11.222	n/a	GetAnswer	Loss
11.246	4.0	0.024	1242.61	55.0	3	13.1	2.04	12.1574	955.0	2.22	Outcome2	4.08	13.1	2.53325	Yes	n/a	9.02038505096263	n/a	n/a	n/a	ShowChoice	Loss
15.262	1.0	0.016	1246.626	55.0	3	13.1	2.04	12.1574	955.0	2.22	Outcome2	4.08	13.1	2.53325	Yes	n/a	9.02038505096263	n/a	n/a	n/a	ShowResult	Loss
16.278	7.709	0.016	1247.642	55.0	3	13.1	2.04	12.1574	955.0	2.22	Outcome2	4.08	13.1	2.53325	Yes	n/a	9.02038505096263	n/a	n/a	n/a	ISITrial	Loss
24.009	2.533	0.022	1255.373	55.0	3	13.1	2.04	12.1574	955.0	2.22	Outcome2	4.08	13.1	2.53325	Yes	n/a	9.02038505096263	n/a	n/a	n/a	TrialHappPreview	Loss
26.558	4.015	0.016	1257.922	55.0	3	13.1	2.04	12.1574	955.0	2.22	Outcome2	4.08	13.1	2.53325	Yes	2{-2}2{-2}4{-4}	9.02038505096263	1.14	27.698	532.0	TrialHappiness	Loss
26.558	0.892	n/a	1258.17	55.0	3	13.1	2.04	12.1574	955.0	2.22	Outcome2	4.08	13.1	2.53325	Yes	n/a	9.02038505096263	n/a	n/a	532.0	TrialHappinessSliderResponse	Loss
30.573	2.133	4.015	1261.937	55.0	3	13.1	2.04	12.1574	955.0	2.22	Outcome2	4.08	13.1	2.53325	Yes	n/a	9.02038505096263	n/a	n/a	n/a	ISIRate	Loss
32.722	3.0	0.016	1264.086	56.0	3	3.7	0.0	12.6199	955.0	1.0	Outcome2	-4.09	3.7	0.0	No	2.0	7.78708946772367	1.609	34.331	n/a	GetAnswer	Mixed
34.355	4.0	0.024	1265.719	56.0	3	3.7	0.0	12.6199	955.0	1.0	Outcome2	-4.09	3.7	0.0	No	n/a	7.78708946772367	n/a	n/a	n/a	ShowChoice	Mixed
38.37	1.0	0.015	1269.734	56.0	3	3.7	0.0	12.6199	955.0	1.0	Outcome2	-4.09	3.7	0.0	No	n/a	7.78708946772367	n/a	n/a	n/a	ShowResult	Mixed
39.387	4.697	0.017	1270.751	56.0	3	3.7	0.0	12.6199	955.0	1.0	Outcome2	-4.09	3.7	0.0	No	n/a	7.78708946772367	n/a	n/a	n/a	ISITrial	Mixed
44.102	3.0	0.018	1275.466	57.0	3	-4.0	-4.0	12.1199	955.0	0.82	Certain	-8.77	-0.5	0.0	No	4.0	8.26613816534541	1.705	45.807	n/a	GetAnswer	Mixed
45.834	4.0	0.027	1277.198	57.0	3	-4.0	-4.0	12.1199	955.0	0.82	Certain	-8.77	-0.5	0.0	No	n/a	8.26613816534541	n/a	n/a	n/a	ShowChoice	Mixed
49.85	1.0	0.016	1281.214	57.0	3	-4.0	-4.0	12.1199	955.0	0.82	Certain	-8.77	-0.5	0.0	No	n/a	8.26613816534541	n/a	n/a	n/a	ShowResult	Mixed
50.866	4.291	0.016	1282.23	57.0	3	-4.0	-4.0	12.1199	955.0	0.82	Certain	-8.77	-0.5	0.0	No	n/a	8.26613816534541	n/a	n/a	n/a	ISITrial	Mixed
55.181	3.0	0.024	1286.545	58.0	3	-4.0	-4.0	11.6199	955.0	1.5	Certain	0.1	-8.65	3.04575	Yes	4.0	8.74518686296716	1.596	56.777	n/a	GetAnswer	Mixed
56.797	4.0	0.02	1288.161	58.0	3	-4.0	-4.0	11.6199	955.0	1.5	Certain	0.1	-8.65	3.04575	Yes	n/a	8.74518686296716	n/a	n/a	n/a	ShowChoice	Mixed
60.812	1.0	0.015	1292.176	58.0	3	-4.0	-4.0	11.6199	955.0	1.5	Certain	0.1	-8.65	3.04575	Yes	n/a	8.74518686296716	n/a	n/a	n/a	ShowResult	Mixed
61.829	2.037	0.017	1293.193	58.0	3	-4.0	-4.0	11.6199	955.0	1.5	Certain	0.1	-8.65	3.04575	Yes	n/a	8.74518686296716	n/a	n/a	n/a	ISITrial	Mixed
63.878	3.046	0.012	1295.242	58.0	3	-4.0	-4.0	11.6199	955.0	1.5	Certain	0.1	-8.65	3.04575	Yes	n/a	8.74518686296716	n/a	n/a	n/a	TrialHappPreview	Mixed
66.944	4.015	0.02	1298.308	58.0	3	-4.0	-4.0	11.6199	955.0	1.5	Certain	0.1	-8.65	3.04575	Yes	n/a	8.74518686296716	n/a	n/a	452.0	TrialHappiness	Mixed
66.944	0.423	n/a	1298.358	58.0	3	-4.0	-4.0	11.6199	955.0	1.5	Certain	0.1	-8.65	3.04575	Yes	n/a	8.74518686296716	n/a	n/a	452.0	TrialHappinessSliderResponse	Mixed
70.959	4.183	4.015	1302.323	58.0	3	-4.0	-4.0	11.6199	955.0	1.5	Certain	0.1	-8.65	3.04575	Yes	n/a	8.74518686296716	n/a	n/a	n/a	ISIRate	Mixed
75.174	3.0	0.032	1306.538	59.0	3	12.1	0.76	13.1324	955.0	4.2	Outcome1	12.1	1.52	0.0	No	2.0	10.5832389580974	2.71	77.884	n/a	GetAnswer	Loss
77.907	4.0	0.023	1309.271	59.0	3	12.1	0.76	13.1324	955.0	4.2	Outcome1	12.1	1.52	0.0	No	n/a	10.5832389580974	n/a	n/a	n/a	ShowChoice	Loss
81.922	1.0	0.015	1313.286	59.0	3	12.1	0.76	13.1324	955.0	4.2	Outcome1	12.1	1.52	0.0	No	n/a	10.5832389580974	n/a	n/a	n/a	ShowResult	Loss
82.938	5.064	0.016	1314.302	59.0	3	12.1	0.76	13.1324	955.0	4.2	Outcome1	12.1	1.52	0.0	No	n/a	10.5832389580974	n/a	n/a	n/a	ISITrial	Loss
88.02	3.0	0.018	1319.384	60.0	3	4.5	-1.0	13.6949	955.0	1.68	Outcome2	-6.65	4.5	3.5625	Yes	2.0	11.152887882219698	1.446	89.466	n/a	GetAnswer	Gain
89.486	4.0	0.02	1320.85	60.0	3	4.5	-1.0	13.6949	955.0	1.68	Outcome2	-6.65	4.5	3.5625	Yes	n/a	11.152887882219698	n/a	n/a	n/a	ShowChoice	Gain
93.501	1.0	0.015	1324.865	60.0	3	4.5	-1.0	13.6949	955.0	1.68	Outcome2	-6.65	4.5	3.5625	Yes	n/a	11.152887882219698	n/a	n/a	n/a	ShowResult	Gain
94.517	8.0	0.016	1325.881	60.0	3	4.5	-1.0	13.6949	955.0	1.68	Outcome2	-6.65	4.5	3.5625	Yes	n/a	11.152887882219698	n/a	n/a	n/a	ISITrial	Gain
102.531	3.562	0.014	1333.895	60.0	3	4.5	-1.0	13.6949	955.0	1.68	Outcome2	-6.65	4.5	3.5625	Yes	n/a	11.152887882219698	n/a	n/a	n/a	TrialHappPreview	Gain
106.113	4.016	0.02	1337.477	60.0	3	4.5	-1.0	13.6949	955.0	1.68	Outcome2	-6.65	4.5	3.5625	Yes	4{-4}2{-2}2{-2}	11.152887882219698	3.456	109.569	516.0	TrialHappiness	Gain
106.114	2.873	n/a	1338.061	60.0	3	4.5	-1.0	13.6949	955.0	1.68	Outcome2	-6.65	4.5	3.5625	Yes	n/a	11.152887882219698	n/a	n/a	516.0	TrialHappinessSliderResponse	Gain
110.129	6.25	4.016	1341.493	60.0	3	4.5	-1.0	13.6949	955.0	1.68	Outcome2	-6.65	4.5	3.5625	Yes	n/a	11.152887882219698	n/a	n/a	n/a	ISIRate	Gain
116.41	3.0	0.031	1347.774	61.0	3	0.3	-5.0	13.7324	955.0	2.0	Outcome2	-10.34	0.3	0.0	No	2.0	10.6353340883352	2.55	118.96	n/a	GetAnswer	Mixed
118.976	4.0	0.016	1350.34	61.0	3	0.3	-5.0	13.7324	955.0	2.0	Outcome2	-10.34	0.3	0.0	No	n/a	10.6353340883352	n/a	n/a	n/a	ShowChoice	Mixed
122.991	1.0	0.015	1354.355	61.0	3	0.3	-5.0	13.7324	955.0	2.0	Outcome2	-10.34	0.3	0.0	No	n/a	10.6353340883352	n/a	n/a	n/a	ShowResult	Mixed
124.007	4.586	0.016	1355.371	61.0	3	0.3	-5.0	13.7324	955.0	2.0	Outcome2	-10.34	0.3	0.0	No	n/a	10.6353340883352	n/a	n/a	n/a	ISITrial	Mixed
128.622	3.0	0.029	1359.986	62.0	3	-1.3	-7.0	13.5699	955.0	0.3	Outcome2	-12.43	-1.3	3.74875	Yes	2.0	11.1325028312571	2.334	130.956	n/a	GetAnswer	Mixed
130.972	4.0	0.016	1362.336	62.0	3	-1.3	-7.0	13.5699	955.0	0.3	Outcome2	-12.43	-1.3	3.74875	Yes	n/a	11.1325028312571	n/a	n/a	n/a	ShowChoice	Mixed
134.987	1.0	0.015	1366.351	62.0	3	-1.3	-7.0	13.5699	955.0	0.3	Outcome2	-12.43	-1.3	3.74875	Yes	n/a	11.1325028312571	n/a	n/a	n/a	ShowResult	Mixed
136.003	5.212	0.016	1367.367	62.0	3	-1.3	-7.0	13.5699	955.0	0.3	Outcome2	-12.43	-1.3	3.74875	Yes	n/a	11.1325028312571	n/a	n/a	n/a	ISITrial	Mixed
141.235	3.749	0.02	1372.599	62.0	3	-1.3	-7.0	13.5699	955.0	0.3	Outcome2	-12.43	-1.3	3.74875	Yes	n/a	11.1325028312571	n/a	n/a	n/a	TrialHappPreview	Mixed
145.0	4.032	0.016	1376.364	62.0	3	-1.3	-7.0	13.5699	955.0	0.3	Outcome2	-12.43	-1.3	3.74875	Yes	n/a	11.1325028312571	n/a	n/a	472.0	TrialHappiness	Mixed
145.001	3.319	n/a	1376.779	62.0	3	-1.3	-7.0	13.5699	955.0	0.3	Outcome2	-12.43	-1.3	3.74875	Yes	n/a	11.1325028312571	n/a	n/a	472.0	TrialHappinessSliderResponse	Mixed
149.032	6.995	4.032	1380.396	62.0	3	-1.3	-7.0	13.5699	955.0	0.3	Outcome2	-12.43	-1.3	3.74875	Yes	n/a	11.1325028312571	n/a	n/a	n/a	ISIRate	Mixed
156.046	3.0	0.019	1387.41	63.0	3	4.59	2.3	14.1437	955.0	2.0	Outcome2	6.9	4.59	0.0	No	2.0	-2.3077576443941097	1.489	157.535	n/a	GetAnswer	Gain
157.562	4.0	0.027	1388.926	63.0	3	4.59	2.3	14.1437	955.0	2.0	Outcome2	6.9	4.59	0.0	No	n/a	-2.3077576443941097	n/a	n/a	n/a	ShowChoice	Gain
161.578	1.0	0.016	1392.942	63.0	3	4.59	2.3	14.1437	955.0	2.0	Outcome2	6.9	4.59	0.0	No	n/a	-2.3077576443941097	n/a	n/a	n/a	ShowResult	Gain
162.594	5.595	0.016	1393.958	63.0	3	4.59	2.3	14.1437	955.0	2.0	Outcome2	6.9	4.59	0.0	No	n/a	-2.3077576443941097	n/a	n/a	n/a	ISITrial	Gain
168.209	3.0	0.02	1399.573	64.0	3	8.3	2.0	15.1812	955.0	5.0	Outcome2	-4.62	8.3	0.0	No	2.0	12.9241223103058	1.465	169.674	n/a	GetAnswer	Gain
169.691	4.0	0.017	1401.055	64.0	3	8.3	2.0	15.1812	955.0	5.0	Outcome2	-4.62	8.3	0.0	No	n/a	12.9241223103058	n/a	n/a	n/a	ShowChoice	Gain
173.707	1.0	0.016	1405.071	64.0	3	8.3	2.0	15.1812	955.0	5.0	Outcome2	-4.62	8.3	0.0	No	n/a	12.9241223103058	n/a	n/a	n/a	ShowResult	Gain
174.723	5.47	0.016	1406.087	64.0	3	8.3	2.0	15.1812	955.0	5.0	Outcome2	-4.62	8.3	0.0	No	n/a	12.9241223103058	n/a	n/a	n/a	ISITrial	Gain
180.221	3.0	0.028	1411.585	65.0	3	3.1	-3.0	15.5687	955.0	0.52	Outcome1	3.1	-10.37	2.99675	Yes	2.0	13.4711211778029	2.1	182.321	n/a	GetAnswer	Mixed
182.337	4.0	0.016	1413.701	65.0	3	3.1	-3.0	15.5687	955.0	0.52	Outcome1	3.1	-10.37	2.99675	Yes	n/a	13.4711211778029	n/a	n/a	n/a	ShowChoice	Mixed
186.352	1.0	0.015	1417.716	65.0	3	3.1	-3.0	15.5687	955.0	0.52	Outcome1	3.1	-10.37	2.99675	Yes	n/a	13.4711211778029	n/a	n/a	n/a	ShowResult	Mixed
187.369	3.344	0.017	1418.733	65.0	3	3.1	-3.0	15.5687	955.0	0.52	Outcome1	3.1	-10.37	2.99675	Yes	n/a	13.4711211778029	n/a	n/a	n/a	ISITrial	Mixed
190.734	2.997	0.021	1422.098	65.0	3	3.1	-3.0	15.5687	955.0	0.52	Outcome1	3.1	-10.37	2.99675	Yes	n/a	13.4711211778029	n/a	n/a	n/a	TrialHappPreview	Mixed
193.75	4.015	0.019	1425.114	65.0	3	3.1	-3.0	15.5687	955.0	0.52	Outcome1	3.1	-10.37	2.99675	Yes	n/a	13.4711211778029	n/a	n/a	532.0	TrialHappiness	Mixed
193.75	0.113	n/a	1425.681	65.0	3	3.1	-3.0	15.5687	955.0	0.52	Outcome1	3.1	-10.37	2.99675	Yes	n/a	13.4711211778029	n/a	n/a	532.0	TrialHappinessSliderResponse	Mixed
197.765	3.987	4.015	1429.129	65.0	3	3.1	-3.0	15.5687	955.0	0.52	Outcome1	3.1	-10.37	2.99675	Yes	n/a	13.4711211778029	n/a	n/a	n/a	ISIRate	Mixed
201.78	3.0	0.028	1433.144	66.0	3	11.3	-0.85	16.9812	955.0	2.48	Outcome1	11.3	-1.7	0.0	No	2.0	12.998867497168698	1.499	203.279	n/a	GetAnswer	Loss
203.297	4.0	0.018	1434.661	66.0	3	11.3	-0.85	16.9812	955.0	2.48	Outcome1	11.3	-1.7	0.0	No	n/a	12.998867497168698	n/a	n/a	n/a	ShowChoice	Loss
207.312	1.0	0.015	1438.676	66.0	3	11.3	-0.85	16.9812	955.0	2.48	Outcome1	11.3	-1.7	0.0	No	n/a	12.998867497168698	n/a	n/a	n/a	ShowResult	Loss
208.328	3.959	0.016	1439.692	66.0	3	11.3	-0.85	16.9812	955.0	2.48	Outcome1	11.3	-1.7	0.0	No	n/a	12.998867497168698	n/a	n/a	n/a	ISITrial	Loss
212.31	3.0	0.023	1443.674	67.0	3	2.0	2.0	17.2312	955.0	0.82	Certain	1.26	3.5	2.9185	Yes	4.0	-2.24093997734994	2.339	214.649	n/a	GetAnswer	Mixed
214.676	4.0	0.027	1446.04	67.0	3	2.0	2.0	17.2312	955.0	0.82	Certain	1.26	3.5	2.9185	Yes	n/a	-2.24093997734994	n/a	n/a	n/a	ShowChoice	Mixed
218.691	1.0	0.015	1450.055	67.0	3	2.0	2.0	17.2312	955.0	0.82	Certain	1.26	3.5	2.9185	Yes	n/a	-2.24093997734994	n/a	n/a	n/a	ShowResult	Mixed
219.708	4.199	0.017	1451.072	67.0	3	2.0	2.0	17.2312	955.0	0.82	Certain	1.26	3.5	2.9185	Yes	n/a	-2.24093997734994	n/a	n/a	n/a	ISITrial	Mixed
223.923	2.918	0.016	1455.287	67.0	3	2.0	2.0	17.2312	955.0	0.82	Certain	1.26	3.5	2.9185	Yes	n/a	-2.24093997734994	n/a	n/a	n/a	TrialHappPreview	Mixed
226.872	4.015	0.031	1458.236	67.0	3	2.0	2.0	17.2312	955.0	0.82	Certain	1.26	3.5	2.9185	Yes	n/a	-2.24093997734994	n/a	n/a	596.0	TrialHappiness	Mixed
226.872	2.371	n/a	1459.024	67.0	3	2.0	2.0	17.2312	955.0	0.82	Certain	1.26	3.5	2.9185	Yes	n/a	-2.24093997734994	n/a	n/a	596.0	TrialHappinessSliderResponse	Mixed
230.887	3.674	4.015	1462.251	67.0	3	2.0	2.0	17.2312	955.0	0.82	Certain	1.26	3.5	2.9185	Yes	n/a	-2.24093997734994	n/a	n/a	n/a	ISIRate	Mixed
234.586	3.0	0.025	1465.95	68.0	3	1.3	-5.0	17.3937	955.0	0.66	Outcome2	-11.57	1.3	0.0	No	2.0	12.8697621744054	1.896	236.482	n/a	GetAnswer	Mixed
236.502	4.0	0.02	1467.866	68.0	3	1.3	-5.0	17.3937	955.0	0.66	Outcome2	-11.57	1.3	0.0	No	n/a	12.8697621744054	n/a	n/a	n/a	ShowChoice	Mixed
240.517	1.0	0.015	1471.881	68.0	3	1.3	-5.0	17.3937	955.0	0.66	Outcome2	-11.57	1.3	0.0	No	n/a	12.8697621744054	n/a	n/a	n/a	ShowResult	Mixed
241.533	2.185	0.016	1472.897	68.0	3	1.3	-5.0	17.3937	955.0	0.66	Outcome2	-11.57	1.3	0.0	No	n/a	12.8697621744054	n/a	n/a	n/a	ISITrial	Mixed
243.749	3.0	0.031	1475.113	69.0	3	8.24	4.12	18.4237	955.0	5.0	Outcome1	8.24	10.3	0.0	No	2.0	-2.05502076255191	1.814	245.563	n/a	GetAnswer	Gain
245.582	4.0	0.019	1476.946	69.0	3	8.24	4.12	18.4237	955.0	5.0	Outcome1	8.24	10.3	0.0	No	n/a	-2.05502076255191	n/a	n/a	n/a	ShowChoice	Gain
249.597	1.0	0.015	1480.961	69.0	3	8.24	4.12	18.4237	955.0	5.0	Outcome1	8.24	10.3	0.0	No	n/a	-2.05502076255191	n/a	n/a	n/a	ShowResult	Gain
250.614	2.0	0.017	1481.978	69.0	3	8.24	4.12	18.4237	955.0	5.0	Outcome1	8.24	10.3	0.0	No	n/a	-2.05502076255191	n/a	n/a	n/a	ISITrial	Gain
252.646	3.0	0.032	1484.01	70.0	3	-2.0	-2.0	18.1737	955.0	0.52	Certain	-0.9	-2.99	3.65125	Yes	4.0	-2.08890147225368	2.776	255.422	n/a	GetAnswer	Mixed
255.445	4.0	0.023	1486.809	70.0	3	-2.0	-2.0	18.1737	955.0	0.52	Certain	-0.9	-2.99	3.65125	Yes	n/a	-2.08890147225368	n/a	n/a	n/a	ShowChoice	Mixed
259.46	1.0	0.015	1490.824	70.0	3	-2.0	-2.0	18.1737	955.0	0.52	Certain	-0.9	-2.99	3.65125	Yes	n/a	-2.08890147225368	n/a	n/a	n/a	ShowResult	Mixed
260.477	2.623	0.017	1491.841	70.0	3	-2.0	-2.0	18.1737	955.0	0.52	Certain	-0.9	-2.99	3.65125	Yes	n/a	-2.08890147225368	n/a	n/a	n/a	ISITrial	Mixed
263.126	3.651	0.026	1494.49	70.0	3	-2.0	-2.0	18.1737	955.0	0.52	Certain	-0.9	-2.99	3.65125	Yes	n/a	-2.08890147225368	n/a	n/a	n/a	TrialHappPreview	Mixed
266.808	4.015	0.031	1498.172	70.0	3	-2.0	-2.0	18.1737	955.0	0.52	Certain	-0.9	-2.99	3.65125	Yes	n/a	-2.08890147225368	n/a	n/a	480.0	TrialHappiness	Mixed
266.809	1.359	n/a	1498.818	70.0	3	-2.0	-2.0	18.1737	955.0	0.52	Certain	-0.9	-2.99	3.65125	Yes	n/a	-2.08890147225368	n/a	n/a	480.0	TrialHappinessSliderResponse	Mixed
270.823	6.605	4.015	1502.187	70.0	3	-2.0	-2.0	18.1737	955.0	0.52	Certain	-0.9	-2.99	3.65125	Yes	n/a	-2.08890147225368	n/a	n/a	n/a	ISIRate	Mixed
277.454	3.0	0.026	1508.818	71.0	3	4.91	2.46	18.7875	955.0	2.8	Outcome1	4.91	7.5	0.0	No	2.0	-2.5935258588146497	1.696	279.15	n/a	GetAnswer	Gain
279.17	4.0	0.02	1510.534	71.0	3	4.91	2.46	18.7875	955.0	2.8	Outcome1	4.91	7.5	0.0	No	n/a	-2.5935258588146497	n/a	n/a	n/a	ShowChoice	Gain
283.186	1.0	0.016	1514.55	71.0	3	4.91	2.46	18.7875	955.0	2.8	Outcome1	4.91	7.5	0.0	No	n/a	-2.5935258588146497	n/a	n/a	n/a	ShowResult	Gain
284.202	5.499	0.016	1515.566	71.0	3	4.91	2.46	18.7875	955.0	2.8	Outcome1	4.91	7.5	0.0	No	n/a	-2.5935258588146497	n/a	n/a	n/a	ISITrial	Gain
289.733	3.0	0.032	1521.097	72.0	3	11.9	-2.35	20.275	955.0	3.6	Outcome2	-4.7	11.9	3.0805	Yes	2.0	16.5979614949037	1.188	290.921	n/a	GetAnswer	Loss
290.933	4.0	0.012	1522.297	72.0	3	11.9	-2.35	20.275	955.0	3.6	Outcome2	-4.7	11.9	3.0805	Yes	n/a	16.5979614949037	n/a	n/a	n/a	ShowChoice	Loss
294.948	1.0	0.015	1526.312	72.0	3	11.9	-2.35	20.275	955.0	3.6	Outcome2	-4.7	11.9	3.0805	Yes	n/a	16.5979614949037	n/a	n/a	n/a	ShowResult	Loss
295.964	5.672	0.016	1527.328	72.0	3	11.9	-2.35	20.275	955.0	3.6	Outcome2	-4.7	11.9	3.0805	Yes	n/a	16.5979614949037	n/a	n/a	n/a	ISITrial	Loss
301.663	3.08	0.027	1533.027	72.0	3	11.9	-2.35	20.275	955.0	3.6	Outcome2	-4.7	11.9	3.0805	Yes	n/a	16.5979614949037	n/a	n/a	n/a	TrialHappPreview	Loss
304.761	4.016	0.018	1536.125	72.0	3	11.9	-2.35	20.275	955.0	3.6	Outcome2	-4.7	11.9	3.0805	Yes	n/a	16.5979614949037	n/a	n/a	552.0	TrialHappiness	Loss
304.762	0.82	n/a	1536.215	72.0	3	11.9	-2.35	20.275	955.0	3.6	Outcome2	-4.7	11.9	3.0805	Yes	n/a	16.5979614949037	n/a	n/a	552.0	TrialHappinessSliderResponse	Loss
308.777	4.322	4.016	1540.141	72.0	3	11.9	-2.35	20.275	955.0	3.6	Outcome2	-4.7	11.9	3.0805	Yes	n/a	16.5979614949037	n/a	n/a	n/a	ISIRate	Loss
313.125	3.0	0.026	1544.489	73.0	3	5.9	-2.0	21.0125	955.0	3.6	Outcome2	-10.01	5.9	0.0	No	2.0	15.912797281993198	2.319	315.444	n/a	GetAnswer	Gain
315.458	4.0	0.013	1546.822	73.0	3	5.9	-2.0	21.0125	955.0	3.6	Outcome2	-10.01	5.9	0.0	No	n/a	15.912797281993198	n/a	n/a	n/a	ShowChoice	Gain
319.473	1.0	0.015	1550.837	73.0	3	5.9	-2.0	21.0125	955.0	3.6	Outcome2	-10.01	5.9	0.0	No	n/a	15.912797281993198	n/a	n/a	n/a	ShowResult	Gain
320.489	4.616	0.016	1551.853	73.0	3	5.9	-2.0	21.0125	955.0	3.6	Outcome2	-10.01	5.9	0.0	No	n/a	15.912797281993198	n/a	n/a	n/a	ISITrial	Gain
325.138	3.0	0.033	1556.502	74.0	3	6.3	-2.0	21.8	955.0	5.0	Outcome2	-10.07	6.3	3.05625	Yes	2.0	16.3691959229898	1.632	326.77	n/a	GetAnswer	Gain
326.787	4.0	0.017	1558.151	74.0	3	6.3	-2.0	21.8	955.0	5.0	Outcome2	-10.07	6.3	3.05625	Yes	n/a	16.3691959229898	n/a	n/a	n/a	ShowChoice	Gain
330.802	1.0	0.015	1562.166	74.0	3	6.3	-2.0	21.8	955.0	5.0	Outcome2	-10.07	6.3	3.05625	Yes	n/a	16.3691959229898	n/a	n/a	n/a	ShowResult	Gain
331.819	3.909	0.017	1563.183	74.0	3	6.3	-2.0	21.8	955.0	5.0	Outcome2	-10.07	6.3	3.05625	Yes	n/a	16.3691959229898	n/a	n/a	n/a	ISITrial	Gain
335.751	3.056	0.023	1567.115	74.0	3	6.3	-2.0	21.8	955.0	5.0	Outcome2	-10.07	6.3	3.05625	Yes	n/a	16.3691959229898	n/a	n/a	n/a	TrialHappPreview	Gain
338.833	4.015	0.026	1570.197	74.0	3	6.3	-2.0	21.8	955.0	5.0	Outcome2	-10.07	6.3	3.05625	Yes	n/a	16.3691959229898	n/a	n/a	564.0	TrialHappiness	Gain
338.834	1.003	n/a	1571.295	74.0	3	6.3	-2.0	21.8	955.0	5.0	Outcome2	-10.07	6.3	3.05625	Yes	n/a	16.3691959229898	n/a	n/a	564.0	TrialHappinessSliderResponse	Gain
342.848	4.225	4.015	1574.212	74.0	3	6.3	-2.0	21.8	955.0	5.0	Outcome2	-10.07	6.3	3.05625	Yes	n/a	16.3691959229898	n/a	n/a	n/a	ISIRate	Gain
347.097	3.0	0.024	1578.461	75.0	3	-0.3	-8.0	21.7625	955.0	1.0	Outcome1	-0.3	-16.92	0.0	No	n/a	16.6217440543601	n/a	n/a	n/a	GetAnswer	Mixed
350.112	4.0	0.015	1581.476	75.0	3	-0.3	-8.0	21.7625	955.0	1.0	Outcome1	-0.3	-16.92	0.0	No	n/a	16.6217440543601	n/a	n/a	n/a	ShowChoice	Mixed
354.128	1.0	0.016	1585.492	75.0	3	-0.3	-8.0	21.7625	955.0	1.0	Outcome1	-0.3	-16.92	0.0	No	n/a	16.6217440543601	n/a	n/a	n/a	ShowResult	Mixed
355.144	4.979	0.016	1586.508	75.0	3	-0.3	-8.0	21.7625	955.0	1.0	Outcome1	-0.3	-16.92	0.0	No	n/a	16.6217440543601	n/a	n/a	n/a	ISITrial	Mixed
360.142	3.0	0.019	1591.506	76.0	3	6.64	3.32	22.5925	955.0	2.22	Outcome2	9.1	6.64	0.0	No	2.0	-2.45526613816534	1.609	361.751	n/a	GetAnswer	Gain
361.775	4.0	0.024	1593.139	76.0	3	6.64	3.32	22.5925	955.0	2.22	Outcome2	9.1	6.64	0.0	No	n/a	-2.45526613816534	n/a	n/a	n/a	ShowChoice	Gain
365.79	1.0	0.015	1597.154	76.0	3	6.64	3.32	22.5925	955.0	2.22	Outcome2	9.1	6.64	0.0	No	n/a	-2.45526613816534	n/a	n/a	n/a	ShowResult	Gain
366.807	3.931	0.017	1598.171	76.0	3	6.64	3.32	22.5925	955.0	2.22	Outcome2	9.1	6.64	0.0	No	n/a	-2.45526613816534	n/a	n/a	n/a	ISITrial	Gain
370.755	3.0	0.017	1602.119	77.0	3	11.1	2.0	23.98	955.0	2.22	Outcome2	-6.41	11.1	4.0	Yes	2.0	17.507361268403198	0.987	371.742	n/a	GetAnswer	Loss
371.755	4.0	0.013	1603.119	77.0	3	11.1	2.0	23.98	955.0	2.22	Outcome2	-6.41	11.1	4.0	Yes	n/a	17.507361268403198	n/a	n/a	n/a	ShowChoice	Loss
375.77	1.0	0.015	1607.134	77.0	3	11.1	2.0	23.98	955.0	2.22	Outcome2	-6.41	11.1	4.0	Yes	n/a	17.507361268403198	n/a	n/a	n/a	ShowResult	Loss
376.787	7.022	0.017	1608.151	77.0	3	11.1	2.0	23.98	955.0	2.22	Outcome2	-6.41	11.1	4.0	Yes	n/a	17.507361268403198	n/a	n/a	n/a	ISITrial	Loss
383.834	4.0	0.025	1615.198	77.0	3	11.1	2.0	23.98	955.0	2.22	Outcome2	-6.41	11.1	4.0	Yes	n/a	17.507361268403198	n/a	n/a	n/a	TrialHappPreview	Loss
387.849	4.016	0.015	1619.213	77.0	3	11.1	2.0	23.98	955.0	2.22	Outcome2	-6.41	11.1	4.0	Yes	n/a	17.507361268403198	n/a	n/a	532.0	TrialHappiness	Loss
387.85	0.15	n/a	1620.553	77.0	3	11.1	2.0	23.98	955.0	2.22	Outcome2	-6.41	11.1	4.0	Yes	n/a	17.507361268403198	n/a	n/a	532.0	TrialHappinessSliderResponse	Loss
391.865	8.0	4.016	1623.229	77.0	3	11.1	2.0	23.98	955.0	2.22	Outcome2	-6.41	11.1	4.0	Yes	n/a	17.507361268403198	n/a	n/a	n/a	ISIRate	Loss
399.895	3.0	0.03	1631.259	78.0	3	12.5	-3.0	25.5425	955.0	1.68	Outcome1	12.5	-5.99	0.0	No	2.0	18.4937712344281	1.83	401.725	n/a	GetAnswer	Loss
401.745	4.0	0.02	1633.109	78.0	3	12.5	-3.0	25.5425	955.0	1.68	Outcome1	12.5	-5.99	0.0	No	n/a	18.4937712344281	n/a	n/a	n/a	ShowChoice	Loss
405.76	1.0	0.015	1637.124	78.0	3	12.5	-3.0	25.5425	955.0	1.68	Outcome1	12.5	-5.99	0.0	No	n/a	18.4937712344281	n/a	n/a	n/a	ShowResult	Loss
406.776	2.078	0.016	1638.14	78.0	3	12.5	-3.0	25.5425	955.0	1.68	Outcome1	12.5	-5.99	0.0	No	n/a	18.4937712344281	n/a	n/a	n/a	ISITrial	Loss
408.875	3.0	0.021	1640.239	79.0	3	3.9	-5.0	26.03	955.0	1.2	Outcome2	-15.07	3.9	2.7295	Yes	n/a	18.9728199320498	n/a	n/a	n/a	GetAnswer	Mixed
411.891	4.0	0.016	1643.255	79.0	3	3.9	-5.0	26.03	955.0	1.2	Outcome2	-15.07	3.9	2.7295	Yes	n/a	18.9728199320498	n/a	n/a	n/a	ShowChoice	Mixed
415.906	1.0	0.015	1647.27	79.0	3	3.9	-5.0	26.03	955.0	1.2	Outcome2	-15.07	3.9	2.7295	Yes	n/a	18.9728199320498	n/a	n/a	n/a	ShowResult	Mixed
416.923	3.829	0.017	1648.287	79.0	3	3.9	-5.0	26.03	955.0	1.2	Outcome2	-15.07	3.9	2.7295	Yes	n/a	18.9728199320498	n/a	n/a	n/a	ISITrial	Mixed
420.771	2.73	0.019	1652.135	79.0	3	3.9	-5.0	26.03	955.0	1.2	Outcome2	-15.07	3.9	2.7295	Yes	n/a	18.9728199320498	n/a	n/a	n/a	TrialHappPreview	Mixed
423.52	4.016	0.019	1654.884	79.0	3	3.9	-5.0	26.03	955.0	1.2	Outcome2	-15.07	3.9	2.7295	Yes	n/a	18.9728199320498	n/a	n/a	612.0	TrialHappiness	Mixed
423.521	2.269	n/a	1655.54	79.0	3	3.9	-5.0	26.03	955.0	1.2	Outcome2	-15.07	3.9	2.7295	Yes	n/a	18.9728199320498	n/a	n/a	612.0	TrialHappinessSliderResponse	Mixed
427.536	2.918	4.016	1658.9	79.0	3	3.9	-5.0	26.03	955.0	1.2	Outcome2	-15.07	3.9	2.7295	Yes	n/a	18.9728199320498	n/a	n/a	n/a	ISIRate	Mixed
430.485	3.0	0.031	1661.849	80.0	3	7.5	-1.0	26.9675	955.0	2.8	Outcome2	-10.59	7.5	0.0	No	2.0	18.092865232163103	1.671	432.156	n/a	GetAnswer	Gain
432.184	4.0	0.027	1663.548	80.0	3	7.5	-1.0	26.9675	955.0	2.8	Outcome2	-10.59	7.5	0.0	No	n/a	18.092865232163103	n/a	n/a	n/a	ShowChoice	Gain
436.199	1.0	0.015	1667.563	80.0	3	7.5	-1.0	26.9675	955.0	2.8	Outcome2	-10.59	7.5	0.0	No	n/a	18.092865232163103	n/a	n/a	n/a	ShowResult	Gain
437.216	3.336	0.017	1668.58	80.0	3	7.5	-1.0	26.9675	955.0	2.8	Outcome2	-10.59	7.5	0.0	No	n/a	18.092865232163103	n/a	n/a	n/a	ISITrial	Gain
440.581	3.0	0.029	1671.945	81.0	3	5.25	2.62	27.6237	955.0	3.16	Outcome1	5.25	7.7	3.92375	Yes	2.0	-2.4464892412231003	2.116	442.697	n/a	GetAnswer	Gain
442.714	4.0	0.017	1674.078	81.0	3	5.25	2.62	27.6237	955.0	3.16	Outcome1	5.25	7.7	3.92375	Yes	n/a	-2.4464892412231003	n/a	n/a	n/a	ShowChoice	Gain
446.729	1.0	0.015	1678.093	81.0	3	5.25	2.62	27.6237	955.0	3.16	Outcome1	5.25	7.7	3.92375	Yes	n/a	-2.4464892412231003	n/a	n/a	n/a	ShowResult	Gain
447.745	3.919	0.016	1679.109	81.0	3	5.25	2.62	27.6237	955.0	3.16	Outcome1	5.25	7.7	3.92375	Yes	n/a	-2.4464892412231003	n/a	n/a	n/a	ISITrial	Gain
451.677	3.924	0.013	1683.041	81.0	3	5.25	2.62	27.6237	955.0	3.16	Outcome1	5.25	7.7	3.92375	Yes	n/a	-2.4464892412231003	n/a	n/a	n/a	TrialHappPreview	Gain
455.626	4.015	0.025	1686.99	81.0	3	5.25	2.62	27.6237	955.0	3.16	Outcome1	5.25	7.7	3.92375	Yes	n/a	-2.4464892412231003	n/a	n/a	632.0	TrialHappiness	Gain
455.627	1.446	n/a	1687.683	81.0	3	5.25	2.62	27.6237	955.0	3.16	Outcome1	5.25	7.7	3.92375	Yes	n/a	-2.4464892412231003	n/a	n/a	632.0	TrialHappinessSliderResponse	Gain
459.641	7.695	4.015	1691.005	81.0	3	5.25	2.62	27.6237	955.0	3.16	Outcome1	5.25	7.7	3.92375	Yes	n/a	-2.4464892412231003	n/a	n/a	n/a	ISIRate	Gain
467.355	3.0	0.019	1698.719	n/a	3	n/a	n/a	n/a	n/a	n/a	n/a	n/a	n/a	n/a	n/a	n/a	n/a	n/a	n/a	n/a	CurrentEarnings	n/a
470.371	-0.001	0.016	1701.735	n/a	3	n/a	n/a	n/a	n/a	n/a	n/a	n/a	n/a	n/a	n/a	4.0	n/a	24.999	495.37	n/a	Goodbye	n/a
