onset	duration	onset_delay	onset_unadjusted	trial_number	block	amount_change	certain_amount	current_amount	mood_target	multiplier	outcome	outcome1_amount	outcome2_amount	question_duration	rating	response	rpe	rt	rt_time	slider_response	trial_phase	trial_type
-27.802	-0.001	0.019	51.052	n/a	0	n/a	n/a	n/a	n/a	n/a	n/a	n/a	n/a	n/a	n/a	{SPACE}	n/a	1.362	-26.44	n/a	Welcome	n/a
-26.412	5.0	0.028	52.442	n/a	0	n/a	n/a	n/a	n/a	n/a	n/a	n/a	n/a	n/a	n/a	n/a	n/a	n/a	n/a	n/a	LifeHappyPreview	n/a
-21.38	4.672	0.032	57.474	n/a	0	n/a	n/a	n/a	n/a	n/a	n/a	n/a	n/a	n/a	n/a	n/a	n/a	n/a	n/a	744.0	LifeHappiness	n/a
-21.38	3.701	n/a	58.445	n/a	0	n/a	n/a	n/a	n/a	n/a	n/a	n/a	n/a	n/a	n/a	n/a	n/a	n/a	n/a	744.0	LifeHappinessSliderResponse	n/a
-14.092	4.0	0.028	64.762	n/a	0	n/a	n/a	n/a	n/a	n/a	n/a	n/a	n/a	n/a	n/a	n/a	n/a	n/a	n/a	n/a	BlockHappyPreview	n/a
-10.08	2.443	0.012	68.774	n/a	0	n/a	n/a	n/a	n/a	n/a	n/a	n/a	n/a	n/a	n/a	n/a	n/a	n/a	n/a	628.0	BlockStartHappiness	n/a
-10.079	1.86	n/a	69.358	n/a	0	n/a	n/a	n/a	n/a	n/a	n/a	n/a	n/a	n/a	n/a	n/a	n/a	n/a	n/a	628.0	BlockStartHappinessSliderResponse	n/a
-4.48	-0.001	0.024	74.374	n/a	0	n/a	n/a	n/a	n/a	n/a	n/a	n/a	n/a	n/a	n/a	5.0	n/a	4.458	-0.022	n/a	ScanWait	n/a
0.0	10.0	0.022	78.854	n/a	1	n/a	n/a	n/a	n/a	n/a	n/a	n/a	n/a	n/a	n/a	n/a	n/a	n/a	n/a	n/a	GetReady	n/a
10.03	3.0	0.03	88.884	1.0	1	3.3	0.0	10.4125	955.0	0.66	Outcome2	-2.25	3.3	0.0	No	2.0	5.5549263873159695	1.696	11.726	n/a	GetAnswer	Mixed
11.752	4.0	0.026	90.606	1.0	1	3.3	0.0	10.4125	955.0	0.66	Outcome2	-2.25	3.3	0.0	No	n/a	5.5549263873159695	n/a	n/a	n/a	ShowChoice	Mixed
15.764	1.0	0.012	94.618	1.0	1	3.3	0.0	10.4125	955.0	0.66	Outcome2	-2.25	3.3	0.0	No	n/a	5.5549263873159695	n/a	n/a	n/a	ShowResult	Mixed
16.784	2.431	0.02	95.638	1.0	1	3.3	0.0	10.4125	955.0	0.66	Outcome2	-2.25	3.3	0.0	No	n/a	5.5549263873159695	n/a	n/a	n/a	ISITrial	Mixed
19.241	3.0	0.026	98.095	2.0	1	9.14	4.57	11.555	955.0	1.68	Outcome2	10.5	9.14	0.0	No	2.0	-1.35787089467724	1.783	21.024	n/a	GetAnswer	Loss
21.046	4.0	0.022	99.9	2.0	1	9.14	4.57	11.555	955.0	1.68	Outcome2	10.5	9.14	0.0	No	n/a	-1.35787089467724	n/a	n/a	n/a	ShowChoice	Loss
25.058	1.0	0.012	103.912	2.0	1	9.14	4.57	11.555	955.0	1.68	Outcome2	10.5	9.14	0.0	No	n/a	-1.35787089467724	n/a	n/a	n/a	ShowResult	Loss
26.078	4.568	0.02	104.932	2.0	1	9.14	4.57	11.555	955.0	1.68	Outcome2	10.5	9.14	0.0	No	n/a	-1.35787089467724	n/a	n/a	n/a	ISITrial	Loss
30.675	3.0	0.029	109.529	3.0	1	-1.89	-1.0	11.3188	955.0	0.82	Outcome1	-1.89	-0.5	2.868	Yes	n/a	-1.38873159682899	n/a	n/a	n/a	GetAnswer	Mixed
33.701	4.0	0.026	112.555	3.0	1	-1.89	-1.0	11.3188	955.0	0.82	Outcome1	-1.89	-0.5	2.868	Yes	n/a	-1.38873159682899	n/a	n/a	n/a	ShowChoice	Mixed
37.73	1.0	0.029	116.584	3.0	1	-1.89	-1.0	11.3188	955.0	0.82	Outcome1	-1.89	-0.5	2.868	Yes	n/a	-1.38873159682899	n/a	n/a	n/a	ShowResult	Mixed
38.749	3.243	0.019	117.603	3.0	1	-1.89	-1.0	11.3188	955.0	0.82	Outcome1	-1.89	-0.5	2.868	Yes	n/a	-1.38873159682899	n/a	n/a	n/a	ISITrial	Mixed
42.009	2.868	0.017	120.863	3.0	1	-1.89	-1.0	11.3188	955.0	0.82	Outcome1	-1.89	-0.5	2.868	Yes	n/a	-1.38873159682899	n/a	n/a	n/a	TrialHappPreview	Mixed
44.901	4.029	0.024	123.755	3.0	1	-1.89	-1.0	11.3188	955.0	0.82	Outcome1	-1.89	-0.5	2.868	Yes	n/a	-1.38873159682899	n/a	n/a	596.0	TrialHappiness	Mixed
44.902	1.119	n/a	124.325	3.0	1	-1.89	-1.0	11.3188	955.0	0.82	Outcome1	-1.89	-0.5	2.868	Yes	n/a	-1.38873159682899	n/a	n/a	596.0	TrialHappinessSliderResponse	Mixed
48.93	3.472	4.029	127.784	3.0	1	-1.89	-1.0	11.3188	955.0	0.82	Outcome1	-1.89	-0.5	2.868	Yes	n/a	-1.38873159682899	n/a	n/a	n/a	ISIRate	Mixed
52.424	3.0	0.022	131.278	4.0	1	5.3	1.0	11.9813	955.0	2.48	Outcome1	5.3	-1.91	0.0	No	2.0	7.209513023782559	1.61	54.034	n/a	GetAnswer	Gain
54.062	4.0	0.028	132.916	4.0	1	5.3	1.0	11.9813	955.0	2.48	Outcome1	5.3	-1.91	0.0	No	n/a	7.209513023782559	n/a	n/a	n/a	ShowChoice	Gain
58.091	1.0	0.029	136.945	4.0	1	5.3	1.0	11.9813	955.0	2.48	Outcome1	5.3	-1.91	0.0	No	n/a	7.209513023782559	n/a	n/a	n/a	ShowResult	Gain
59.11	2.011	0.019	137.964	4.0	1	5.3	1.0	11.9813	955.0	2.48	Outcome1	5.3	-1.91	0.0	No	n/a	7.209513023782559	n/a	n/a	n/a	ISITrial	Gain
61.15	3.0	0.029	140.004	5.0	1	6.9	-0.36	12.8438	955.0	2.0	Outcome2	-0.72	6.9	2.5825	Yes	2.0	7.616081540203849	2.061	63.211	n/a	GetAnswer	Gain
63.239	4.0	0.028	142.093	5.0	1	6.9	-0.36	12.8438	955.0	2.0	Outcome2	-0.72	6.9	2.5825	Yes	n/a	7.616081540203849	n/a	n/a	n/a	ShowChoice	Gain
67.251	1.0	0.012	146.105	5.0	1	6.9	-0.36	12.8438	955.0	2.0	Outcome2	-0.72	6.9	2.5825	Yes	n/a	7.616081540203849	n/a	n/a	n/a	ShowResult	Gain
68.271	5.129	0.02	147.125	5.0	1	6.9	-0.36	12.8438	955.0	2.0	Outcome2	-0.72	6.9	2.5825	Yes	n/a	7.616081540203849	n/a	n/a	n/a	ISITrial	Gain
73.42	2.582	0.02	152.274	5.0	1	6.9	-0.36	12.8438	955.0	2.0	Outcome2	-0.72	6.9	2.5825	Yes	n/a	7.616081540203849	n/a	n/a	n/a	TrialHappPreview	Gain
76.028	4.028	0.026	154.882	5.0	1	6.9	-0.36	12.8438	955.0	2.0	Outcome2	-0.72	6.9	2.5825	Yes	2{-2}4{-4}	7.616081540203849	3.283	79.311	640.0	TrialHappiness	Gain
76.028	2.431	n/a	155.734	5.0	1	6.9	-0.36	12.8438	955.0	2.0	Outcome2	-0.72	6.9	2.5825	Yes	n/a	7.616081540203849	n/a	n/a	640.0	TrialHappinessSliderResponse	Gain
80.056	2.33	4.028	158.91	5.0	1	6.9	-0.36	12.8438	955.0	2.0	Outcome2	-0.72	6.9	2.5825	Yes	n/a	7.616081540203849	n/a	n/a	n/a	ISIRate	Gain
82.413	3.0	0.027	161.267	6.0	1	10.1	1.41	14.1063	955.0	4.2	Outcome2	2.82	10.1	0.0	No	2.0	7.275198187995469	2.102	84.515	n/a	GetAnswer	Gain
84.536	4.0	0.021	163.39	6.0	1	10.1	1.41	14.1063	955.0	4.2	Outcome2	2.82	10.1	0.0	No	n/a	7.275198187995469	n/a	n/a	n/a	ShowChoice	Gain
88.565	1.0	0.029	167.419	6.0	1	10.1	1.41	14.1063	955.0	4.2	Outcome2	2.82	10.1	0.0	No	n/a	7.275198187995469	n/a	n/a	n/a	ShowResult	Gain
89.585	6.232	0.02	168.439	6.0	1	10.1	1.41	14.1063	955.0	4.2	Outcome2	2.82	10.1	0.0	No	n/a	7.275198187995469	n/a	n/a	n/a	ISITrial	Gain
95.837	3.0	0.02	174.691	7.0	1	-1.3	-5.0	13.9438	955.0	0.3	Outcome2	-8.93	-1.3	0.0	No	2.0	7.63193657984145	1.951	97.788	n/a	GetAnswer	Mixed
97.809	4.0	0.021	176.663	7.0	1	-1.3	-5.0	13.9438	955.0	0.3	Outcome2	-8.93	-1.3	0.0	No	n/a	7.63193657984145	n/a	n/a	n/a	ShowChoice	Mixed
101.821	1.0	0.012	180.675	7.0	1	-1.3	-5.0	13.9438	955.0	0.3	Outcome2	-8.93	-1.3	0.0	No	n/a	7.63193657984145	n/a	n/a	n/a	ShowResult	Mixed
102.841	2.305	0.02	181.695	7.0	1	-1.3	-5.0	13.9438	955.0	0.3	Outcome2	-8.93	-1.3	0.0	No	n/a	7.63193657984145	n/a	n/a	n/a	ISITrial	Mixed
105.165	3.0	0.019	184.019	8.0	1	1.3	-2.0	14.1063	955.0	0.66	Outcome1	1.3	-6.69	3.1125	Yes	2.0	7.988674971687431	1.962	107.127	n/a	GetAnswer	Mixed
107.154	4.0	0.027	186.008	8.0	1	1.3	-2.0	14.1063	955.0	0.66	Outcome1	1.3	-6.69	3.1125	Yes	n/a	7.988674971687431	n/a	n/a	n/a	ShowChoice	Mixed
111.183	1.0	0.029	190.037	8.0	1	1.3	-2.0	14.1063	955.0	0.66	Outcome1	1.3	-6.69	3.1125	Yes	n/a	7.988674971687431	n/a	n/a	n/a	ShowResult	Mixed
112.202	3.506	0.019	191.056	8.0	1	1.3	-2.0	14.1063	955.0	0.66	Outcome1	1.3	-6.69	3.1125	Yes	n/a	7.988674971687431	n/a	n/a	n/a	ISITrial	Mixed
115.73	3.112	0.022	194.584	8.0	1	1.3	-2.0	14.1063	955.0	0.66	Outcome1	1.3	-6.69	3.1125	Yes	n/a	7.988674971687431	n/a	n/a	n/a	TrialHappPreview	Mixed
118.872	4.029	0.03	197.726	8.0	1	1.3	-2.0	14.1063	955.0	0.66	Outcome1	1.3	-6.69	3.1125	Yes	2{-2}2{-2}4{-4}4{-4}4{-4}	7.988674971687431	3.735	122.607	772.0	TrialHappiness	Mixed
118.873	3.333	n/a	198.129	8.0	1	1.3	-2.0	14.1063	955.0	0.66	Outcome1	1.3	-6.69	3.1125	Yes	n/a	7.988674971687431	n/a	n/a	772.0	TrialHappinessSliderResponse	Mixed
122.901	4.45	4.029	201.755	8.0	1	1.3	-2.0	14.1063	955.0	0.66	Outcome1	1.3	-6.69	3.1125	Yes	n/a	7.988674971687431	n/a	n/a	n/a	ISIRate	Mixed
127.381	3.0	0.03	206.235	9.0	1	13.9	3.9	15.8438	955.0	3.6	Outcome1	13.9	7.8	0.0	No	2.0	6.1030577576444	1.521	128.902	n/a	GetAnswer	Loss
128.919	4.0	0.017	207.773	9.0	1	13.9	3.9	15.8438	955.0	3.6	Outcome1	13.9	7.8	0.0	No	n/a	6.1030577576444	n/a	n/a	n/a	ShowChoice	Loss
132.948	1.0	0.029	211.802	9.0	1	13.9	3.9	15.8438	955.0	3.6	Outcome1	13.9	7.8	0.0	No	n/a	6.1030577576444	n/a	n/a	n/a	ShowResult	Loss
133.967	2.0	0.019	212.821	9.0	1	13.9	3.9	15.8438	955.0	3.6	Outcome1	13.9	7.8	0.0	No	n/a	6.1030577576444	n/a	n/a	n/a	ISITrial	Loss
135.99	3.0	0.023	214.844	10.0	1	2.7	0.0	16.1813	955.0	0.3	Outcome1	2.7	-3.61	4.0	Yes	2.0	6.310305775764441	1.413	137.403	n/a	GetAnswer	Mixed
137.428	4.0	0.025	216.282	10.0	1	2.7	0.0	16.1813	955.0	0.3	Outcome1	2.7	-3.61	4.0	Yes	n/a	6.310305775764441	n/a	n/a	n/a	ShowChoice	Mixed
141.457	1.0	0.029	220.311	10.0	1	2.7	0.0	16.1813	955.0	0.3	Outcome1	2.7	-3.61	4.0	Yes	n/a	6.310305775764441	n/a	n/a	n/a	ShowResult	Mixed
142.476	2.0	0.019	221.33	10.0	1	2.7	0.0	16.1813	955.0	0.3	Outcome1	2.7	-3.61	4.0	Yes	n/a	6.310305775764441	n/a	n/a	n/a	ISITrial	Mixed
144.499	4.0	0.023	223.353	10.0	1	2.7	0.0	16.1813	955.0	0.3	Outcome1	2.7	-3.61	4.0	Yes	n/a	6.310305775764441	n/a	n/a	n/a	TrialHappPreview	Mixed
148.528	4.028	0.029	227.382	10.0	1	2.7	0.0	16.1813	955.0	0.3	Outcome1	2.7	-3.61	4.0	Yes	n/a	6.310305775764441	n/a	n/a	748.0	TrialHappiness	Mixed
148.528	2.313	n/a	227.801	10.0	1	2.7	0.0	16.1813	955.0	0.3	Outcome1	2.7	-3.61	4.0	Yes	n/a	6.310305775764441	n/a	n/a	748.0	TrialHappinessSliderResponse	Mixed
152.556	8.0	4.028	231.41	10.0	1	2.7	0.0	16.1813	955.0	0.3	Outcome1	2.7	-3.61	4.0	Yes	n/a	6.310305775764441	n/a	n/a	n/a	ISIRate	Mixed
160.58	3.0	0.024	239.434	11.0	1	12.5	2.78	17.7438	955.0	1.68	Outcome2	5.57	12.5	0.0	No	2.0	6.92525481313703	1.343	161.923	n/a	GetAnswer	Loss
161.951	4.0	0.028	240.805	11.0	1	12.5	2.78	17.7438	955.0	1.68	Outcome2	5.57	12.5	0.0	No	n/a	6.92525481313703	n/a	n/a	n/a	ShowChoice	Loss
165.963	1.0	0.012	244.817	11.0	1	12.5	2.78	17.7438	955.0	1.68	Outcome2	5.57	12.5	0.0	No	n/a	6.92525481313703	n/a	n/a	n/a	ShowResult	Loss
166.983	3.324	0.02	245.837	11.0	1	12.5	2.78	17.7438	955.0	1.68	Outcome2	5.57	12.5	0.0	No	n/a	6.92525481313703	n/a	n/a	n/a	ISITrial	Loss
170.326	3.0	0.019	249.18	12.0	1	3.76	1.88	18.2138	955.0	2.0	Outcome2	4.9	3.76	2.61875	Yes	2.0	-1.14363910909777	1.554	171.88	n/a	GetAnswer	Gain
171.898	4.0	0.018	250.752	12.0	1	3.76	1.88	18.2138	955.0	2.0	Outcome2	4.9	3.76	2.61875	Yes	n/a	-1.14363910909777	n/a	n/a	n/a	ShowChoice	Gain
175.926	1.0	0.028	254.78	12.0	1	3.76	1.88	18.2138	955.0	2.0	Outcome2	4.9	3.76	2.61875	Yes	n/a	-1.14363910909777	n/a	n/a	n/a	ShowResult	Gain
176.946	6.642	0.02	255.8	12.0	1	3.76	1.88	18.2138	955.0	2.0	Outcome2	4.9	3.76	2.61875	Yes	n/a	-1.14363910909777	n/a	n/a	n/a	ISITrial	Gain
183.616	2.619	0.028	262.47	12.0	1	3.76	1.88	18.2138	955.0	2.0	Outcome2	4.9	3.76	2.61875	Yes	n/a	-1.14363910909777	n/a	n/a	n/a	TrialHappPreview	Gain
186.257	4.029	0.022	265.111	12.0	1	3.76	1.88	18.2138	955.0	2.0	Outcome2	4.9	3.76	2.61875	Yes	n/a	-1.14363910909777	n/a	n/a	760.0	TrialHappiness	Gain
186.258	2.858	n/a	265.538	12.0	1	3.76	1.88	18.2138	955.0	2.0	Outcome2	4.9	3.76	2.61875	Yes	n/a	-1.14363910909777	n/a	n/a	760.0	TrialHappinessSliderResponse	Gain
190.286	2.475	4.029	269.14	12.0	1	3.76	1.88	18.2138	955.0	2.0	Outcome2	4.9	3.76	2.61875	Yes	n/a	-1.14363910909777	n/a	n/a	n/a	ISIRate	Gain
192.793	3.0	0.032	271.647	13.0	1	13.1	2.96	19.8513	955.0	2.22	Outcome1	13.1	5.91	0.0	No	2.0	7.19026047565119	1.177	193.97	n/a	GetAnswer	Loss
193.997	4.0	0.027	272.851	13.0	1	13.1	2.96	19.8513	955.0	2.22	Outcome1	13.1	5.91	0.0	No	n/a	7.19026047565119	n/a	n/a	n/a	ShowChoice	Loss
198.009	1.0	0.012	276.863	13.0	1	13.1	2.96	19.8513	955.0	2.22	Outcome1	13.1	5.91	0.0	No	n/a	7.19026047565119	n/a	n/a	n/a	ShowResult	Loss
199.029	3.48	0.02	277.883	13.0	1	13.1	2.96	19.8513	955.0	2.22	Outcome1	13.1	5.91	0.0	No	n/a	7.19026047565119	n/a	n/a	n/a	ISITrial	Loss
202.539	3.0	0.03	281.393	14.0	1	2.0	2.0	20.1013	955.0	3.6	Certain	-1.51	5.9	0.0	No	4.0	7.411098527746319	1.597	204.136	n/a	GetAnswer	Gain
204.161	4.0	0.025	283.015	14.0	1	2.0	2.0	20.1013	955.0	3.6	Certain	-1.51	5.9	0.0	No	n/a	7.411098527746319	n/a	n/a	n/a	ShowChoice	Gain
208.189	1.0	0.028	287.043	14.0	1	2.0	2.0	20.1013	955.0	3.6	Certain	-1.51	5.9	0.0	No	n/a	7.411098527746319	n/a	n/a	n/a	ShowResult	Gain
209.209	5.019	0.02	288.063	14.0	1	2.0	2.0	20.1013	955.0	3.6	Certain	-1.51	5.9	0.0	No	n/a	7.411098527746319	n/a	n/a	n/a	ISITrial	Gain
214.258	3.0	0.03	293.112	15.0	1	9.7	1.03	21.3138	955.0	3.16	Outcome2	2.07	9.7	3.3485	Yes	2.0	7.63193657984145	1.363	215.621	n/a	GetAnswer	Gain
215.645	4.0	0.024	294.499	15.0	1	9.7	1.03	21.3138	955.0	3.16	Outcome2	2.07	9.7	3.3485	Yes	n/a	7.63193657984145	n/a	n/a	n/a	ShowChoice	Gain
219.657	1.0	0.012	298.511	15.0	1	9.7	1.03	21.3138	955.0	3.16	Outcome2	2.07	9.7	3.3485	Yes	n/a	7.63193657984145	n/a	n/a	n/a	ShowResult	Gain
220.677	7.614	0.02	299.531	15.0	1	9.7	1.03	21.3138	955.0	3.16	Outcome2	2.07	9.7	3.3485	Yes	n/a	7.63193657984145	n/a	n/a	n/a	ISITrial	Gain
228.316	3.348	0.025	307.17	15.0	1	9.7	1.03	21.3138	955.0	3.16	Outcome2	2.07	9.7	3.3485	Yes	n/a	7.63193657984145	n/a	n/a	n/a	TrialHappPreview	Gain
231.693	4.012	0.029	310.547	15.0	1	9.7	1.03	21.3138	955.0	3.16	Outcome2	2.07	9.7	3.3485	Yes	n/a	7.63193657984145	n/a	n/a	792.0	TrialHappiness	Gain
231.694	2.114	n/a	310.882	15.0	1	9.7	1.03	21.3138	955.0	3.16	Outcome2	2.07	9.7	3.3485	Yes	n/a	7.63193657984145	n/a	n/a	792.0	TrialHappinessSliderResponse	Gain
235.705	5.394	4.012	314.559	15.0	1	9.7	1.03	21.3138	955.0	3.16	Outcome2	2.07	9.7	3.3485	Yes	n/a	7.63193657984145	n/a	n/a	n/a	ISIRate	Gain
241.121	3.0	0.022	319.975	16.0	1	-4.0	-4.0	20.8138	955.0	1.0	Certain	-0.3	-7.61	0.0	No	4.0	7.3091732729331795	2.005	243.126	n/a	GetAnswer	Mixed
243.144	4.0	0.018	321.998	16.0	1	-4.0	-4.0	20.8138	955.0	1.0	Certain	-0.3	-7.61	0.0	No	n/a	7.3091732729331795	n/a	n/a	n/a	ShowChoice	Mixed
247.156	1.0	0.012	326.01	16.0	1	-4.0	-4.0	20.8138	955.0	1.0	Certain	-0.3	-7.61	0.0	No	n/a	7.3091732729331795	n/a	n/a	n/a	ShowResult	Mixed
248.176	3.008	0.02	327.03	16.0	1	-4.0	-4.0	20.8138	955.0	1.0	Certain	-0.3	-7.61	0.0	No	n/a	7.3091732729331795	n/a	n/a	n/a	ISITrial	Mixed
251.201	3.0	0.017	330.055	17.0	1	2.3	-1.0	21.1013	955.0	2.0	Outcome2	-5.19	2.3	3.0415	Yes	2.0	7.49377123442809	1.926	253.127	n/a	GetAnswer	Mixed
253.14	4.0	0.012	331.994	17.0	1	2.3	-1.0	21.1013	955.0	2.0	Outcome2	-5.19	2.3	3.0415	Yes	n/a	7.49377123442809	n/a	n/a	n/a	ShowChoice	Mixed
257.152	1.0	0.012	336.006	17.0	1	2.3	-1.0	21.1013	955.0	2.0	Outcome2	-5.19	2.3	3.0415	Yes	n/a	7.49377123442809	n/a	n/a	n/a	ShowResult	Mixed
258.172	3.566	0.02	337.026	17.0	1	2.3	-1.0	21.1013	955.0	2.0	Outcome2	-5.19	2.3	3.0415	Yes	n/a	7.49377123442809	n/a	n/a	n/a	ISITrial	Mixed
261.75	3.042	0.012	340.604	17.0	1	2.3	-1.0	21.1013	955.0	2.0	Outcome2	-5.19	2.3	3.0415	Yes	n/a	7.49377123442809	n/a	n/a	n/a	TrialHappPreview	Mixed
264.809	4.012	0.017	343.663	17.0	1	2.3	-1.0	21.1013	955.0	2.0	Outcome2	-5.19	2.3	3.0415	Yes	n/a	7.49377123442809	n/a	n/a	744.0	TrialHappiness	Mixed
264.809	2.254	n/a	344.17	17.0	1	2.3	-1.0	21.1013	955.0	2.0	Outcome2	-5.19	2.3	3.0415	Yes	n/a	7.49377123442809	n/a	n/a	744.0	TrialHappinessSliderResponse	Mixed
268.821	4.166	4.012	347.675	17.0	1	2.3	-1.0	21.1013	955.0	2.0	Outcome2	-5.19	2.3	3.0415	Yes	n/a	7.49377123442809	n/a	n/a	n/a	ISIRate	Mixed
273.017	3.0	0.03	351.871	18.0	1	12.43	6.22	22.6551	955.0	3.16	Outcome1	12.43	13.7	0.0	No	2.0	-1.26538316345791	1.367	274.384	n/a	GetAnswer	Loss
274.404	4.0	0.02	353.258	18.0	1	12.43	6.22	22.6551	955.0	3.16	Outcome1	12.43	13.7	0.0	No	n/a	-1.26538316345791	n/a	n/a	n/a	ShowChoice	Loss
278.416	1.0	0.012	357.27	18.0	1	12.43	6.22	22.6551	955.0	3.16	Outcome1	12.43	13.7	0.0	No	n/a	-1.26538316345791	n/a	n/a	n/a	ShowResult	Loss
279.436	6.787	0.02	358.29	18.0	1	12.43	6.22	22.6551	955.0	3.16	Outcome1	12.43	13.7	0.0	No	n/a	-1.26538316345791	n/a	n/a	n/a	ISITrial	Loss
286.239	3.0	0.016	365.093	19.0	1	6.41	3.2	23.4563	955.0	3.16	Outcome2	7.7	6.41	0.0	No	2.0	-1.2852963382408502	1.125	287.364	n/a	GetAnswer	Gain
287.376	4.0	0.012	366.23	19.0	1	6.41	3.2	23.4563	955.0	3.16	Outcome2	7.7	6.41	0.0	No	n/a	-1.2852963382408502	n/a	n/a	n/a	ShowChoice	Gain
291.388	1.0	0.012	370.242	19.0	1	6.41	3.2	23.4563	955.0	3.16	Outcome2	7.7	6.41	0.0	No	n/a	-1.2852963382408502	n/a	n/a	n/a	ShowResult	Gain
292.408	2.0	0.02	371.262	19.0	1	6.41	3.2	23.4563	955.0	3.16	Outcome2	7.7	6.41	0.0	No	n/a	-1.2852963382408502	n/a	n/a	n/a	ISITrial	Gain
294.431	3.0	0.023	373.285	20.0	1	9.1	0.06	24.5938	955.0	2.22	Outcome2	0.13	9.1	2.92125	Yes	2.0	8.97168742921857	1.602	296.033	n/a	GetAnswer	Gain
296.052	4.0	0.018	374.906	20.0	1	9.1	0.06	24.5938	955.0	2.22	Outcome2	0.13	9.1	2.92125	Yes	n/a	8.97168742921857	n/a	n/a	n/a	ShowChoice	Gain
300.064	1.0	0.012	378.918	20.0	1	9.1	0.06	24.5938	955.0	2.22	Outcome2	0.13	9.1	2.92125	Yes	n/a	8.97168742921857	n/a	n/a	n/a	ShowResult	Gain
301.084	8.0	0.02	379.938	20.0	1	9.1	0.06	24.5938	955.0	2.22	Outcome2	0.13	9.1	2.92125	Yes	n/a	8.97168742921857	n/a	n/a	n/a	ISITrial	Gain
309.108	2.921	0.024	387.962	20.0	1	9.1	0.06	24.5938	955.0	2.22	Outcome2	0.13	9.1	2.92125	Yes	n/a	8.97168742921857	n/a	n/a	n/a	TrialHappPreview	Gain
312.05	4.012	0.021	390.904	20.0	1	9.1	0.06	24.5938	955.0	2.22	Outcome2	0.13	9.1	2.92125	Yes	n/a	8.97168742921857	n/a	n/a	776.0	TrialHappiness	Gain
312.051	3.631	n/a	391.258	20.0	1	9.1	0.06	24.5938	955.0	2.22	Outcome2	0.13	9.1	2.92125	Yes	n/a	8.97168742921857	n/a	n/a	776.0	TrialHappinessSliderResponse	Gain
316.062	3.685	4.012	394.916	20.0	1	9.1	0.06	24.5938	955.0	2.22	Outcome2	0.13	9.1	2.92125	Yes	n/a	8.97168742921857	n/a	n/a	n/a	ISIRate	Gain
319.773	3.0	0.026	398.627	21.0	1	0.0	0.0	24.5938	955.0	1.5	Certain	-4.57	4.1	0.0	No	4.0	8.66704416761042	2.001	321.774	n/a	GetAnswer	Mixed
321.796	4.0	0.022	400.65	21.0	1	0.0	0.0	24.5938	955.0	1.5	Certain	-4.57	4.1	0.0	No	n/a	8.66704416761042	n/a	n/a	n/a	ShowChoice	Mixed
325.808	1.0	0.012	404.662	21.0	1	0.0	0.0	24.5938	955.0	1.5	Certain	-4.57	4.1	0.0	No	n/a	8.66704416761042	n/a	n/a	n/a	ShowResult	Mixed
326.827	3.555	0.019	405.681	21.0	1	0.0	0.0	24.5938	955.0	1.5	Certain	-4.57	4.1	0.0	No	n/a	8.66704416761042	n/a	n/a	n/a	ISITrial	Mixed
330.405	3.0	0.023	409.259	22.0	1	2.0	2.0	24.8438	955.0	1.82	Certain	-2.17	6.7	3.2195	Yes	4.0	8.86976217440544	1.65	332.055	n/a	GetAnswer	Gain
332.076	4.0	0.021	410.93	22.0	1	2.0	2.0	24.8438	955.0	1.82	Certain	-2.17	6.7	3.2195	Yes	n/a	8.86976217440544	n/a	n/a	n/a	ShowChoice	Gain
336.088	1.0	0.012	414.942	22.0	1	2.0	2.0	24.8438	955.0	1.82	Certain	-2.17	6.7	3.2195	Yes	n/a	8.86976217440544	n/a	n/a	n/a	ShowResult	Gain
337.108	6.793	0.02	415.962	22.0	1	2.0	2.0	24.8438	955.0	1.82	Certain	-2.17	6.7	3.2195	Yes	n/a	8.86976217440544	n/a	n/a	n/a	ISITrial	Gain
343.912	3.22	0.011	422.766	22.0	1	2.0	2.0	24.8438	955.0	1.82	Certain	-2.17	6.7	3.2195	Yes	n/a	8.86976217440544	n/a	n/a	n/a	TrialHappPreview	Gain
347.155	4.012	0.023	426.009	22.0	1	2.0	2.0	24.8438	955.0	1.82	Certain	-2.17	6.7	3.2195	Yes	2{-2}	8.86976217440544	1.01	348.165	776.0	TrialHappiness	Gain
347.155	0.687	n/a	426.332	22.0	1	2.0	2.0	24.8438	955.0	1.82	Certain	-2.17	6.7	3.2195	Yes	n/a	8.86976217440544	n/a	n/a	776.0	TrialHappinessSliderResponse	Gain
351.167	4.878	4.012	430.021	22.0	1	2.0	2.0	24.8438	955.0	1.82	Certain	-2.17	6.7	3.2195	Yes	n/a	8.86976217440544	n/a	n/a	n/a	ISIRate	Gain
356.065	3.0	0.02	434.919	23.0	1	9.9	0.42	26.0813	955.0	3.6	Outcome2	0.83	9.9	0.0	No	2.0	9.072480181200447	1.378	357.443	n/a	GetAnswer	Gain
357.469	4.0	0.026	436.323	23.0	1	9.9	0.42	26.0813	955.0	3.6	Outcome2	0.83	9.9	0.0	No	n/a	9.072480181200447	n/a	n/a	n/a	ShowChoice	Gain
361.481	1.0	0.012	440.335	23.0	1	9.9	0.42	26.0813	955.0	3.6	Outcome2	0.83	9.9	0.0	No	n/a	9.072480181200447	n/a	n/a	n/a	ShowResult	Gain
362.501	8.0	0.02	441.355	23.0	1	9.9	0.42	26.0813	955.0	3.6	Outcome2	0.83	9.9	0.0	No	n/a	9.072480181200447	n/a	n/a	n/a	ISITrial	Gain
370.525	3.0	0.024	449.379	24.0	1	1.9	-2.0	26.3188	955.0	1.2	Outcome2	-7.38	1.9	3.255	Yes	2.0	9.275198187995471	1.768	372.293	n/a	GetAnswer	Mixed
372.313	4.0	0.02	451.167	24.0	1	1.9	-2.0	26.3188	955.0	1.2	Outcome2	-7.38	1.9	3.255	Yes	n/a	9.275198187995471	n/a	n/a	n/a	ShowChoice	Mixed
376.325	1.0	0.012	455.179	24.0	1	1.9	-2.0	26.3188	955.0	1.2	Outcome2	-7.38	1.9	3.255	Yes	n/a	9.275198187995471	n/a	n/a	n/a	ShowResult	Mixed
377.345	2.0	0.02	456.199	24.0	1	1.9	-2.0	26.3188	955.0	1.2	Outcome2	-7.38	1.9	3.255	Yes	n/a	9.275198187995471	n/a	n/a	n/a	ISITrial	Mixed
379.368	3.255	0.023	458.222	24.0	1	1.9	-2.0	26.3188	955.0	1.2	Outcome2	-7.38	1.9	3.255	Yes	n/a	9.275198187995471	n/a	n/a	n/a	TrialHappPreview	Mixed
382.644	4.012	0.021	461.498	24.0	1	1.9	-2.0	26.3188	955.0	1.2	Outcome2	-7.38	1.9	3.255	Yes	n/a	9.275198187995471	n/a	n/a	720.0	TrialHappiness	Mixed
382.645	2.118	n/a	461.923	24.0	1	1.9	-2.0	26.3188	955.0	1.2	Outcome2	-7.38	1.9	3.255	Yes	n/a	9.275198187995471	n/a	n/a	720.0	TrialHappinessSliderResponse	Mixed
386.656	5.02	4.012	465.51	24.0	1	1.9	-2.0	26.3188	955.0	1.2	Outcome2	-7.38	1.9	3.255	Yes	n/a	9.275198187995471	n/a	n/a	n/a	ISIRate	Mixed
391.705	3.0	0.029	470.559	25.0	1	5.61	2.8	27.02	955.0	2.22	Outcome2	7.1	5.61	0.0	No	2.0	-1.4900906002265	1.712	393.417	n/a	GetAnswer	Gain
393.443	4.0	0.026	472.297	25.0	1	5.61	2.8	27.02	955.0	2.22	Outcome2	7.1	5.61	0.0	No	n/a	-1.4900906002265	n/a	n/a	n/a	ShowChoice	Gain
397.455	1.0	0.012	476.309	25.0	1	5.61	2.8	27.02	955.0	2.22	Outcome2	7.1	5.61	0.0	No	n/a	-1.4900906002265	n/a	n/a	n/a	ShowResult	Gain
398.475	3.749	0.02	477.329	25.0	1	5.61	2.8	27.02	955.0	2.22	Outcome2	7.1	5.61	0.0	No	n/a	-1.4900906002265	n/a	n/a	n/a	ISITrial	Gain
402.253	3.0	0.029	481.107	26.0	1	1.7	-3.0	27.2325	955.0	1.0	Outcome1	1.7	-9.0	0.0	No	2.0	10.6953567383918	1.299	403.552	n/a	GetAnswer	Mixed
403.574	4.0	0.022	482.428	26.0	1	1.7	-3.0	27.2325	955.0	1.0	Outcome1	1.7	-9.0	0.0	No	n/a	10.6953567383918	n/a	n/a	n/a	ShowChoice	Mixed
407.586	1.0	0.012	486.44	26.0	1	1.7	-3.0	27.2325	955.0	1.0	Outcome1	1.7	-9.0	0.0	No	n/a	10.6953567383918	n/a	n/a	n/a	ShowResult	Mixed
408.605	7.834	0.019	487.459	26.0	1	1.7	-3.0	27.2325	955.0	1.0	Outcome1	1.7	-9.0	0.0	No	n/a	10.6953567383918	n/a	n/a	n/a	ISITrial	Mixed
416.462	3.0	0.023	495.316	27.0	1	11.9	0.47	28.72	955.0	3.6	Outcome1	11.9	0.94	2.54975	Yes	2.0	10.961494903737302	1.468	417.93	n/a	GetAnswer	Loss
417.95	4.0	0.02	496.804	27.0	1	11.9	0.47	28.72	955.0	3.6	Outcome1	11.9	0.94	2.54975	Yes	n/a	10.961494903737302	n/a	n/a	n/a	ShowChoice	Loss
421.962	1.0	0.012	500.816	27.0	1	11.9	0.47	28.72	955.0	3.6	Outcome1	11.9	0.94	2.54975	Yes	n/a	10.961494903737302	n/a	n/a	n/a	ShowResult	Loss
422.982	4.225	0.02	501.836	27.0	1	11.9	0.47	28.72	955.0	3.6	Outcome1	11.9	0.94	2.54975	Yes	n/a	10.961494903737302	n/a	n/a	n/a	ISITrial	Loss
427.228	2.55	0.021	506.082	27.0	1	11.9	0.47	28.72	955.0	3.6	Outcome1	11.9	0.94	2.54975	Yes	n/a	10.961494903737302	n/a	n/a	n/a	TrialHappPreview	Loss
429.802	4.012	0.024	508.656	27.0	1	11.9	0.47	28.72	955.0	3.6	Outcome1	11.9	0.94	2.54975	Yes	n/a	10.961494903737302	n/a	n/a	724.0	TrialHappiness	Loss
429.803	3.157	n/a	509.298	27.0	1	11.9	0.47	28.72	955.0	3.6	Outcome1	11.9	0.94	2.54975	Yes	n/a	10.961494903737302	n/a	n/a	724.0	TrialHappinessSliderResponse	Loss
433.814	2.199	4.012	512.668	27.0	1	11.9	0.47	28.72	955.0	3.6	Outcome1	11.9	0.94	2.54975	Yes	n/a	10.961494903737302	n/a	n/a	n/a	ISIRate	Loss
505.312	2.381	n/a	584.617	n/a	1	n/a	n/a	n/a	n/a	n/a	n/a	n/a	n/a	n/a	n/a	n/a	n/a	n/a	n/a	664.0	BlockStartHappinessSliderResponse	n/a
-79.471	-0.001	0.024	514.891	n/a	2	n/a	n/a	n/a	n/a	n/a	n/a	n/a	n/a	n/a	n/a	{SPACE}	n/a	65.239	-14.232	n/a	Rest	n/a
-14.209	4.0	0.023	580.153	n/a	2	n/a	n/a	n/a	n/a	n/a	n/a	n/a	n/a	n/a	n/a	n/a	n/a	n/a	n/a	n/a	BlockHappyPreview	n/a
-10.197	2.832	0.012	584.165	n/a	2	n/a	n/a	n/a	n/a	n/a	n/a	n/a	n/a	n/a	n/a	n/a	n/a	n/a	n/a	664.0	BlockStartHappiness	n/a
-4.129	-0.001	0.023	590.233	n/a	2	n/a	n/a	n/a	n/a	n/a	n/a	n/a	n/a	n/a	n/a	5.0	n/a	4.106	-0.023	n/a	ScanWait	n/a
0.0	10.0	0.023	594.362	n/a	2	n/a	n/a	n/a	n/a	n/a	n/a	n/a	n/a	n/a	n/a	n/a	n/a	n/a	n/a	n/a	GetReady	n/a
10.013	3.0	0.013	604.375	28.0	2	-6.6	-1.0	27.895	70.0	0.82	Outcome1	-6.6	3.5	0.0	No	2.0	-10.1020408163265	1.495	11.508	n/a	GetAnswer	Mixed
11.535	4.0	0.027	605.897	28.0	2	-6.6	-1.0	27.895	70.0	0.82	Outcome1	-6.6	3.5	0.0	No	n/a	-10.1020408163265	n/a	n/a	n/a	ShowChoice	Mixed
15.547	1.0	0.012	609.909	28.0	2	-6.6	-1.0	27.895	70.0	0.82	Outcome1	-6.6	3.5	0.0	No	n/a	-10.1020408163265	n/a	n/a	n/a	ShowResult	Mixed
16.566	3.575	0.019	610.928	28.0	2	-6.6	-1.0	27.895	70.0	0.82	Outcome1	-6.6	3.5	0.0	No	n/a	-10.1020408163265	n/a	n/a	n/a	ISITrial	Mixed
20.16	3.0	0.019	614.522	29.0	2	-5.0	-5.0	27.27	70.0	0.2	Certain	0.5	-10.28	3.529	Yes	4.0	-10.7755102040816	1.703	21.863	n/a	GetAnswer	Mixed
21.882	4.0	0.019	616.244	29.0	2	-5.0	-5.0	27.27	70.0	0.2	Certain	0.5	-10.28	3.529	Yes	n/a	-10.7755102040816	n/a	n/a	n/a	ShowChoice	Mixed
25.894	1.0	0.012	620.256	29.0	2	-5.0	-5.0	27.27	70.0	0.2	Certain	0.5	-10.28	3.529	Yes	n/a	-10.7755102040816	n/a	n/a	n/a	ShowResult	Mixed
26.914	3.955	0.02	621.276	29.0	2	-5.0	-5.0	27.27	70.0	0.2	Certain	0.5	-10.28	3.529	Yes	n/a	-10.7755102040816	n/a	n/a	n/a	ISITrial	Mixed
30.893	3.529	0.024	625.255	29.0	2	-5.0	-5.0	27.27	70.0	0.2	Certain	0.5	-10.28	3.529	Yes	n/a	-10.7755102040816	n/a	n/a	n/a	TrialHappPreview	Mixed
34.437	4.012	0.015	628.799	29.0	2	-5.0	-5.0	27.27	70.0	0.2	Certain	0.5	-10.28	3.529	Yes	n/a	-10.7755102040816	n/a	n/a	548.0	TrialHappiness	Mixed
34.437	1.09	n/a	629.17	29.0	2	-5.0	-5.0	27.27	70.0	0.2	Certain	0.5	-10.28	3.529	Yes	n/a	-10.7755102040816	n/a	n/a	548.0	TrialHappinessSliderResponse	Mixed
38.449	6.116	4.012	632.811	29.0	2	-5.0	-5.0	27.27	70.0	0.2	Certain	0.5	-10.28	3.529	Yes	n/a	-10.7755102040816	n/a	n/a	n/a	ISIRate	Mixed
44.584	3.0	0.019	638.946	30.0	2	0.02	-1.0	27.2725	70.0	1.5	Outcome2	-2.03	0.02	0.0	No	2.0	2.0542328042328	2.208	46.792	n/a	GetAnswer	Mixed
46.807	4.0	0.015	641.169	30.0	2	0.02	-1.0	27.2725	70.0	1.5	Outcome2	-2.03	0.02	0.0	No	n/a	2.0542328042328	n/a	n/a	n/a	ShowChoice	Mixed
50.819	1.0	0.012	645.181	30.0	2	0.02	-1.0	27.2725	70.0	1.5	Outcome2	-2.03	0.02	0.0	No	n/a	2.0542328042328	n/a	n/a	n/a	ShowResult	Mixed
51.839	4.453	0.02	646.201	30.0	2	0.02	-1.0	27.2725	70.0	1.5	Outcome2	-2.03	0.02	0.0	No	n/a	2.0542328042328	n/a	n/a	n/a	ISITrial	Mixed
56.319	3.0	0.027	650.681	31.0	2	2.68	1.34	27.6075	70.0	1.82	Outcome2	12.7	2.68	2.50325	Yes	2.0	-10.0181405895692	1.097	57.416	n/a	GetAnswer	Loss
57.439	4.0	0.023	651.801	31.0	2	2.68	1.34	27.6075	70.0	1.82	Outcome2	12.7	2.68	2.50325	Yes	n/a	-10.0181405895692	n/a	n/a	n/a	ShowChoice	Loss
61.451	1.0	0.012	655.813	31.0	2	2.68	1.34	27.6075	70.0	1.82	Outcome2	12.7	2.68	2.50325	Yes	n/a	-10.0181405895692	n/a	n/a	n/a	ShowResult	Loss
62.47	4.786	0.019	656.832	31.0	2	2.68	1.34	27.6075	70.0	1.82	Outcome2	12.7	2.68	2.50325	Yes	n/a	-10.0181405895692	n/a	n/a	n/a	ISITrial	Loss
67.268	2.503	0.012	661.63	31.0	2	2.68	1.34	27.6075	70.0	1.82	Outcome2	12.7	2.68	2.50325	Yes	n/a	-10.0181405895692	n/a	n/a	n/a	TrialHappPreview	Loss
69.792	4.012	0.021	664.154	31.0	2	2.68	1.34	27.6075	70.0	1.82	Outcome2	12.7	2.68	2.50325	Yes	n/a	-10.0181405895692	n/a	n/a	616.0	TrialHappiness	Loss
69.793	0.874	n/a	664.609	31.0	2	2.68	1.34	27.6075	70.0	1.82	Outcome2	12.7	2.68	2.50325	Yes	n/a	-10.0181405895692	n/a	n/a	616.0	TrialHappinessSliderResponse	Loss
73.804	2.013	4.012	668.166	31.0	2	2.68	1.34	27.6075	70.0	1.82	Outcome2	12.7	2.68	2.50325	Yes	n/a	-10.0181405895692	n/a	n/a	n/a	ISIRate	Loss
75.844	3.0	0.027	670.206	32.0	2	-3.02	-1.51	27.23	70.0	1.82	Outcome1	-3.02	8.7	0.0	No	2.0	-11.7165532879819	1.549	77.393	n/a	GetAnswer	Gain
77.415	4.0	0.022	671.777	32.0	2	-3.02	-1.51	27.23	70.0	1.82	Outcome1	-3.02	8.7	0.0	No	n/a	-11.7165532879819	n/a	n/a	n/a	ShowChoice	Gain
81.427	1.0	0.012	675.789	32.0	2	-3.02	-1.51	27.23	70.0	1.82	Outcome1	-3.02	8.7	0.0	No	n/a	-11.7165532879819	n/a	n/a	n/a	ShowResult	Gain
82.447	2.0	0.02	676.809	32.0	2	-3.02	-1.51	27.23	70.0	1.82	Outcome1	-3.02	8.7	0.0	No	n/a	-11.7165532879819	n/a	n/a	n/a	ISITrial	Gain
84.469	3.0	0.022	678.831	33.0	2	-2.84	-1.42	26.875	70.0	2.8	Outcome1	-2.84	9.5	0.0	No	2.0	-12.3356009070295	1.906	86.375	n/a	GetAnswer	Gain
86.392	4.0	0.017	680.754	33.0	2	-2.84	-1.42	26.875	70.0	2.8	Outcome1	-2.84	9.5	0.0	No	n/a	-12.3356009070295	n/a	n/a	n/a	ShowChoice	Gain
90.404	1.0	0.012	684.766	33.0	2	-2.84	-1.42	26.875	70.0	2.8	Outcome1	-2.84	9.5	0.0	No	n/a	-12.3356009070295	n/a	n/a	n/a	ShowResult	Gain
91.424	5.099	0.02	685.786	33.0	2	-2.84	-1.42	26.875	70.0	2.8	Outcome1	-2.84	9.5	0.0	No	n/a	-12.3356009070295	n/a	n/a	n/a	ISITrial	Gain
96.539	3.0	0.016	690.901	34.0	2	0.0	0.0	26.875	70.0	2.0	Certain	1.08	-1.44	3.2315	Yes	4.0	2.5239984882842	2.175	98.714	n/a	GetAnswer	Mixed
98.729	4.0	0.015	693.091	34.0	2	0.0	0.0	26.875	70.0	2.0	Certain	1.08	-1.44	3.2315	Yes	n/a	2.5239984882842	n/a	n/a	n/a	ShowChoice	Mixed
102.741	1.0	0.012	697.103	34.0	2	0.0	0.0	26.875	70.0	2.0	Certain	1.08	-1.44	3.2315	Yes	n/a	2.5239984882842	n/a	n/a	n/a	ShowResult	Mixed
103.76	4.784	0.019	698.122	34.0	2	0.0	0.0	26.875	70.0	2.0	Certain	1.08	-1.44	3.2315	Yes	n/a	2.5239984882842	n/a	n/a	n/a	ISITrial	Mixed
108.558	3.232	0.014	702.92	34.0	2	0.0	0.0	26.875	70.0	2.0	Certain	1.08	-1.44	3.2315	Yes	n/a	2.5239984882842	n/a	n/a	n/a	TrialHappPreview	Mixed
111.818	4.012	0.028	706.18	34.0	2	0.0	0.0	26.875	70.0	2.0	Certain	1.08	-1.44	3.2315	Yes	n/a	2.5239984882842	n/a	n/a	588.0	TrialHappiness	Mixed
111.818	1.958	n/a	706.528	34.0	2	0.0	0.0	26.875	70.0	2.0	Certain	1.08	-1.44	3.2315	Yes	n/a	2.5239984882842	n/a	n/a	588.0	TrialHappinessSliderResponse	Mixed
115.83	4.926	4.012	710.192	34.0	2	0.0	0.0	26.875	70.0	2.0	Certain	1.08	-1.44	3.2315	Yes	n/a	2.5239984882842	n/a	n/a	n/a	ISIRate	Mixed
120.778	3.0	0.022	715.14	35.0	2	0.08	-1.0	26.885	70.0	2.0	Outcome1	0.08	-2.38	0.0	No	2.0	2.4618291761148905	1.919	122.697	n/a	GetAnswer	Mixed
122.717	4.0	0.02	717.079	35.0	2	0.08	-1.0	26.885	70.0	2.0	Outcome1	0.08	-2.38	0.0	No	n/a	2.4618291761148905	n/a	n/a	n/a	ShowChoice	Mixed
126.729	1.0	0.012	721.091	35.0	2	0.08	-1.0	26.885	70.0	2.0	Outcome1	0.08	-2.38	0.0	No	n/a	2.4618291761148905	n/a	n/a	n/a	ShowResult	Mixed
127.749	2.098	0.02	722.111	35.0	2	0.08	-1.0	26.885	70.0	2.0	Outcome1	0.08	-2.38	0.0	No	n/a	2.4618291761148905	n/a	n/a	n/a	ISITrial	Mixed
129.872	3.0	0.025	724.234	36.0	2	-2.18	-1.09	26.6125	70.0	2.8	Outcome1	-2.18	11.5	3.33575	Yes	2.0	-13.6848072562358	1.734	131.606	n/a	GetAnswer	Loss
131.627	4.0	0.021	725.989	36.0	2	-2.18	-1.09	26.6125	70.0	2.8	Outcome1	-2.18	11.5	3.33575	Yes	n/a	-13.6848072562358	n/a	n/a	n/a	ShowChoice	Loss
135.639	1.0	0.012	730.001	36.0	2	-2.18	-1.09	26.6125	70.0	2.8	Outcome1	-2.18	11.5	3.33575	Yes	n/a	-13.6848072562358	n/a	n/a	n/a	ShowResult	Loss
136.659	5.156	0.02	731.021	36.0	2	-2.18	-1.09	26.6125	70.0	2.8	Outcome1	-2.18	11.5	3.33575	Yes	n/a	-13.6848072562358	n/a	n/a	n/a	ISITrial	Loss
141.841	3.336	0.026	736.203	36.0	2	-2.18	-1.09	26.6125	70.0	2.8	Outcome1	-2.18	11.5	3.33575	Yes	n/a	-13.6848072562358	n/a	n/a	n/a	TrialHappPreview	Loss
145.201	4.012	0.024	739.563	36.0	2	-2.18	-1.09	26.6125	70.0	2.8	Outcome1	-2.18	11.5	3.33575	Yes	n/a	-13.6848072562358	n/a	n/a	552.0	TrialHappiness	Loss
145.202	2.501	n/a	740.184	36.0	2	-2.18	-1.09	26.6125	70.0	2.8	Outcome1	-2.18	11.5	3.33575	Yes	n/a	-13.6848072562358	n/a	n/a	552.0	TrialHappinessSliderResponse	Loss
149.213	5.343	4.012	743.575	36.0	2	-2.18	-1.09	26.6125	70.0	2.8	Outcome1	-2.18	11.5	3.33575	Yes	n/a	-13.6848072562358	n/a	n/a	n/a	ISIRate	Loss
154.579	3.0	0.023	748.941	37.0	2	1.0	1.0	26.7375	70.0	4.2	Certain	-5.56	8.1	0.0	No	4.0	-13.659863945578198	1.876	156.455	n/a	GetAnswer	Gain
156.468	4.0	0.013	750.83	37.0	2	1.0	1.0	26.7375	70.0	4.2	Certain	-5.56	8.1	0.0	No	n/a	-13.659863945578198	n/a	n/a	n/a	ShowChoice	Gain
160.48	1.0	0.012	754.842	37.0	2	1.0	1.0	26.7375	70.0	4.2	Certain	-5.56	8.1	0.0	No	n/a	-13.659863945578198	n/a	n/a	n/a	ShowResult	Gain
161.5	3.598	0.02	755.862	37.0	2	1.0	1.0	26.7375	70.0	4.2	Certain	-5.56	8.1	0.0	No	n/a	-13.659863945578198	n/a	n/a	n/a	ISITrial	Gain
165.127	3.0	0.029	759.489	38.0	2	-13.31	-6.0	25.0737	70.0	0.4	Outcome2	0.9	-13.31	0.0	No	2.0	-14.2063492063492	1.755	166.882	n/a	GetAnswer	Mixed
166.899	4.0	0.017	761.261	38.0	2	-13.31	-6.0	25.0737	70.0	0.4	Outcome2	0.9	-13.31	0.0	No	n/a	-14.2063492063492	n/a	n/a	n/a	ShowChoice	Mixed
170.911	1.0	0.012	765.273	38.0	2	-13.31	-6.0	25.0737	70.0	0.4	Outcome2	0.9	-13.31	0.0	No	n/a	-14.2063492063492	n/a	n/a	n/a	ShowResult	Mixed
171.931	4.787	0.02	766.293	38.0	2	-13.31	-6.0	25.0737	70.0	0.4	Outcome2	0.9	-13.31	0.0	No	n/a	-14.2063492063492	n/a	n/a	n/a	ISITrial	Mixed
176.745	3.0	0.027	771.107	39.0	2	-4.05	-2.02	24.5675	70.0	1.82	Outcome1	-4.05	10.7	2.86425	Yes	2.0	-14.7528344671202	1.608	178.353	n/a	GetAnswer	Loss
178.367	4.0	0.014	772.729	39.0	2	-4.05	-2.02	24.5675	70.0	1.82	Outcome1	-4.05	10.7	2.86425	Yes	n/a	-14.7528344671202	n/a	n/a	n/a	ShowChoice	Loss
182.396	1.0	0.029	776.758	39.0	2	-4.05	-2.02	24.5675	70.0	1.82	Outcome1	-4.05	10.7	2.86425	Yes	n/a	-14.7528344671202	n/a	n/a	n/a	ShowResult	Loss
183.415	2.348	0.019	777.777	39.0	2	-4.05	-2.02	24.5675	70.0	1.82	Outcome1	-4.05	10.7	2.86425	Yes	n/a	-14.7528344671202	n/a	n/a	n/a	ISITrial	Loss
185.789	2.864	0.026	780.151	39.0	2	-4.05	-2.02	24.5675	70.0	1.82	Outcome1	-4.05	10.7	2.86425	Yes	n/a	-14.7528344671202	n/a	n/a	n/a	TrialHappPreview	Loss
188.681	4.012	0.028	783.043	39.0	2	-4.05	-2.02	24.5675	70.0	1.82	Outcome1	-4.05	10.7	2.86425	Yes	2{-2}	-14.7528344671202	0.447	189.128	532.0	TrialHappiness	Loss
188.682	0.123	n/a	783.368	39.0	2	-4.05	-2.02	24.5675	70.0	1.82	Outcome1	-4.05	10.7	2.86425	Yes	n/a	-14.7528344671202	n/a	n/a	532.0	TrialHappinessSliderResponse	Loss
192.693	3.457	4.012	787.055	39.0	2	-4.05	-2.02	24.5675	70.0	1.82	Outcome1	-4.05	10.7	2.86425	Yes	n/a	-14.7528344671202	n/a	n/a	n/a	ISIRate	Loss
196.17	3.0	0.02	790.532	40.0	2	-15.86	-8.0	22.585	70.0	0.52	Outcome1	-15.86	-0.9	0.0	No	2.0	-14.9591836734694	2.649	198.819	n/a	GetAnswer	Mixed
198.845	4.0	0.026	793.207	40.0	2	-15.86	-8.0	22.585	70.0	0.52	Outcome1	-15.86	-0.9	0.0	No	n/a	-14.9591836734694	n/a	n/a	n/a	ShowChoice	Mixed
202.857	1.0	0.012	797.219	40.0	2	-15.86	-8.0	22.585	70.0	0.52	Outcome1	-15.86	-0.9	0.0	No	n/a	-14.9591836734694	n/a	n/a	n/a	ShowResult	Mixed
203.876	3.158	0.019	798.238	40.0	2	-15.86	-8.0	22.585	70.0	0.52	Outcome1	-15.86	-0.9	0.0	No	n/a	-14.9591836734694	n/a	n/a	n/a	ISITrial	Mixed
207.053	3.0	0.019	801.415	41.0	2	-9.98	-2.0	21.3375	70.0	2.8	Outcome2	5.5	-9.98	4.0	Yes	2.0	-15.4829931972789	1.847	208.9	n/a	GetAnswer	Gain
208.925	4.0	0.025	803.287	41.0	2	-9.98	-2.0	21.3375	70.0	2.8	Outcome2	5.5	-9.98	4.0	Yes	n/a	-15.4829931972789	n/a	n/a	n/a	ShowChoice	Gain
212.937	1.0	0.012	807.299	41.0	2	-9.98	-2.0	21.3375	70.0	2.8	Outcome2	5.5	-9.98	4.0	Yes	n/a	-15.4829931972789	n/a	n/a	n/a	ShowResult	Gain
213.957	4.506	0.02	808.319	41.0	2	-9.98	-2.0	21.3375	70.0	2.8	Outcome2	5.5	-9.98	4.0	Yes	n/a	-15.4829931972789	n/a	n/a	n/a	ISITrial	Gain
218.487	4.0	0.024	812.849	41.0	2	-9.98	-2.0	21.3375	70.0	2.8	Outcome2	5.5	-9.98	4.0	Yes	n/a	-15.4829931972789	n/a	n/a	n/a	TrialHappPreview	Gain
222.516	4.012	0.029	816.878	41.0	2	-9.98	-2.0	21.3375	70.0	2.8	Outcome2	5.5	-9.98	4.0	Yes	n/a	-15.4829931972789	n/a	n/a	488.0	TrialHappiness	Gain
222.516	0.191	n/a	817.329	41.0	2	-9.98	-2.0	21.3375	70.0	2.8	Outcome2	5.5	-9.98	4.0	Yes	n/a	-15.4829931972789	n/a	n/a	488.0	TrialHappinessSliderResponse	Gain
226.528	8.0	4.012	820.89	41.0	2	-9.98	-2.0	21.3375	70.0	2.8	Outcome2	5.5	-9.98	4.0	Yes	n/a	-15.4829931972789	n/a	n/a	n/a	ISIRate	Gain
234.552	3.0	0.024	828.914	42.0	2	-3.0	-3.0	20.9625	70.0	1.82	Certain	-10.56	4.7	0.0	No	4.0	-15.2585034013605	2.22	236.772	n/a	GetAnswer	Gain
236.792	4.0	0.02	831.154	42.0	2	-3.0	-3.0	20.9625	70.0	1.82	Certain	-10.56	4.7	0.0	No	n/a	-15.2585034013605	n/a	n/a	n/a	ShowChoice	Gain
240.804	1.0	0.012	835.166	42.0	2	-3.0	-3.0	20.9625	70.0	1.82	Certain	-10.56	4.7	0.0	No	n/a	-15.2585034013605	n/a	n/a	n/a	ShowResult	Gain
241.823	6.248	0.019	836.185	42.0	2	-3.0	-3.0	20.9625	70.0	1.82	Certain	-10.56	4.7	0.0	No	n/a	-15.2585034013605	n/a	n/a	n/a	ISITrial	Gain
248.092	3.0	0.021	842.454	43.0	2	-13.23	-5.0	19.3087	70.0	0.2	Outcome2	2.5	-13.23	2.77575	Yes	2.0	-15.7324263038549	1.65	249.742	n/a	GetAnswer	Mixed
249.764	4.0	0.022	844.126	43.0	2	-13.23	-5.0	19.3087	70.0	0.2	Outcome2	2.5	-13.23	2.77575	Yes	n/a	-15.7324263038549	n/a	n/a	n/a	ShowChoice	Mixed
253.776	1.0	0.012	848.138	43.0	2	-13.23	-5.0	19.3087	70.0	0.2	Outcome2	2.5	-13.23	2.77575	Yes	n/a	-15.7324263038549	n/a	n/a	n/a	ShowResult	Mixed
254.795	4.596	0.019	849.157	43.0	2	-13.23	-5.0	19.3087	70.0	0.2	Outcome2	2.5	-13.23	2.77575	Yes	n/a	-15.7324263038549	n/a	n/a	n/a	ISITrial	Mixed
259.409	2.776	0.018	853.771	43.0	2	-13.23	-5.0	19.3087	70.0	0.2	Outcome2	2.5	-13.23	2.77575	Yes	n/a	-15.7324263038549	n/a	n/a	n/a	TrialHappPreview	Mixed
262.201	4.029	0.016	856.563	43.0	2	-13.23	-5.0	19.3087	70.0	0.2	Outcome2	2.5	-13.23	2.77575	Yes	n/a	-15.7324263038549	n/a	n/a	364.0	TrialHappiness	Mixed
262.201	3.042	n/a	856.75	43.0	2	-13.23	-5.0	19.3087	70.0	0.2	Outcome2	2.5	-13.23	2.77575	Yes	n/a	-15.7324263038549	n/a	n/a	364.0	TrialHappinessSliderResponse	Mixed
266.23	3.103	4.029	860.592	43.0	2	-13.23	-5.0	19.3087	70.0	0.2	Outcome2	2.5	-13.23	2.77575	Yes	n/a	-15.7324263038549	n/a	n/a	n/a	ISIRate	Mixed
269.356	3.0	0.023	863.718	44.0	2	2.22	1.0	19.5862	70.0	2.0	Outcome2	0.27	2.22	0.0	No	2.0	1.95256991685563	1.656	271.012	n/a	GetAnswer	Gain
271.027	4.0	0.015	865.389	44.0	2	2.22	1.0	19.5862	70.0	2.0	Outcome2	0.27	2.22	0.0	No	n/a	1.95256991685563	n/a	n/a	n/a	ShowChoice	Gain
275.039	1.0	0.012	869.401	44.0	2	2.22	1.0	19.5862	70.0	2.0	Outcome2	0.27	2.22	0.0	No	n/a	1.95256991685563	n/a	n/a	n/a	ShowResult	Gain
276.059	2.42	0.02	870.421	44.0	2	2.22	1.0	19.5862	70.0	2.0	Outcome2	0.27	2.22	0.0	No	n/a	1.95256991685563	n/a	n/a	n/a	ISITrial	Gain
278.5	3.0	0.021	872.862	45.0	2	-2.33	-1.16	19.295	70.0	4.2	Outcome2	12.1	-2.33	0.0	No	2.0	-14.430839002267598	1.605	280.105	n/a	GetAnswer	Loss
280.121	4.0	0.016	874.483	45.0	2	-2.33	-1.16	19.295	70.0	4.2	Outcome2	12.1	-2.33	0.0	No	n/a	-14.430839002267598	n/a	n/a	n/a	ShowChoice	Loss
284.133	1.0	0.012	878.495	45.0	2	-2.33	-1.16	19.295	70.0	4.2	Outcome2	12.1	-2.33	0.0	No	n/a	-14.430839002267598	n/a	n/a	n/a	ShowResult	Loss
285.153	3.144	0.02	879.515	45.0	2	-2.33	-1.16	19.295	70.0	4.2	Outcome2	12.1	-2.33	0.0	No	n/a	-14.430839002267598	n/a	n/a	n/a	ISITrial	Loss
288.329	3.0	0.032	882.691	46.0	2	0.78	0.0	19.3925	70.0	0.52	Outcome1	0.78	-1.23	3.84125	Yes	2.0	2.00812547241119	1.817	290.146	n/a	GetAnswer	Mixed
290.168	4.0	0.022	884.53	46.0	2	0.78	0.0	19.3925	70.0	0.52	Outcome1	0.78	-1.23	3.84125	Yes	n/a	2.00812547241119	n/a	n/a	n/a	ShowChoice	Mixed
294.197	1.0	0.029	888.559	46.0	2	0.78	0.0	19.3925	70.0	0.52	Outcome1	0.78	-1.23	3.84125	Yes	n/a	2.00812547241119	n/a	n/a	n/a	ShowResult	Mixed
295.216	2.246	0.019	889.578	46.0	2	0.78	0.0	19.3925	70.0	0.52	Outcome1	0.78	-1.23	3.84125	Yes	n/a	2.00812547241119	n/a	n/a	n/a	ISITrial	Mixed
297.49	3.841	0.028	891.852	46.0	2	0.78	0.0	19.3925	70.0	0.52	Outcome1	0.78	-1.23	3.84125	Yes	n/a	2.00812547241119	n/a	n/a	n/a	TrialHappPreview	Mixed
301.351	4.029	0.02	895.713	46.0	2	0.78	0.0	19.3925	70.0	0.52	Outcome1	0.78	-1.23	3.84125	Yes	n/a	2.00812547241119	n/a	n/a	404.0	TrialHappiness	Mixed
301.352	1.975	n/a	896.12	46.0	2	0.78	0.0	19.3925	70.0	0.52	Outcome1	0.78	-1.23	3.84125	Yes	n/a	2.00812547241119	n/a	n/a	404.0	TrialHappinessSliderResponse	Mixed
305.38	7.365	4.029	899.742	46.0	2	0.78	0.0	19.3925	70.0	0.52	Outcome1	0.78	-1.23	3.84125	Yes	n/a	2.00812547241119	n/a	n/a	n/a	ISIRate	Mixed
312.769	3.0	0.024	907.131	47.0	2	1.0	1.0	19.5175	70.0	2.8	Certain	1.88	-0.32	0.0	No	4.0	2.1984126984127	2.02	314.789	n/a	GetAnswer	Gain
314.808	4.0	0.019	909.17	47.0	2	1.0	1.0	19.5175	70.0	2.8	Certain	1.88	-0.32	0.0	No	n/a	2.1984126984127	n/a	n/a	n/a	ShowChoice	Gain
318.82	1.0	0.012	913.182	47.0	2	1.0	1.0	19.5175	70.0	2.8	Certain	1.88	-0.32	0.0	No	n/a	2.1984126984127	n/a	n/a	n/a	ShowResult	Gain
319.84	2.0	0.02	914.202	47.0	2	1.0	1.0	19.5175	70.0	2.8	Certain	1.88	-0.32	0.0	No	n/a	2.1984126984127	n/a	n/a	n/a	ISITrial	Gain
321.863	3.0	0.023	916.225	48.0	2	-16.26	-8.0	17.485	70.0	1.2	Outcome1	-16.26	-0.1	2.83175	Yes	n/a	-16.156462585034	n/a	n/a	n/a	GetAnswer	Mixed
324.888	4.0	0.025	919.25	48.0	2	-16.26	-8.0	17.485	70.0	1.2	Outcome1	-16.26	-0.1	2.83175	Yes	n/a	-16.156462585034	n/a	n/a	n/a	ShowChoice	Mixed
328.917	1.0	0.029	923.279	48.0	2	-16.26	-8.0	17.485	70.0	1.2	Outcome1	-16.26	-0.1	2.83175	Yes	n/a	-16.156462585034	n/a	n/a	n/a	ShowResult	Mixed
329.937	3.692	0.02	924.299	48.0	2	-16.26	-8.0	17.485	70.0	1.2	Outcome1	-16.26	-0.1	2.83175	Yes	n/a	-16.156462585034	n/a	n/a	n/a	ISITrial	Mixed
333.648	2.832	0.019	928.01	48.0	2	-16.26	-8.0	17.485	70.0	1.2	Outcome1	-16.26	-0.1	2.83175	Yes	n/a	-16.156462585034	n/a	n/a	n/a	TrialHappPreview	Mixed
336.506	4.029	0.026	930.868	48.0	2	-16.26	-8.0	17.485	70.0	1.2	Outcome1	-16.26	-0.1	2.83175	Yes	n/a	-16.156462585034	n/a	n/a	256.0	TrialHappiness	Mixed
336.507	3.019	n/a	931.217	48.0	2	-16.26	-8.0	17.485	70.0	1.2	Outcome1	-16.26	-0.1	2.83175	Yes	n/a	-16.156462585034	n/a	n/a	256.0	TrialHappinessSliderResponse	Mixed
340.535	3.327	4.029	934.897	48.0	2	-16.26	-8.0	17.485	70.0	1.2	Outcome1	-16.26	-0.1	2.83175	Yes	n/a	-16.156462585034	n/a	n/a	n/a	ISIRate	Mixed
343.895	3.0	0.033	938.257	49.0	2	1.82	1.0	17.7125	70.0	2.48	Outcome2	0.16	1.82	0.0	No	2.0	1.66024187452759	1.62	345.515	n/a	GetAnswer	Gain
345.533	4.0	0.018	939.895	49.0	2	1.82	1.0	17.7125	70.0	2.48	Outcome2	0.16	1.82	0.0	No	n/a	1.66024187452759	n/a	n/a	n/a	ShowChoice	Gain
349.562	1.0	0.029	943.924	49.0	2	1.82	1.0	17.7125	70.0	2.48	Outcome2	0.16	1.82	0.0	No	n/a	1.66024187452759	n/a	n/a	n/a	ShowResult	Gain
350.582	8.0	0.02	944.944	49.0	2	1.82	1.0	17.7125	70.0	2.48	Outcome2	0.16	1.82	0.0	No	n/a	1.66024187452759	n/a	n/a	n/a	ISITrial	Gain
358.606	3.0	0.024	952.968	50.0	2	-11.33	-4.0	16.2963	70.0	0.4	Outcome1	-11.33	2.9	3.54725	Yes	2.0	-14.2290249433107	1.896	360.502	n/a	GetAnswer	Mixed
360.528	4.0	0.026	954.89	50.0	2	-11.33	-4.0	16.2963	70.0	0.4	Outcome1	-11.33	2.9	3.54725	Yes	n/a	-14.2290249433107	n/a	n/a	n/a	ShowChoice	Mixed
364.557	1.0	0.029	958.919	50.0	2	-11.33	-4.0	16.2963	70.0	0.4	Outcome1	-11.33	2.9	3.54725	Yes	n/a	-14.2290249433107	n/a	n/a	n/a	ShowResult	Mixed
365.577	7.537	0.02	959.939	50.0	2	-11.33	-4.0	16.2963	70.0	0.4	Outcome1	-11.33	2.9	3.54725	Yes	n/a	-14.2290249433107	n/a	n/a	n/a	ISITrial	Mixed
373.133	3.547	0.019	967.495	50.0	2	-11.33	-4.0	16.2963	70.0	0.4	Outcome1	-11.33	2.9	3.54725	Yes	n/a	-14.2290249433107	n/a	n/a	n/a	TrialHappPreview	Mixed
376.71	4.012	0.03	971.072	50.0	2	-11.33	-4.0	16.2963	70.0	0.4	Outcome1	-11.33	2.9	3.54725	Yes	n/a	-14.2290249433107	n/a	n/a	216.0	TrialHappiness	Mixed
376.71	2.371	n/a	971.383	50.0	2	-11.33	-4.0	16.2963	70.0	0.4	Outcome1	-11.33	2.9	3.54725	Yes	n/a	-14.2290249433107	n/a	n/a	216.0	TrialHappinessSliderResponse	Mixed
380.722	6.189	4.012	975.084	50.0	2	-11.33	-4.0	16.2963	70.0	0.4	Outcome1	-11.33	2.9	3.54725	Yes	n/a	-14.2290249433107	n/a	n/a	n/a	ISIRate	Mixed
386.94	3.0	0.029	981.302	51.0	2	-7.0	-7.0	15.4213	70.0	0.66	Certain	-0.7	-14.46	0.0	No	4.0	-13.7596371882086	1.547	388.487	n/a	GetAnswer	Mixed
388.512	4.0	0.025	982.874	51.0	2	-7.0	-7.0	15.4213	70.0	0.66	Certain	-0.7	-14.46	0.0	No	n/a	-13.7596371882086	n/a	n/a	n/a	ShowChoice	Mixed
392.524	1.0	0.012	986.886	51.0	2	-7.0	-7.0	15.4213	70.0	0.66	Certain	-0.7	-14.46	0.0	No	n/a	-13.7596371882086	n/a	n/a	n/a	ShowResult	Mixed
393.544	5.508	0.02	987.906	51.0	2	-7.0	-7.0	15.4213	70.0	0.66	Certain	-0.7	-14.46	0.0	No	n/a	-13.7596371882086	n/a	n/a	n/a	ISITrial	Mixed
399.077	3.0	0.025	993.439	52.0	2	-0.38	-1.0	15.3738	70.0	0.2	Outcome2	-1.93	-0.38	0.0	No	2.0	1.5466742252456498	2.521	401.598	n/a	GetAnswer	Mixed
401.618	4.0	0.02	995.98	52.0	2	-0.38	-1.0	15.3738	70.0	0.2	Outcome2	-1.93	-0.38	0.0	No	n/a	1.5466742252456498	n/a	n/a	n/a	ShowChoice	Mixed
405.63	1.0	0.012	999.992	52.0	2	-0.38	-1.0	15.3738	70.0	0.2	Outcome2	-1.93	-0.38	0.0	No	n/a	1.5466742252456498	n/a	n/a	n/a	ShowResult	Mixed
406.649	5.913	0.019	1001.011	52.0	2	-0.38	-1.0	15.3738	70.0	0.2	Outcome2	-1.93	-0.38	0.0	No	n/a	1.5466742252456498	n/a	n/a	n/a	ISITrial	Mixed
412.584	3.0	0.022	1006.946	53.0	2	-3.0	-3.0	14.9988	70.0	1.2	Certain	-10.19	3.9	2.99675	Yes	4.0	-14.0907029478458	2.176	414.76	n/a	GetAnswer	Mixed
414.774	4.0	0.014	1009.136	53.0	2	-3.0	-3.0	14.9988	70.0	1.2	Certain	-10.19	3.9	2.99675	Yes	n/a	-14.0907029478458	n/a	n/a	n/a	ShowChoice	Mixed
418.786	1.0	0.012	1013.148	53.0	2	-3.0	-3.0	14.9988	70.0	1.2	Certain	-10.19	3.9	2.99675	Yes	n/a	-14.0907029478458	n/a	n/a	n/a	ShowResult	Mixed
419.805	3.66	0.019	1014.167	53.0	2	-3.0	-3.0	14.9988	70.0	1.2	Certain	-10.19	3.9	2.99675	Yes	n/a	-14.0907029478458	n/a	n/a	n/a	ISITrial	Mixed
423.483	2.997	0.018	1017.845	53.0	2	-3.0	-3.0	14.9988	70.0	1.2	Certain	-10.19	3.9	2.99675	Yes	n/a	-14.0907029478458	n/a	n/a	n/a	TrialHappPreview	Mixed
426.509	4.012	0.029	1020.871	53.0	2	-3.0	-3.0	14.9988	70.0	1.2	Certain	-10.19	3.9	2.99675	Yes	n/a	-14.0907029478458	n/a	n/a	236.0	TrialHappiness	Mixed
426.509	1.998	n/a	1021.244	53.0	2	-3.0	-3.0	14.9988	70.0	1.2	Certain	-10.19	3.9	2.99675	Yes	n/a	-14.0907029478458	n/a	n/a	236.0	TrialHappinessSliderResponse	Mixed
430.521	3.987	4.012	1024.883	53.0	2	-3.0	-3.0	14.9988	70.0	1.2	Certain	-10.19	3.9	2.99675	Yes	n/a	-14.0907029478458	n/a	n/a	n/a	ISIRate	Mixed
434.533	3.0	0.025	1028.895	54.0	2	-2.3	-1.15	14.7113	70.0	5.0	Outcome2	12.3	-2.3	0.0	No	2.0	-14.5963718820862	1.662	436.195	n/a	GetAnswer	Loss
436.221	4.0	0.026	1030.583	54.0	2	-2.3	-1.15	14.7113	70.0	5.0	Outcome2	12.3	-2.3	0.0	No	n/a	-14.5963718820862	n/a	n/a	n/a	ShowChoice	Loss
440.233	1.0	0.012	1034.595	54.0	2	-2.3	-1.15	14.7113	70.0	5.0	Outcome2	12.3	-2.3	0.0	No	n/a	-14.5963718820862	n/a	n/a	n/a	ShowResult	Loss
441.253	8.0	0.02	1035.615	54.0	2	-2.3	-1.15	14.7113	70.0	5.0	Outcome2	12.3	-2.3	0.0	No	n/a	-14.5963718820862	n/a	n/a	n/a	ISITrial	Loss
499.845	0.492	n/a	1096.361	n/a	2	n/a	n/a	n/a	n/a	n/a	n/a	n/a	n/a	n/a	n/a	n/a	n/a	n/a	n/a	344.0	BlockStartHappinessSliderResponse	n/a
-73.887	-0.001	0.024	1043.639	n/a	3	n/a	n/a	n/a	n/a	n/a	n/a	n/a	n/a	n/a	n/a	4	n/a	46.533	-27.354	n/a	Rest	n/a
-27.331	4.0	0.023	1090.195	n/a	3	n/a	n/a	n/a	n/a	n/a	n/a	n/a	n/a	n/a	n/a	n/a	n/a	n/a	n/a	n/a	BlockHappyPreview	n/a
-23.319	2.646	0.012	1094.207	n/a	3	n/a	n/a	n/a	n/a	n/a	n/a	n/a	n/a	n/a	n/a	4{-4}	n/a	2.646	-20.673	344.0	BlockStartHappiness	n/a
-3.41	-0.001	0.015	1114.116	n/a	3	n/a	n/a	n/a	n/a	n/a	n/a	n/a	n/a	n/a	n/a	5.0	n/a	3.398	-0.012	n/a	ScanWait	n/a
0.0	10.0	0.012	1117.526	n/a	3	n/a	n/a	n/a	n/a	n/a	n/a	n/a	n/a	n/a	n/a	n/a	n/a	n/a	n/a	n/a	GetReady	n/a
10.014	3.0	0.014	1127.54	55.0	3	-6.0	-6.0	13.9613	955.0	0.4	Certain	-1.1	-11.48	2.53325	Yes	4.0	10.3793884484711	2.137	12.151	n/a	GetAnswer	Mixed
12.17	4.0	0.019	1129.696	55.0	3	-6.0	-6.0	13.9613	955.0	0.4	Certain	-1.1	-11.48	2.53325	Yes	n/a	10.3793884484711	n/a	n/a	n/a	ShowChoice	Mixed
16.182	1.0	0.012	1133.708	55.0	3	-6.0	-6.0	13.9613	955.0	0.4	Certain	-1.1	-11.48	2.53325	Yes	n/a	10.3793884484711	n/a	n/a	n/a	ShowResult	Mixed
17.202	7.709	0.02	1134.728	55.0	3	-6.0	-6.0	13.9613	955.0	0.4	Certain	-1.1	-11.48	2.53325	Yes	n/a	10.3793884484711	n/a	n/a	n/a	ISITrial	Mixed
24.925	2.533	0.014	1142.451	55.0	3	-6.0	-6.0	13.9613	955.0	0.4	Certain	-1.1	-11.48	2.53325	Yes	n/a	10.3793884484711	n/a	n/a	n/a	TrialHappPreview	Mixed
27.483	4.045	0.025	1145.009	55.0	3	-6.0	-6.0	13.9613	955.0	0.4	Certain	-1.1	-11.48	2.53325	Yes	n/a	10.3793884484711	n/a	n/a	184.0	TrialHappiness	Mixed
27.483	2.952	n/a	1145.89	55.0	3	-6.0	-6.0	13.9613	955.0	0.4	Certain	-1.1	-11.48	2.53325	Yes	n/a	10.3793884484711	n/a	n/a	184.0	TrialHappinessSliderResponse	Mixed
31.528	2.133	4.045	1149.054	55.0	3	-6.0	-6.0	13.9613	955.0	0.4	Certain	-1.1	-11.48	2.53325	Yes	n/a	10.3793884484711	n/a	n/a	n/a	ISIRate	Mixed
33.684	3.0	0.023	1151.21	56.0	3	-0.14	-0.14	13.9438	955.0	2.8	Certain	-0.29	13.5	0.0	No	4.0	13.7893544733862	1.735	35.419	n/a	GetAnswer	Loss
35.44	4.0	0.021	1152.966	56.0	3	-0.14	-0.14	13.9438	955.0	2.8	Certain	-0.29	13.5	0.0	No	n/a	13.7893544733862	n/a	n/a	n/a	ShowChoice	Loss
39.452	1.0	0.012	1156.978	56.0	3	-0.14	-0.14	13.9438	955.0	2.8	Certain	-0.29	13.5	0.0	No	n/a	13.7893544733862	n/a	n/a	n/a	ShowResult	Loss
40.471	4.697	0.019	1157.997	56.0	3	-0.14	-0.14	13.9438	955.0	2.8	Certain	-0.29	13.5	0.0	No	n/a	13.7893544733862	n/a	n/a	n/a	ISITrial	Loss
45.186	3.0	0.018	1162.712	57.0	3	5.7	-1.0	14.6563	955.0	3.16	Outcome2	-8.96	5.7	0.0	No	2.0	14.6625141562854	2.173	47.359	n/a	GetAnswer	Gain
47.375	4.0	0.016	1164.901	57.0	3	5.7	-1.0	14.6563	955.0	3.16	Outcome2	-8.96	5.7	0.0	No	n/a	14.6625141562854	n/a	n/a	n/a	ShowChoice	Gain
51.387	1.0	0.012	1168.913	57.0	3	5.7	-1.0	14.6563	955.0	3.16	Outcome2	-8.96	5.7	0.0	No	n/a	14.6625141562854	n/a	n/a	n/a	ShowResult	Gain
52.407	4.291	0.02	1169.933	57.0	3	5.7	-1.0	14.6563	955.0	3.16	Outcome2	-8.96	5.7	0.0	No	n/a	14.6625141562854	n/a	n/a	n/a	ISITrial	Gain
56.72	3.0	0.022	1174.246	58.0	3	12.9	-1.32	16.2688	955.0	2.0	Outcome1	12.9	-2.64	3.04575	Yes	2.0	15.535673839184598	1.643	58.363	n/a	GetAnswer	Loss
58.375	4.0	0.012	1175.901	58.0	3	12.9	-1.32	16.2688	955.0	2.0	Outcome1	12.9	-2.64	3.04575	Yes	n/a	15.535673839184598	n/a	n/a	n/a	ShowChoice	Loss
62.387	1.0	0.012	1179.913	58.0	3	12.9	-1.32	16.2688	955.0	2.0	Outcome1	12.9	-2.64	3.04575	Yes	n/a	15.535673839184598	n/a	n/a	n/a	ShowResult	Loss
63.407	2.037	0.02	1180.933	58.0	3	12.9	-1.32	16.2688	955.0	2.0	Outcome1	12.9	-2.64	3.04575	Yes	n/a	15.535673839184598	n/a	n/a	n/a	ISITrial	Loss
65.463	3.046	0.019	1182.989	58.0	3	12.9	-1.32	16.2688	955.0	2.0	Outcome1	12.9	-2.64	3.04575	Yes	n/a	15.535673839184598	n/a	n/a	n/a	TrialHappPreview	Loss
68.539	4.012	0.03	1186.065	58.0	3	12.9	-1.32	16.2688	955.0	2.0	Outcome1	12.9	-2.64	3.04575	Yes	n/a	15.535673839184598	n/a	n/a	568.0	TrialHappiness	Loss
68.539	1.87	n/a	1186.466	58.0	3	12.9	-1.32	16.2688	955.0	2.0	Outcome1	12.9	-2.64	3.04575	Yes	n/a	15.535673839184598	n/a	n/a	568.0	TrialHappinessSliderResponse	Loss
72.551	4.183	4.012	1190.077	58.0	3	12.9	-1.32	16.2688	955.0	2.0	Outcome1	12.9	-2.64	3.04575	Yes	n/a	15.535673839184598	n/a	n/a	n/a	ISIRate	Loss
76.763	3.0	0.029	1194.289	59.0	3	5.1	0.0	16.9063	955.0	2.22	Outcome2	-4.79	5.1	0.0	No	2.0	9.88561721404303	2.071	78.834	n/a	GetAnswer	Gain
78.853	4.0	0.019	1196.379	59.0	3	5.1	0.0	16.9063	955.0	2.22	Outcome2	-4.79	5.1	0.0	No	n/a	9.88561721404303	n/a	n/a	n/a	ShowChoice	Gain
82.865	1.0	0.012	1200.391	59.0	3	5.1	0.0	16.9063	955.0	2.22	Outcome2	-4.79	5.1	0.0	No	n/a	9.88561721404303	n/a	n/a	n/a	ShowResult	Gain
83.885	5.064	0.02	1201.411	59.0	3	5.1	0.0	16.9063	955.0	2.22	Outcome2	-4.79	5.1	0.0	No	n/a	9.88561721404303	n/a	n/a	n/a	ISITrial	Gain
88.966	3.0	0.017	1206.492	60.0	3	8.42	4.21	17.9588	955.0	5.0	Outcome1	8.42	10.3	3.5625	Yes	2.0	-1.88297470743677	1.485	90.451	n/a	GetAnswer	Gain
90.471	4.0	0.02	1207.997	60.0	3	8.42	4.21	17.9588	955.0	5.0	Outcome1	8.42	10.3	3.5625	Yes	n/a	-1.88297470743677	n/a	n/a	n/a	ShowChoice	Gain
94.483	1.0	0.012	1212.009	60.0	3	8.42	4.21	17.9588	955.0	5.0	Outcome1	8.42	10.3	3.5625	Yes	n/a	-1.88297470743677	n/a	n/a	n/a	ShowResult	Gain
95.503	8.0	0.02	1213.029	60.0	3	8.42	4.21	17.9588	955.0	5.0	Outcome1	8.42	10.3	3.5625	Yes	n/a	-1.88297470743677	n/a	n/a	n/a	ISITrial	Gain
103.527	3.562	0.024	1221.053	60.0	3	8.42	4.21	17.9588	955.0	5.0	Outcome1	8.42	10.3	3.5625	Yes	n/a	-1.88297470743677	n/a	n/a	n/a	TrialHappPreview	Gain
107.104	4.012	0.015	1224.63	60.0	3	8.42	4.21	17.9588	955.0	5.0	Outcome1	8.42	10.3	3.5625	Yes	2{-2}2{-2}	-1.88297470743677	3.765	110.869	540.0	TrialHappiness	Gain
107.105	3.506	n/a	1224.89	60.0	3	8.42	4.21	17.9588	955.0	5.0	Outcome1	8.42	10.3	3.5625	Yes	n/a	-1.88297470743677	n/a	n/a	540.0	TrialHappinessSliderResponse	Gain
111.116	6.25	4.012	1228.642	60.0	3	8.42	4.21	17.9588	955.0	5.0	Outcome1	8.42	10.3	3.5625	Yes	n/a	-1.88297470743677	n/a	n/a	n/a	ISIRate	Gain
117.385	3.0	0.019	1234.911	61.0	3	4.47	2.24	18.5176	955.0	1.68	Outcome2	6.5	4.47	0.0	No	2.0	-2.03312570781427	1.411	118.796	n/a	GetAnswer	Gain
118.822	4.0	0.026	1236.348	61.0	3	4.47	2.24	18.5176	955.0	1.68	Outcome2	6.5	4.47	0.0	No	n/a	-2.03312570781427	n/a	n/a	n/a	ShowChoice	Gain
122.834	1.0	0.012	1240.36	61.0	3	4.47	2.24	18.5176	955.0	1.68	Outcome2	6.5	4.47	0.0	No	n/a	-2.03312570781427	n/a	n/a	n/a	ShowResult	Gain
123.854	4.586	0.02	1241.38	61.0	3	4.47	2.24	18.5176	955.0	1.68	Outcome2	6.5	4.47	0.0	No	n/a	-2.03312570781427	n/a	n/a	n/a	ISITrial	Gain
128.468	3.0	0.028	1245.994	62.0	3	0.03	1.0	18.5214	955.0	1.5	Outcome1	0.03	2.1	3.74875	Yes	2.0	-2.07229143072858	1.24	129.708	n/a	GetAnswer	Mixed
129.722	4.0	0.014	1247.248	62.0	3	0.03	1.0	18.5214	955.0	1.5	Outcome1	0.03	2.1	3.74875	Yes	n/a	-2.07229143072858	n/a	n/a	n/a	ShowChoice	Mixed
133.734	1.0	0.012	1251.26	62.0	3	0.03	1.0	18.5214	955.0	1.5	Outcome1	0.03	2.1	3.74875	Yes	n/a	-2.07229143072858	n/a	n/a	n/a	ShowResult	Mixed
134.753	5.212	0.019	1252.279	62.0	3	0.03	1.0	18.5214	955.0	1.5	Outcome1	0.03	2.1	3.74875	Yes	n/a	-2.07229143072858	n/a	n/a	n/a	ISITrial	Mixed
139.986	3.749	0.021	1257.512	62.0	3	0.03	1.0	18.5214	955.0	1.5	Outcome1	0.03	2.1	3.74875	Yes	n/a	-2.07229143072858	n/a	n/a	n/a	TrialHappPreview	Mixed
143.764	4.012	0.029	1261.29	62.0	3	0.03	1.0	18.5214	955.0	1.5	Outcome1	0.03	2.1	3.74875	Yes	n/a	-2.07229143072858	n/a	n/a	536.0	TrialHappiness	Mixed
143.764	0.19	n/a	1262.678	62.0	3	0.03	1.0	18.5214	955.0	1.5	Outcome1	0.03	2.1	3.74875	Yes	n/a	-2.07229143072858	n/a	n/a	536.0	TrialHappinessSliderResponse	Mixed
147.776	6.995	4.012	1265.302	62.0	3	0.03	1.0	18.5214	955.0	1.5	Outcome1	0.03	2.1	3.74875	Yes	n/a	-2.07229143072858	n/a	n/a	n/a	ISIRate	Mixed
154.797	3.0	0.026	1272.323	63.0	3	1.5	-4.0	18.7089	955.0	0.82	Outcome1	1.5	-10.75	0.0	No	2.0	12.2457531143828	2.717	157.514	n/a	GetAnswer	Mixed
157.538	4.0	0.024	1275.064	63.0	3	1.5	-4.0	18.7089	955.0	0.82	Outcome1	1.5	-10.75	0.0	No	n/a	12.2457531143828	n/a	n/a	n/a	ShowChoice	Mixed
161.55	1.0	0.012	1279.076	63.0	3	1.5	-4.0	18.7089	955.0	0.82	Outcome1	1.5	-10.75	0.0	No	n/a	12.2457531143828	n/a	n/a	n/a	ShowResult	Mixed
162.57	5.595	0.02	1280.096	63.0	3	1.5	-4.0	18.7089	955.0	0.82	Outcome1	1.5	-10.75	0.0	No	n/a	12.2457531143828	n/a	n/a	n/a	ISITrial	Mixed
168.187	3.0	0.022	1285.713	64.0	3	-1.47	0.0	18.5251	955.0	0.3	Outcome1	-1.47	0.7	0.0	No	2.0	-2.1672329180823	2.477	170.664	n/a	GetAnswer	Mixed
170.694	4.0	0.03	1288.22	64.0	3	-1.47	0.0	18.5251	955.0	0.3	Outcome1	-1.47	0.7	0.0	No	n/a	-2.1672329180823	n/a	n/a	n/a	ShowChoice	Mixed
174.706	1.0	0.012	1292.232	64.0	3	-1.47	0.0	18.5251	955.0	0.3	Outcome1	-1.47	0.7	0.0	No	n/a	-2.1672329180823	n/a	n/a	n/a	ShowResult	Mixed
175.726	5.47	0.02	1293.252	64.0	3	-1.47	0.0	18.5251	955.0	0.3	Outcome1	-1.47	0.7	0.0	No	n/a	-2.1672329180823	n/a	n/a	n/a	ISITrial	Mixed
181.226	3.0	0.03	1298.752	65.0	3	2.0	2.0	18.7751	955.0	2.48	Certain	-3.89	9.3	2.99675	Yes	4.0	13.1947904869762	2.023	183.249	n/a	GetAnswer	Gain
183.265	4.0	0.016	1300.791	65.0	3	2.0	2.0	18.7751	955.0	2.48	Certain	-3.89	9.3	2.99675	Yes	n/a	13.1947904869762	n/a	n/a	n/a	ShowChoice	Gain
187.277	1.0	0.012	1304.803	65.0	3	2.0	2.0	18.7751	955.0	2.48	Certain	-3.89	9.3	2.99675	Yes	n/a	13.1947904869762	n/a	n/a	n/a	ShowResult	Gain
188.297	3.344	0.02	1305.823	65.0	3	2.0	2.0	18.7751	955.0	2.48	Certain	-3.89	9.3	2.99675	Yes	n/a	13.1947904869762	n/a	n/a	n/a	ISITrial	Gain
191.657	2.997	0.016	1309.183	65.0	3	2.0	2.0	18.7751	955.0	2.48	Certain	-3.89	9.3	2.99675	Yes	n/a	13.1947904869762	n/a	n/a	n/a	TrialHappPreview	Gain
194.683	4.012	0.029	1312.209	65.0	3	2.0	2.0	18.7751	955.0	2.48	Certain	-3.89	9.3	2.99675	Yes	n/a	13.1947904869762	n/a	n/a	552.0	TrialHappiness	Gain
194.683	0.279	n/a	1312.581	65.0	3	2.0	2.0	18.7751	955.0	2.48	Certain	-3.89	9.3	2.99675	Yes	n/a	13.1947904869762	n/a	n/a	552.0	TrialHappinessSliderResponse	Gain
198.695	3.987	4.012	1316.221	65.0	3	2.0	2.0	18.7751	955.0	2.48	Certain	-3.89	9.3	2.99675	Yes	n/a	13.1947904869762	n/a	n/a	n/a	ISIRate	Gain
202.707	3.0	0.025	1320.233	66.0	3	13.3	-0.05	20.4376	955.0	2.48	Outcome1	13.3	-0.1	0.0	No	2.0	13.3975084937712	1.968	204.675	n/a	GetAnswer	Loss
204.696	4.0	0.021	1322.222	66.0	3	13.3	-0.05	20.4376	955.0	2.48	Outcome1	13.3	-0.1	0.0	No	n/a	13.3975084937712	n/a	n/a	n/a	ShowChoice	Loss
208.708	1.0	0.012	1326.234	66.0	3	13.3	-0.05	20.4376	955.0	2.48	Outcome1	13.3	-0.1	0.0	No	n/a	13.3975084937712	n/a	n/a	n/a	ShowResult	Loss
209.727	3.959	0.019	1327.253	66.0	3	13.3	-0.05	20.4376	955.0	2.48	Outcome1	13.3	-0.1	0.0	No	n/a	13.3975084937712	n/a	n/a	n/a	ISITrial	Loss
213.706	3.0	0.02	1331.232	67.0	3	8.68	4.34	21.5226	955.0	2.0	Outcome1	8.68	10.9	2.9185	Yes	2.0	-2.21942242355606	1.862	215.568	n/a	GetAnswer	Loss
215.595	4.0	0.027	1333.121	67.0	3	8.68	4.34	21.5226	955.0	2.0	Outcome1	8.68	10.9	2.9185	Yes	n/a	-2.21942242355606	n/a	n/a	n/a	ShowChoice	Loss
219.607	1.0	0.012	1337.133	67.0	3	8.68	4.34	21.5226	955.0	2.0	Outcome1	8.68	10.9	2.9185	Yes	n/a	-2.21942242355606	n/a	n/a	n/a	ShowResult	Loss
220.627	4.199	0.02	1338.153	67.0	3	8.68	4.34	21.5226	955.0	2.0	Outcome1	8.68	10.9	2.9185	Yes	n/a	-2.21942242355606	n/a	n/a	n/a	ISITrial	Loss
224.839	2.918	0.013	1342.365	67.0	3	8.68	4.34	21.5226	955.0	2.0	Outcome1	8.68	10.9	2.9185	Yes	n/a	-2.21942242355606	n/a	n/a	n/a	TrialHappPreview	Loss
227.781	4.012	0.024	1345.307	67.0	3	8.68	4.34	21.5226	955.0	2.0	Outcome1	8.68	10.9	2.9185	Yes	n/a	-2.21942242355606	n/a	n/a	536.0	TrialHappiness	Loss
227.782	1.114	n/a	1345.675	67.0	3	8.68	4.34	21.5226	955.0	2.0	Outcome1	8.68	10.9	2.9185	Yes	n/a	-2.21942242355606	n/a	n/a	536.0	TrialHappinessSliderResponse	Loss
231.793	3.674	4.012	1349.319	67.0	3	8.68	4.34	21.5226	955.0	2.0	Outcome1	8.68	10.9	2.9185	Yes	n/a	-2.21942242355606	n/a	n/a	n/a	ISIRate	Loss
235.488	3.0	0.021	1353.014	68.0	3	1.0	1.0	21.6476	955.0	1.68	Certain	-6.08	8.5	0.0	No	4.0	14.582106455266098	1.794	237.282	n/a	GetAnswer	Gain
237.293	4.0	0.011	1354.819	68.0	3	1.0	1.0	21.6476	955.0	1.68	Certain	-6.08	8.5	0.0	No	n/a	14.582106455266098	n/a	n/a	n/a	ShowChoice	Gain
241.305	1.0	0.012	1358.831	68.0	3	1.0	1.0	21.6476	955.0	1.68	Certain	-6.08	8.5	0.0	No	n/a	14.582106455266098	n/a	n/a	n/a	ShowResult	Gain
242.325	2.185	0.02	1359.851	68.0	3	1.0	1.0	21.6476	955.0	1.68	Certain	-6.08	8.5	0.0	No	n/a	14.582106455266098	n/a	n/a	n/a	ISITrial	Gain
244.532	3.0	0.022	1362.058	69.0	3	9.34	4.67	22.8151	955.0	3.16	Outcome2	11.7	9.34	0.0	No	2.0	-2.3619290298225697	1.005	245.537	n/a	GetAnswer	Loss
245.551	4.0	0.013	1363.077	69.0	3	9.34	4.67	22.8151	955.0	3.16	Outcome2	11.7	9.34	0.0	No	n/a	-2.3619290298225697	n/a	n/a	n/a	ShowChoice	Loss
249.563	1.0	0.012	1367.089	69.0	3	9.34	4.67	22.8151	955.0	3.16	Outcome2	11.7	9.34	0.0	No	n/a	-2.3619290298225697	n/a	n/a	n/a	ShowResult	Loss
250.583	2.0	0.02	1368.109	69.0	3	9.34	4.67	22.8151	955.0	3.16	Outcome2	11.7	9.34	0.0	No	n/a	-2.3619290298225697	n/a	n/a	n/a	ISITrial	Loss
252.606	3.0	0.023	1370.132	70.0	3	1.3	2.0	22.9776	955.0	1.0	Outcome2	3.7	1.3	3.65125	Yes	2.0	-2.40147225368063	2.08	254.686	n/a	GetAnswer	Mixed
254.712	4.0	0.026	1372.238	70.0	3	1.3	2.0	22.9776	955.0	1.0	Outcome2	3.7	1.3	3.65125	Yes	n/a	-2.40147225368063	n/a	n/a	n/a	ShowChoice	Mixed
258.724	1.0	0.012	1376.25	70.0	3	1.3	2.0	22.9776	955.0	1.0	Outcome2	3.7	1.3	3.65125	Yes	n/a	-2.40147225368063	n/a	n/a	n/a	ShowResult	Mixed
259.744	2.623	0.02	1377.27	70.0	3	1.3	2.0	22.9776	955.0	1.0	Outcome2	3.7	1.3	3.65125	Yes	n/a	-2.40147225368063	n/a	n/a	n/a	ISITrial	Mixed
262.385	3.651	0.018	1379.911	70.0	3	1.3	2.0	22.9776	955.0	1.0	Outcome2	3.7	1.3	3.65125	Yes	n/a	-2.40147225368063	n/a	n/a	n/a	TrialHappPreview	Mixed
266.063	4.012	0.027	1383.589	70.0	3	1.3	2.0	22.9776	955.0	1.0	Outcome2	3.7	1.3	3.65125	Yes	n/a	-2.40147225368063	n/a	n/a	532.0	TrialHappiness	Mixed
266.063	0.137	n/a	1384.018	70.0	3	1.3	2.0	22.9776	955.0	1.0	Outcome2	3.7	1.3	3.65125	Yes	n/a	-2.40147225368063	n/a	n/a	532.0	TrialHappinessSliderResponse	Mixed
270.075	6.605	4.012	1387.601	70.0	3	1.3	2.0	22.9776	955.0	1.0	Outcome2	3.7	1.3	3.65125	Yes	n/a	-2.40147225368063	n/a	n/a	n/a	ISIRate	Mixed
276.711	3.0	0.031	1394.237	71.0	3	6.1	-2.0	23.7401	955.0	4.2	Outcome1	6.1	-9.97	0.0	No	2.0	16.073612684031698	1.921	278.632	n/a	GetAnswer	Gain
278.65	4.0	0.018	1396.176	71.0	3	6.1	-2.0	23.7401	955.0	4.2	Outcome1	6.1	-9.97	0.0	No	n/a	16.073612684031698	n/a	n/a	n/a	ShowChoice	Gain
282.662	1.0	0.012	1400.188	71.0	3	6.1	-2.0	23.7401	955.0	4.2	Outcome1	6.1	-9.97	0.0	No	n/a	16.073612684031698	n/a	n/a	n/a	ShowResult	Gain
283.682	5.499	0.02	1401.208	71.0	3	6.1	-2.0	23.7401	955.0	4.2	Outcome1	6.1	-9.97	0.0	No	n/a	16.073612684031698	n/a	n/a	n/a	ISITrial	Gain
289.198	3.0	0.017	1406.724	72.0	3	11.3	-2.62	25.1526	955.0	2.48	Outcome2	-5.25	11.3	3.0805	Yes	2.0	16.5526613816535	1.781	290.979	n/a	GetAnswer	Loss
291.004	4.0	0.025	1408.53	72.0	3	11.3	-2.62	25.1526	955.0	2.48	Outcome2	-5.25	11.3	3.0805	Yes	n/a	16.5526613816535	n/a	n/a	n/a	ShowChoice	Loss
295.016	1.0	0.012	1412.542	72.0	3	11.3	-2.62	25.1526	955.0	2.48	Outcome2	-5.25	11.3	3.0805	Yes	n/a	16.5526613816535	n/a	n/a	n/a	ShowResult	Loss
296.036	5.672	0.02	1413.562	72.0	3	11.3	-2.62	25.1526	955.0	2.48	Outcome2	-5.25	11.3	3.0805	Yes	n/a	16.5526613816535	n/a	n/a	n/a	ISITrial	Loss
301.719	3.08	0.011	1419.245	72.0	3	11.3	-2.62	25.1526	955.0	2.48	Outcome2	-5.25	11.3	3.0805	Yes	n/a	16.5526613816535	n/a	n/a	n/a	TrialHappPreview	Loss
304.829	4.012	0.03	1422.355	72.0	3	11.3	-2.62	25.1526	955.0	2.48	Outcome2	-5.25	11.3	3.0805	Yes	2{-2}2{-2}2{-2}2{-2}2{-2}2{-2}2{-2}4{-4}	16.5526613816535	3.717	308.546	616.0	TrialHappiness	Loss
304.829	3.322	n/a	1422.75	72.0	3	11.3	-2.62	25.1526	955.0	2.48	Outcome2	-5.25	11.3	3.0805	Yes	n/a	16.5526613816535	n/a	n/a	616.0	TrialHappinessSliderResponse	Loss
308.841	4.322	4.012	1426.367	72.0	3	11.3	-2.62	25.1526	955.0	2.48	Outcome2	-5.25	11.3	3.0805	Yes	n/a	16.5526613816535	n/a	n/a	n/a	ISIRate	Loss
313.187	3.0	0.024	1430.713	73.0	3	11.1	-2.25	26.5401	955.0	2.22	Outcome2	-4.5	11.1	0.0	No	2.0	15.6047565118913	2.276	315.463	n/a	GetAnswer	Loss
315.477	4.0	0.014	1433.003	73.0	3	11.1	-2.25	26.5401	955.0	2.22	Outcome2	-4.5	11.1	0.0	No	n/a	15.6047565118913	n/a	n/a	n/a	ShowChoice	Loss
319.489	1.0	0.012	1437.015	73.0	3	11.1	-2.25	26.5401	955.0	2.22	Outcome2	-4.5	11.1	0.0	No	n/a	15.6047565118913	n/a	n/a	n/a	ShowResult	Loss
320.509	4.616	0.02	1438.035	73.0	3	11.1	-2.25	26.5401	955.0	2.22	Outcome2	-4.5	11.1	0.0	No	n/a	15.6047565118913	n/a	n/a	n/a	ISITrial	Loss
325.156	3.0	0.031	1442.682	74.0	3	4.5	-3.0	27.1026	955.0	1.68	Outcome2	-11.49	4.5	3.05625	Yes	2.0	15.9886749716874	1.696	326.852	n/a	GetAnswer	Gain
326.878	4.0	0.026	1444.404	74.0	3	4.5	-3.0	27.1026	955.0	1.68	Outcome2	-11.49	4.5	3.05625	Yes	n/a	15.9886749716874	n/a	n/a	n/a	ShowChoice	Gain
330.89	1.0	0.012	1448.416	74.0	3	4.5	-3.0	27.1026	955.0	1.68	Outcome2	-11.49	4.5	3.05625	Yes	n/a	15.9886749716874	n/a	n/a	n/a	ShowResult	Gain
331.909	3.909	0.019	1449.435	74.0	3	4.5	-3.0	27.1026	955.0	1.68	Outcome2	-11.49	4.5	3.05625	Yes	n/a	15.9886749716874	n/a	n/a	n/a	ISITrial	Gain
335.838	3.056	0.02	1453.364	74.0	3	4.5	-3.0	27.1026	955.0	1.68	Outcome2	-11.49	4.5	3.05625	Yes	n/a	15.9886749716874	n/a	n/a	n/a	TrialHappPreview	Gain
338.914	4.012	0.02	1456.44	74.0	3	4.5	-3.0	27.1026	955.0	1.68	Outcome2	-11.49	4.5	3.05625	Yes	n/a	15.9886749716874	n/a	n/a	624.0	TrialHappiness	Gain
338.914	1.145	n/a	1456.823	74.0	3	4.5	-3.0	27.1026	955.0	1.68	Outcome2	-11.49	4.5	3.05625	Yes	n/a	15.9886749716874	n/a	n/a	624.0	TrialHappinessSliderResponse	Gain
342.926	4.225	4.012	1460.452	74.0	3	4.5	-3.0	27.1026	955.0	1.68	Outcome2	-11.49	4.5	3.05625	Yes	n/a	15.9886749716874	n/a	n/a	n/a	ISIRate	Gain
347.172	3.0	0.021	1464.698	75.0	3	0.0	0.0	27.1026	955.0	0.52	Certain	-1.13	1.1	0.0	No	4.0	-2.2277274443186097	2.22	349.392	n/a	GetAnswer	Mixed
349.412	4.0	0.02	1466.938	75.0	3	0.0	0.0	27.1026	955.0	0.52	Certain	-1.13	1.1	0.0	No	n/a	-2.2277274443186097	n/a	n/a	n/a	ShowChoice	Mixed
353.424	1.0	0.012	1470.95	75.0	3	0.0	0.0	27.1026	955.0	0.52	Certain	-1.13	1.1	0.0	No	n/a	-2.2277274443186097	n/a	n/a	n/a	ShowResult	Mixed
354.444	4.979	0.02	1471.97	75.0	3	0.0	0.0	27.1026	955.0	0.52	Certain	-1.13	1.1	0.0	No	n/a	-2.2277274443186097	n/a	n/a	n/a	ISITrial	Mixed
359.442	3.0	0.019	1476.968	76.0	3	7.9	0.0	28.0901	955.0	3.6	Outcome1	7.9	-8.71	0.0	No	2.0	16.611551528878802	1.715	361.157	n/a	GetAnswer	Gain
361.18	4.0	0.023	1478.706	76.0	3	7.9	0.0	28.0901	955.0	3.6	Outcome1	7.9	-8.71	0.0	No	n/a	16.611551528878802	n/a	n/a	n/a	ShowChoice	Gain
365.192	1.0	0.012	1482.718	76.0	3	7.9	0.0	28.0901	955.0	3.6	Outcome1	7.9	-8.71	0.0	No	n/a	16.611551528878802	n/a	n/a	n/a	ShowResult	Gain
366.212	3.931	0.02	1483.738	76.0	3	7.9	0.0	28.0901	955.0	3.6	Outcome1	7.9	-8.71	0.0	No	n/a	16.611551528878802	n/a	n/a	n/a	ISITrial	Gain
370.174	3.0	0.031	1487.7	77.0	3	0.0	0.0	28.0901	955.0	5.0	Certain	-8.69	8.3	4.0	Yes	4.0	16.9864099660249	2.576	372.75	n/a	GetAnswer	Gain
372.765	4.0	0.015	1490.291	77.0	3	0.0	0.0	28.0901	955.0	5.0	Certain	-8.69	8.3	4.0	Yes	n/a	16.9864099660249	n/a	n/a	n/a	ShowChoice	Gain
376.777	1.0	0.012	1494.303	77.0	3	0.0	0.0	28.0901	955.0	5.0	Certain	-8.69	8.3	4.0	Yes	n/a	16.9864099660249	n/a	n/a	n/a	ShowResult	Gain
377.797	7.022	0.02	1495.323	77.0	3	0.0	0.0	28.0901	955.0	5.0	Certain	-8.69	8.3	4.0	Yes	n/a	16.9864099660249	n/a	n/a	n/a	ISITrial	Gain
384.834	4.0	0.015	1502.36	77.0	3	0.0	0.0	28.0901	955.0	5.0	Certain	-8.69	8.3	4.0	Yes	n/a	16.9864099660249	n/a	n/a	n/a	TrialHappPreview	Gain
388.863	4.012	0.029	1506.389	77.0	3	0.0	0.0	28.0901	955.0	5.0	Certain	-8.69	8.3	4.0	Yes	n/a	16.9864099660249	n/a	n/a	556.0	TrialHappiness	Gain
388.864	0.427	n/a	1506.756	77.0	3	0.0	0.0	28.0901	955.0	5.0	Certain	-8.69	8.3	4.0	Yes	n/a	16.9864099660249	n/a	n/a	556.0	TrialHappinessSliderResponse	Gain
392.875	8.0	4.012	1510.401	77.0	3	0.0	0.0	28.0901	955.0	5.0	Certain	-8.69	8.3	4.0	Yes	n/a	16.9864099660249	n/a	n/a	n/a	ISIRate	Gain
400.899	3.0	0.024	1518.425	78.0	3	6.3	-3.0	28.8776	955.0	5.0	Outcome1	6.3	-12.22	0.0	No	2.0	18.5164212910532	2.063	402.962	n/a	GetAnswer	Gain
402.989	4.0	0.027	1520.515	78.0	3	6.3	-3.0	28.8776	955.0	5.0	Outcome1	6.3	-12.22	0.0	No	n/a	18.5164212910532	n/a	n/a	n/a	ShowChoice	Gain
407.001	1.0	0.012	1524.527	78.0	3	6.3	-3.0	28.8776	955.0	5.0	Outcome1	6.3	-12.22	0.0	No	n/a	18.5164212910532	n/a	n/a	n/a	ShowResult	Gain
408.02	2.078	0.019	1525.546	78.0	3	6.3	-3.0	28.8776	955.0	5.0	Outcome1	6.3	-12.22	0.0	No	n/a	18.5164212910532	n/a	n/a	n/a	ISITrial	Gain
410.127	3.0	0.029	1527.653	79.0	3	-9.0	-9.0	27.7526	955.0	1.2	Certain	-19.07	-0.1	2.7295	Yes	4.0	18.9682899207248	2.537	412.664	n/a	GetAnswer	Mixed
412.684	4.0	0.02	1530.21	79.0	3	-9.0	-9.0	27.7526	955.0	1.2	Certain	-19.07	-0.1	2.7295	Yes	n/a	18.9682899207248	n/a	n/a	n/a	ShowChoice	Mixed
416.696	1.0	0.012	1534.222	79.0	3	-9.0	-9.0	27.7526	955.0	1.2	Certain	-19.07	-0.1	2.7295	Yes	n/a	18.9682899207248	n/a	n/a	n/a	ShowResult	Mixed
417.716	3.829	0.02	1535.242	79.0	3	-9.0	-9.0	27.7526	955.0	1.2	Certain	-19.07	-0.1	2.7295	Yes	n/a	18.9682899207248	n/a	n/a	n/a	ISITrial	Mixed
421.561	2.73	0.016	1539.087	79.0	3	-9.0	-9.0	27.7526	955.0	1.2	Certain	-19.07	-0.1	2.7295	Yes	n/a	18.9682899207248	n/a	n/a	n/a	TrialHappPreview	Mixed
424.319	4.012	0.028	1541.845	79.0	3	-9.0	-9.0	27.7526	955.0	1.2	Certain	-19.07	-0.1	2.7295	Yes	n/a	18.9682899207248	n/a	n/a	512.0	TrialHappiness	Mixed
424.32	0.0	n/a	1541.846	79.0	3	-9.0	-9.0	27.7526	955.0	1.2	Certain	-19.07	-0.1	2.7295	Yes	n/a	18.9682899207248	n/a	n/a	512.0	TrialHappinessSliderResponse	Mixed
428.331	2.918	4.012	1545.857	79.0	3	-9.0	-9.0	27.7526	955.0	1.2	Certain	-19.07	-0.1	2.7295	Yes	n/a	18.9682899207248	n/a	n/a	n/a	ISIRate	Mixed
431.273	3.0	0.024	1548.799	80.0	3	6.7	-3.0	28.5901	955.0	1.82	Outcome2	-13.47	6.7	0.0	No	2.0	20.167610419026	2.227	433.5	n/a	GetAnswer	Gain
433.513	4.0	0.013	1551.039	80.0	3	6.7	-3.0	28.5901	955.0	1.82	Outcome2	-13.47	6.7	0.0	No	n/a	20.167610419026	n/a	n/a	n/a	ShowChoice	Gain
437.525	1.0	0.012	1555.051	80.0	3	6.7	-3.0	28.5901	955.0	1.82	Outcome2	-13.47	6.7	0.0	No	n/a	20.167610419026	n/a	n/a	n/a	ShowResult	Gain
438.545	3.336	0.02	1556.071	80.0	3	6.7	-3.0	28.5901	955.0	1.82	Outcome2	-13.47	6.7	0.0	No	n/a	20.167610419026	n/a	n/a	n/a	ISITrial	Gain
441.905	3.0	0.024	1559.431	81.0	3	0.0	0.0	28.5901	955.0	3.6	Certain	-10.77	9.9	3.92375	Yes	4.0	20.669309173272897	2.143	444.048	n/a	GetAnswer	Gain
444.061	4.0	0.013	1561.587	81.0	3	0.0	0.0	28.5901	955.0	3.6	Certain	-10.77	9.9	3.92375	Yes	n/a	20.669309173272897	n/a	n/a	n/a	ShowChoice	Gain
448.073	1.0	0.012	1565.599	81.0	3	0.0	0.0	28.5901	955.0	3.6	Certain	-10.77	9.9	3.92375	Yes	n/a	20.669309173272897	n/a	n/a	n/a	ShowResult	Gain
449.093	3.919	0.02	1566.619	81.0	3	0.0	0.0	28.5901	955.0	3.6	Certain	-10.77	9.9	3.92375	Yes	n/a	20.669309173272897	n/a	n/a	n/a	ISITrial	Gain
453.038	3.924	0.026	1570.564	81.0	3	0.0	0.0	28.5901	955.0	3.6	Certain	-10.77	9.9	3.92375	Yes	n/a	20.669309173272897	n/a	n/a	n/a	TrialHappPreview	Gain
456.983	4.012	0.021	1574.509	81.0	3	0.0	0.0	28.5901	955.0	3.6	Certain	-10.77	9.9	3.92375	Yes	n/a	20.669309173272897	n/a	n/a	596.0	TrialHappiness	Gain
456.984	1.962	n/a	1574.775	81.0	3	0.0	0.0	28.5901	955.0	3.6	Certain	-10.77	9.9	3.92375	Yes	n/a	20.669309173272897	n/a	n/a	596.0	TrialHappinessSliderResponse	Gain
460.995	7.695	4.012	1578.521	81.0	3	0.0	0.0	28.5901	955.0	3.6	Certain	-10.77	9.9	3.92375	Yes	n/a	20.669309173272897	n/a	n/a	n/a	ISIRate	Gain
468.719	3.0	0.029	1586.245	n/a	3	n/a	n/a	n/a	n/a	n/a	n/a	n/a	n/a	n/a	n/a	n/a	n/a	n/a	n/a	n/a	CurrentEarnings	n/a
471.744	-0.001	0.025	1589.27	n/a	3	n/a	n/a	n/a	n/a	n/a	n/a	n/a	n/a	n/a	n/a	{SPACE}	n/a	2.868	474.612	n/a	Goodbye	n/a
