onset	duration	onset_delay	onset_unadjusted	trial_number	block	amount_change	certain_amount	current_amount	mood_target	multiplier	outcome	outcome1_amount	outcome2_amount	question_duration	rating	response	rpe	rt	rt_time	slider_response	trial_phase	trial_type
-33.753	-0.001	0.036	23.938	n/a	0	n/a	n/a	n/a	n/a	n/a	n/a	n/a	n/a	n/a	n/a	{SPACE}	n/a	3.817	-29.936	n/a	Welcome	n/a
-29.906	5.0	0.03	27.785	n/a	0	n/a	n/a	n/a	n/a	n/a	n/a	n/a	n/a	n/a	n/a	n/a	n/a	n/a	n/a	n/a	LifeHappyPreview	n/a
-24.808	3.503	0.098	32.883	n/a	0	n/a	n/a	n/a	n/a	n/a	n/a	n/a	n/a	n/a	n/a	n/a	n/a	n/a	n/a	340.0	LifeHappiness	n/a
-24.807	2.311	n/a	34.076	n/a	0	n/a	n/a	n/a	n/a	n/a	n/a	n/a	n/a	n/a	n/a	n/a	n/a	n/a	n/a	340.0	LifeHappinessSliderResponse	n/a
-11.451	4.0	0.021	46.24	n/a	0	n/a	n/a	n/a	n/a	n/a	n/a	n/a	n/a	n/a	n/a	n/a	n/a	n/a	n/a	n/a	BlockHappyPreview	n/a
-7.439	2.798	0.012	50.252	n/a	0	n/a	n/a	n/a	n/a	n/a	n/a	n/a	n/a	n/a	n/a	n/a	n/a	n/a	n/a	580.0	BlockStartHappiness	n/a
-7.439	2.405	n/a	50.645	n/a	0	n/a	n/a	n/a	n/a	n/a	n/a	n/a	n/a	n/a	n/a	n/a	n/a	n/a	n/a	580.0	BlockStartHappinessSliderResponse	n/a
-0.602	-0.001	0.023	57.089	n/a	0	n/a	n/a	n/a	n/a	n/a	n/a	n/a	n/a	n/a	n/a	5.0	n/a	0.58	-0.022	n/a	ScanWait	n/a
0.0	10.0	0.022	57.691	n/a	1	n/a	n/a	n/a	n/a	n/a	n/a	n/a	n/a	n/a	n/a	n/a	n/a	n/a	n/a	n/a	GetReady	n/a
10.03	3.0	0.03	67.721	1.0	1	-0.04	-0.04	9.995	955.0	5.0	Certain	-0.07	6.3	0.0	No	4.0	6.37032842582106	1.697	11.727	n/a	GetAnswer	Gain
11.751	4.0	0.024	69.442	1.0	1	-0.04	-0.04	9.995	955.0	5.0	Certain	-0.07	6.3	0.0	No	n/a	6.37032842582106	n/a	n/a	n/a	ShowChoice	Gain
15.763	1.0	0.012	73.454	1.0	1	-0.04	-0.04	9.995	955.0	5.0	Certain	-0.07	6.3	0.0	No	n/a	6.37032842582106	n/a	n/a	n/a	ShowResult	Gain
16.783	2.431	0.02	74.474	1.0	1	-0.04	-0.04	9.995	955.0	5.0	Certain	-0.07	6.3	0.0	No	n/a	6.37032842582106	n/a	n/a	n/a	ISITrial	Gain
19.241	3.0	0.027	76.932	2.0	1	2.9	0.0	10.3575	955.0	0.4	Outcome2	-3.9	2.9	0.0	No	2.0	6.7950169875424695	1.789	21.03	n/a	GetAnswer	Mixed
21.046	4.0	0.016	78.737	2.0	1	2.9	0.0	10.3575	955.0	0.4	Outcome2	-3.9	2.9	0.0	No	n/a	6.7950169875424695	n/a	n/a	n/a	ShowChoice	Mixed
25.075	1.0	0.029	82.766	2.0	1	2.9	0.0	10.3575	955.0	0.4	Outcome2	-3.9	2.9	0.0	No	n/a	6.7950169875424695	n/a	n/a	n/a	ShowResult	Mixed
26.094	4.568	0.019	83.785	2.0	1	2.9	0.0	10.3575	955.0	0.4	Outcome2	-3.9	2.9	0.0	No	n/a	6.7950169875424695	n/a	n/a	n/a	ISITrial	Mixed
30.691	3.0	0.029	88.382	3.0	1	12.1	2.44	11.87	955.0	4.2	Outcome1	12.1	4.88	2.868	Yes	2.0	7.219705549263869	1.177	31.868	n/a	GetAnswer	Loss
31.895	4.0	0.027	89.586	3.0	1	12.1	2.44	11.87	955.0	4.2	Outcome1	12.1	4.88	2.868	Yes	n/a	7.219705549263869	n/a	n/a	n/a	ShowChoice	Loss
35.924	1.0	0.029	93.615	3.0	1	12.1	2.44	11.87	955.0	4.2	Outcome1	12.1	4.88	2.868	Yes	n/a	7.219705549263869	n/a	n/a	n/a	ShowResult	Loss
36.943	3.243	0.019	94.634	3.0	1	12.1	2.44	11.87	955.0	4.2	Outcome1	12.1	4.88	2.868	Yes	n/a	7.219705549263869	n/a	n/a	n/a	ISITrial	Loss
40.203	2.868	0.017	97.894	3.0	1	12.1	2.44	11.87	955.0	4.2	Outcome1	12.1	4.88	2.868	Yes	n/a	7.219705549263869	n/a	n/a	n/a	TrialHappPreview	Loss
43.095	4.029	0.024	100.786	3.0	1	12.1	2.44	11.87	955.0	4.2	Outcome1	12.1	4.88	2.868	Yes	n/a	7.219705549263869	n/a	n/a	648.0	TrialHappiness	Loss
43.096	0.423	n/a	101.423	3.0	1	12.1	2.44	11.87	955.0	4.2	Outcome1	12.1	4.88	2.868	Yes	n/a	7.219705549263869	n/a	n/a	648.0	TrialHappinessSliderResponse	Loss
47.124	3.472	4.029	104.815	3.0	1	12.1	2.44	11.87	955.0	4.2	Outcome1	12.1	4.88	2.868	Yes	n/a	7.219705549263869	n/a	n/a	n/a	ISIRate	Loss
50.618	3.0	0.022	108.309	4.0	1	5.7	2.0	12.5825	955.0	3.16	Outcome1	5.7	-0.79	0.0	No	2.0	6.489241223103059	1.277	51.895	n/a	GetAnswer	Gain
51.922	4.0	0.027	109.613	4.0	1	5.7	2.0	12.5825	955.0	3.16	Outcome1	5.7	-0.79	0.0	No	n/a	6.489241223103059	n/a	n/a	n/a	ShowChoice	Gain
55.95	1.0	0.028	113.641	4.0	1	5.7	2.0	12.5825	955.0	3.16	Outcome1	5.7	-0.79	0.0	No	n/a	6.489241223103059	n/a	n/a	n/a	ShowResult	Gain
56.97	2.011	0.02	114.661	4.0	1	5.7	2.0	12.5825	955.0	3.16	Outcome1	5.7	-0.79	0.0	No	n/a	6.489241223103059	n/a	n/a	n/a	ISITrial	Gain
59.009	3.0	0.028	116.7	5.0	1	10.52	5.26	13.8975	955.0	3.6	Outcome2	11.9	10.52	2.5825	Yes	2.0	-1.38099282748207	1.495	60.504	n/a	GetAnswer	Loss
60.531	4.0	0.027	118.222	5.0	1	10.52	5.26	13.8975	955.0	3.6	Outcome2	11.9	10.52	2.5825	Yes	n/a	-1.38099282748207	n/a	n/a	n/a	ShowChoice	Loss
64.559	1.0	0.028	122.25	5.0	1	10.52	5.26	13.8975	955.0	3.6	Outcome2	11.9	10.52	2.5825	Yes	n/a	-1.38099282748207	n/a	n/a	n/a	ShowResult	Loss
65.579	5.129	0.02	123.27	5.0	1	10.52	5.26	13.8975	955.0	3.6	Outcome2	11.9	10.52	2.5825	Yes	n/a	-1.38099282748207	n/a	n/a	n/a	ISITrial	Loss
70.728	2.582	0.02	128.419	5.0	1	10.52	5.26	13.8975	955.0	3.6	Outcome2	11.9	10.52	2.5825	Yes	n/a	-1.38099282748207	n/a	n/a	n/a	TrialHappPreview	Loss
73.336	4.028	0.026	131.027	5.0	1	10.52	5.26	13.8975	955.0	3.6	Outcome2	11.9	10.52	2.5825	Yes	n/a	-1.38099282748207	n/a	n/a	648.0	TrialHappiness	Loss
73.336	1.242	n/a	132.349	5.0	1	10.52	5.26	13.8975	955.0	3.6	Outcome2	11.9	10.52	2.5825	Yes	n/a	-1.38099282748207	n/a	n/a	648.0	TrialHappinessSliderResponse	Loss
77.364	2.33	4.028	135.055	5.0	1	10.52	5.26	13.8975	955.0	3.6	Outcome2	11.9	10.52	2.5825	Yes	n/a	-1.38099282748207	n/a	n/a	n/a	ISIRate	Loss
79.721	3.0	0.027	137.412	6.0	1	9.89	4.94	15.1337	955.0	2.48	Outcome2	11.3	9.89	0.0	No	2.0	-1.40996602491506	1.195	80.916	n/a	GetAnswer	Loss
80.942	4.0	0.026	138.633	6.0	1	9.89	4.94	15.1337	955.0	2.48	Outcome2	11.3	9.89	0.0	No	n/a	-1.40996602491506	n/a	n/a	n/a	ShowChoice	Loss
84.97	1.0	0.028	142.661	6.0	1	9.89	4.94	15.1337	955.0	2.48	Outcome2	11.3	9.89	0.0	No	n/a	-1.40996602491506	n/a	n/a	n/a	ShowResult	Loss
85.99	6.232	0.02	143.681	6.0	1	9.89	4.94	15.1337	955.0	2.48	Outcome2	11.3	9.89	0.0	No	n/a	-1.40996602491506	n/a	n/a	n/a	ISITrial	Loss
92.242	3.0	0.02	149.933	7.0	1	2.26	1.13	15.4162	955.0	1.0	Outcome1	2.26	3.7	0.0	No	2.0	-1.43893922234806	1.574	93.816	n/a	GetAnswer	Mixed
93.847	4.0	0.031	151.538	7.0	1	2.26	1.13	15.4162	955.0	1.0	Outcome1	2.26	3.7	0.0	No	n/a	-1.43893922234806	n/a	n/a	n/a	ShowChoice	Mixed
97.876	1.0	0.029	155.567	7.0	1	2.26	1.13	15.4162	955.0	1.0	Outcome1	2.26	3.7	0.0	No	n/a	-1.43893922234806	n/a	n/a	n/a	ShowResult	Mixed
98.895	2.305	0.019	156.586	7.0	1	2.26	1.13	15.4162	955.0	1.0	Outcome1	2.26	3.7	0.0	No	n/a	-1.43893922234806	n/a	n/a	n/a	ISITrial	Mixed
101.219	3.0	0.019	158.91	8.0	1	-3.0	-3.0	15.0412	955.0	0.3	Certain	0.7	-7.18	3.1125	Yes	4.0	7.87995469988675	1.57	102.789	n/a	GetAnswer	Mixed
102.807	4.0	0.018	160.498	8.0	1	-3.0	-3.0	15.0412	955.0	0.3	Certain	0.7	-7.18	3.1125	Yes	n/a	7.87995469988675	n/a	n/a	n/a	ShowChoice	Mixed
106.836	1.0	0.029	164.527	8.0	1	-3.0	-3.0	15.0412	955.0	0.3	Certain	0.7	-7.18	3.1125	Yes	n/a	7.87995469988675	n/a	n/a	n/a	ShowResult	Mixed
107.855	3.506	0.019	165.546	8.0	1	-3.0	-3.0	15.0412	955.0	0.3	Certain	0.7	-7.18	3.1125	Yes	n/a	7.87995469988675	n/a	n/a	n/a	ISITrial	Mixed
111.383	3.112	0.022	169.074	8.0	1	-3.0	-3.0	15.0412	955.0	0.3	Certain	0.7	-7.18	3.1125	Yes	n/a	7.87995469988675	n/a	n/a	n/a	TrialHappPreview	Mixed
114.525	4.012	0.03	172.216	8.0	1	-3.0	-3.0	15.0412	955.0	0.3	Certain	0.7	-7.18	3.1125	Yes	2{-2}2{-2}2{-2}2{-2}2{-2}	7.87995469988675	3.187	117.712	600.0	TrialHappiness	Mixed
114.526	2.183	n/a	173.221	8.0	1	-3.0	-3.0	15.0412	955.0	0.3	Certain	0.7	-7.18	3.1125	Yes	n/a	7.87995469988675	n/a	n/a	600.0	TrialHappinessSliderResponse	Mixed
118.537	4.45	4.012	176.228	8.0	1	-3.0	-3.0	15.0412	955.0	0.3	Certain	0.7	-7.18	3.1125	Yes	n/a	7.87995469988675	n/a	n/a	n/a	ISIRate	Mixed
123.017	3.0	0.03	180.708	9.0	1	8.3	-0.37	16.0787	955.0	5.0	Outcome1	8.3	-0.74	0.0	No	2.0	9.04303510758777	1.309	124.326	n/a	GetAnswer	Gain
124.355	4.0	0.029	182.046	9.0	1	8.3	-0.37	16.0787	955.0	5.0	Outcome1	8.3	-0.74	0.0	No	n/a	9.04303510758777	n/a	n/a	n/a	ShowChoice	Gain
128.384	1.0	0.029	186.075	9.0	1	8.3	-0.37	16.0787	955.0	5.0	Outcome1	8.3	-0.74	0.0	No	n/a	9.04303510758777	n/a	n/a	n/a	ShowResult	Gain
129.403	2.0	0.019	187.094	9.0	1	8.3	-0.37	16.0787	955.0	5.0	Outcome1	8.3	-0.74	0.0	No	n/a	9.04303510758777	n/a	n/a	n/a	ISITrial	Gain
131.426	3.0	0.023	189.117	10.0	1	10.1	0.32	17.3412	955.0	4.2	Outcome2	0.65	10.1	4.0	Yes	2.0	9.445073612684029	1.362	132.788	n/a	GetAnswer	Gain
132.813	4.0	0.025	190.504	10.0	1	10.1	0.32	17.3412	955.0	4.2	Outcome2	0.65	10.1	4.0	Yes	n/a	9.445073612684029	n/a	n/a	n/a	ShowChoice	Gain
136.842	1.0	0.029	194.533	10.0	1	10.1	0.32	17.3412	955.0	4.2	Outcome2	0.65	10.1	4.0	Yes	n/a	9.445073612684029	n/a	n/a	n/a	ShowResult	Gain
137.862	2.0	0.02	195.553	10.0	1	10.1	0.32	17.3412	955.0	4.2	Outcome2	0.65	10.1	4.0	Yes	n/a	9.445073612684029	n/a	n/a	n/a	ISITrial	Gain
139.885	4.0	0.023	197.576	10.0	1	10.1	0.32	17.3412	955.0	4.2	Outcome2	0.65	10.1	4.0	Yes	n/a	9.445073612684029	n/a	n/a	n/a	TrialHappPreview	Gain
143.913	4.029	0.028	201.604	10.0	1	10.1	0.32	17.3412	955.0	4.2	Outcome2	0.65	10.1	4.0	Yes	2{-2}2{-2}	9.445073612684029	1.278	145.191	608.0	TrialHappiness	Gain
143.914	0.673	n/a	202.21	10.0	1	10.1	0.32	17.3412	955.0	4.2	Outcome2	0.65	10.1	4.0	Yes	n/a	9.445073612684029	n/a	n/a	608.0	TrialHappinessSliderResponse	Gain
147.942	8.0	4.029	205.633	10.0	1	10.1	0.32	17.3412	955.0	4.2	Outcome2	0.65	10.1	4.0	Yes	n/a	9.445073612684029	n/a	n/a	n/a	ISIRate	Gain
155.966	3.0	0.024	213.657	11.0	1	2.77	1.38	17.6874	955.0	1.68	Outcome2	4.5	2.77	0.0	No	2.0	-1.7262174405436	1.181	157.147	n/a	GetAnswer	Gain
157.17	4.0	0.023	214.861	11.0	1	2.77	1.38	17.6874	955.0	1.68	Outcome2	4.5	2.77	0.0	No	n/a	-1.7262174405436	n/a	n/a	n/a	ShowChoice	Gain
161.198	1.0	0.028	218.889	11.0	1	2.77	1.38	17.6874	955.0	1.68	Outcome2	4.5	2.77	0.0	No	n/a	-1.7262174405436	n/a	n/a	n/a	ShowResult	Gain
162.218	3.324	0.02	219.909	11.0	1	2.77	1.38	17.6874	955.0	1.68	Outcome2	4.5	2.77	0.0	No	n/a	-1.7262174405436	n/a	n/a	n/a	ISITrial	Gain
165.561	3.0	0.019	223.252	12.0	1	-3.0	-3.0	17.3124	955.0	2.0	Certain	-7.8	2.3	2.61875	Yes	4.0	10.1041902604757	1.306	166.867	n/a	GetAnswer	Mixed
166.882	4.0	0.015	224.573	12.0	1	-3.0	-3.0	17.3124	955.0	2.0	Certain	-7.8	2.3	2.61875	Yes	n/a	10.1041902604757	n/a	n/a	n/a	ShowChoice	Mixed
170.911	1.0	0.029	228.602	12.0	1	-3.0	-3.0	17.3124	955.0	2.0	Certain	-7.8	2.3	2.61875	Yes	n/a	10.1041902604757	n/a	n/a	n/a	ShowResult	Mixed
171.93	6.642	0.019	229.621	12.0	1	-3.0	-3.0	17.3124	955.0	2.0	Certain	-7.8	2.3	2.61875	Yes	n/a	10.1041902604757	n/a	n/a	n/a	ISITrial	Mixed
178.6	2.619	0.028	236.291	12.0	1	-3.0	-3.0	17.3124	955.0	2.0	Certain	-7.8	2.3	2.61875	Yes	n/a	10.1041902604757	n/a	n/a	n/a	TrialHappPreview	Mixed
181.242	4.012	0.023	238.933	12.0	1	-3.0	-3.0	17.3124	955.0	2.0	Certain	-7.8	2.3	2.61875	Yes	n/a	10.1041902604757	n/a	n/a	584.0	TrialHappiness	Mixed
181.242	0.884	n/a	239.476	12.0	1	-3.0	-3.0	17.3124	955.0	2.0	Certain	-7.8	2.3	2.61875	Yes	n/a	10.1041902604757	n/a	n/a	584.0	TrialHappinessSliderResponse	Mixed
185.254	2.475	4.012	242.945	12.0	1	-3.0	-3.0	17.3124	955.0	2.0	Certain	-7.8	2.3	2.61875	Yes	n/a	10.1041902604757	n/a	n/a	n/a	ISIRate	Mixed
187.761	3.0	0.032	245.452	13.0	1	0.0	0.0	17.3124	955.0	2.48	Certain	5.3	-5.6	0.0	No	4.0	10.904869762174402	2.343	190.104	n/a	GetAnswer	Gain
190.118	4.0	0.014	247.809	13.0	1	0.0	0.0	17.3124	955.0	2.48	Certain	5.3	-5.6	0.0	No	n/a	10.904869762174402	n/a	n/a	n/a	ShowChoice	Gain
194.147	1.0	0.029	251.838	13.0	1	0.0	0.0	17.3124	955.0	2.48	Certain	5.3	-5.6	0.0	No	n/a	10.904869762174402	n/a	n/a	n/a	ShowResult	Gain
195.167	3.48	0.02	252.858	13.0	1	0.0	0.0	17.3124	955.0	2.48	Certain	5.3	-5.6	0.0	No	n/a	10.904869762174402	n/a	n/a	n/a	ISITrial	Gain
198.677	3.0	0.03	256.368	14.0	1	-1.82	-1.0	17.0849	955.0	1.5	Outcome1	-1.82	0.1	0.0	No	2.0	-1.92412231030578	1.812	200.489	n/a	GetAnswer	Mixed
200.516	4.0	0.027	258.207	14.0	1	-1.82	-1.0	17.0849	955.0	1.5	Outcome1	-1.82	0.1	0.0	No	n/a	-1.92412231030578	n/a	n/a	n/a	ShowChoice	Mixed
204.545	1.0	0.029	262.236	14.0	1	-1.82	-1.0	17.0849	955.0	1.5	Outcome1	-1.82	0.1	0.0	No	n/a	-1.92412231030578	n/a	n/a	n/a	ShowResult	Mixed
205.564	5.019	0.019	263.255	14.0	1	-1.82	-1.0	17.0849	955.0	1.5	Outcome1	-1.82	0.1	0.0	No	n/a	-1.92412231030578	n/a	n/a	n/a	ISITrial	Mixed
210.613	3.0	0.03	268.304	15.0	1	11.5	-0.12	18.5224	955.0	2.8	Outcome1	11.5	-0.25	3.3485	Yes	2.0	11.7451868629672	1.671	212.284	n/a	GetAnswer	Loss
212.301	4.0	0.017	269.992	15.0	1	11.5	-0.12	18.5224	955.0	2.8	Outcome1	11.5	-0.25	3.3485	Yes	n/a	11.7451868629672	n/a	n/a	n/a	ShowChoice	Loss
216.33	1.0	0.029	274.021	15.0	1	11.5	-0.12	18.5224	955.0	2.8	Outcome1	11.5	-0.25	3.3485	Yes	n/a	11.7451868629672	n/a	n/a	n/a	ShowResult	Loss
217.349	7.614	0.019	275.04	15.0	1	11.5	-0.12	18.5224	955.0	2.8	Outcome1	11.5	-0.25	3.3485	Yes	n/a	11.7451868629672	n/a	n/a	n/a	ISITrial	Loss
224.989	3.348	0.026	282.68	15.0	1	11.5	-0.12	18.5224	955.0	2.8	Outcome1	11.5	-0.25	3.3485	Yes	n/a	11.7451868629672	n/a	n/a	n/a	TrialHappPreview	Loss
228.366	4.028	0.029	286.057	15.0	1	11.5	-0.12	18.5224	955.0	2.8	Outcome1	11.5	-0.25	3.3485	Yes	n/a	11.7451868629672	n/a	n/a	552.0	TrialHappiness	Loss
228.366	2.008	n/a	286.981	15.0	1	11.5	-0.12	18.5224	955.0	2.8	Outcome1	11.5	-0.25	3.3485	Yes	n/a	11.7451868629672	n/a	n/a	552.0	TrialHappinessSliderResponse	Loss
232.394	5.394	4.028	290.085	15.0	1	11.5	-0.12	18.5224	955.0	2.8	Outcome1	11.5	-0.25	3.3485	Yes	n/a	11.7451868629672	n/a	n/a	n/a	ISIRate	Loss
237.811	3.0	0.023	295.502	16.0	1	5.38	2.69	19.1949	955.0	2.8	Outcome1	5.38	7.5	0.0	No	2.0	-2.1240090600226496	1.186	238.997	n/a	GetAnswer	Gain
239.014	4.0	0.017	296.705	16.0	1	5.38	2.69	19.1949	955.0	2.8	Outcome1	5.38	7.5	0.0	No	n/a	-2.1240090600226496	n/a	n/a	n/a	ShowChoice	Gain
243.026	1.0	0.012	300.717	16.0	1	5.38	2.69	19.1949	955.0	2.8	Outcome1	5.38	7.5	0.0	No	n/a	-2.1240090600226496	n/a	n/a	n/a	ShowResult	Gain
244.046	3.008	0.02	301.737	16.0	1	5.38	2.69	19.1949	955.0	2.8	Outcome1	5.38	7.5	0.0	No	n/a	-2.1240090600226496	n/a	n/a	n/a	ISITrial	Gain
247.072	3.0	0.018	304.763	17.0	1	10.7	-1.24	20.5324	955.0	1.82	Outcome2	-2.47	10.7	3.0415	Yes	2.0	13.1653454133635	1.46	248.532	n/a	GetAnswer	Loss
248.559	4.0	0.027	306.25	17.0	1	10.7	-1.24	20.5324	955.0	1.82	Outcome2	-2.47	10.7	3.0415	Yes	n/a	13.1653454133635	n/a	n/a	n/a	ShowChoice	Loss
252.588	1.0	0.029	310.279	17.0	1	10.7	-1.24	20.5324	955.0	1.82	Outcome2	-2.47	10.7	3.0415	Yes	n/a	13.1653454133635	n/a	n/a	n/a	ShowResult	Loss
253.608	3.566	0.02	311.299	17.0	1	10.7	-1.24	20.5324	955.0	1.82	Outcome2	-2.47	10.7	3.0415	Yes	n/a	13.1653454133635	n/a	n/a	n/a	ISITrial	Loss
257.202	3.042	0.028	314.893	17.0	1	10.7	-1.24	20.5324	955.0	1.82	Outcome2	-2.47	10.7	3.0415	Yes	n/a	13.1653454133635	n/a	n/a	n/a	TrialHappPreview	Loss
260.261	4.029	0.017	317.952	17.0	1	10.7	-1.24	20.5324	955.0	1.82	Outcome2	-2.47	10.7	3.0415	Yes	n/a	13.1653454133635	n/a	n/a	568.0	TrialHappiness	Loss
260.262	0.642	n/a	318.355	17.0	1	10.7	-1.24	20.5324	955.0	1.82	Outcome2	-2.47	10.7	3.0415	Yes	n/a	13.1653454133635	n/a	n/a	568.0	TrialHappinessSliderResponse	Loss
264.29	4.166	4.029	321.981	17.0	1	10.7	-1.24	20.5324	955.0	1.82	Outcome2	-2.47	10.7	3.0415	Yes	n/a	13.1653454133635	n/a	n/a	n/a	ISIRate	Loss
268.486	3.0	0.03	326.177	18.0	1	1.76	0.88	20.7524	955.0	1.2	Outcome1	1.76	3.9	0.0	No	2.0	-2.13514533786334	1.692	270.178	n/a	GetAnswer	Mixed
270.208	4.0	0.03	327.899	18.0	1	1.76	0.88	20.7524	955.0	1.2	Outcome1	1.76	3.9	0.0	No	n/a	-2.13514533786334	n/a	n/a	n/a	ShowChoice	Mixed
274.236	1.0	0.028	331.927	18.0	1	1.76	0.88	20.7524	955.0	1.2	Outcome1	1.76	3.9	0.0	No	n/a	-2.13514533786334	n/a	n/a	n/a	ShowResult	Mixed
275.256	6.787	0.02	332.947	18.0	1	1.76	0.88	20.7524	955.0	1.2	Outcome1	1.76	3.9	0.0	No	n/a	-2.13514533786334	n/a	n/a	n/a	ISITrial	Mixed
282.076	3.0	0.033	339.767	19.0	1	-5.0	-5.0	20.1274	955.0	1.2	Certain	-11.89	1.9	0.0	No	4.0	13.7882219705549	1.917	283.993	n/a	GetAnswer	Mixed
284.015	4.0	0.022	341.706	19.0	1	-5.0	-5.0	20.1274	955.0	1.2	Certain	-11.89	1.9	0.0	No	n/a	13.7882219705549	n/a	n/a	n/a	ShowChoice	Mixed
288.027	1.0	0.012	345.718	19.0	1	-5.0	-5.0	20.1274	955.0	1.2	Certain	-11.89	1.9	0.0	No	n/a	13.7882219705549	n/a	n/a	n/a	ShowResult	Mixed
289.047	2.0	0.02	346.738	19.0	1	-5.0	-5.0	20.1274	955.0	1.2	Certain	-11.89	1.9	0.0	No	n/a	13.7882219705549	n/a	n/a	n/a	ISITrial	Mixed
291.07	3.0	0.023	348.761	20.0	1	9.49	4.74	21.3136	955.0	3.16	Outcome2	11.7	9.49	2.92125	Yes	2.0	-2.2081917704794303	1.523	292.593	n/a	GetAnswer	Loss
292.608	4.0	0.015	350.299	20.0	1	9.49	4.74	21.3136	955.0	3.16	Outcome2	11.7	9.49	2.92125	Yes	n/a	-2.2081917704794303	n/a	n/a	n/a	ShowChoice	Loss
296.637	1.0	0.029	354.328	20.0	1	9.49	4.74	21.3136	955.0	3.16	Outcome2	11.7	9.49	2.92125	Yes	n/a	-2.2081917704794303	n/a	n/a	n/a	ShowResult	Loss
297.656	8.0	0.019	355.347	20.0	1	9.49	4.74	21.3136	955.0	3.16	Outcome2	11.7	9.49	2.92125	Yes	n/a	-2.2081917704794303	n/a	n/a	n/a	ISITrial	Loss
305.68	2.921	0.024	363.371	20.0	1	9.49	4.74	21.3136	955.0	3.16	Outcome2	11.7	9.49	2.92125	Yes	n/a	-2.2081917704794303	n/a	n/a	n/a	TrialHappPreview	Loss
308.622	4.029	0.021	366.313	20.0	1	9.49	4.74	21.3136	955.0	3.16	Outcome2	11.7	9.49	2.92125	Yes	2{-2}2{-2}2{-2}2{-2}	-2.2081917704794303	3.151	311.773	656.0	TrialHappiness	Loss
308.623	2.706	n/a	366.759	20.0	1	9.49	4.74	21.3136	955.0	3.16	Outcome2	11.7	9.49	2.92125	Yes	n/a	-2.2081917704794303	n/a	n/a	656.0	TrialHappinessSliderResponse	Loss
312.651	3.685	4.029	370.342	20.0	1	9.49	4.74	21.3136	955.0	3.16	Outcome2	11.7	9.49	2.92125	Yes	n/a	-2.2081917704794303	n/a	n/a	n/a	ISIRate	Loss
316.362	3.0	0.026	374.053	21.0	1	-5.0	-5.0	20.6886	955.0	0.82	Certain	-11.67	1.5	0.0	No	4.0	13.169875424688598	1.294	317.656	n/a	GetAnswer	Mixed
317.683	4.0	0.027	375.374	21.0	1	-5.0	-5.0	20.6886	955.0	0.82	Certain	-11.67	1.5	0.0	No	n/a	13.169875424688598	n/a	n/a	n/a	ShowChoice	Mixed
321.712	1.0	0.029	379.403	21.0	1	-5.0	-5.0	20.6886	955.0	0.82	Certain	-11.67	1.5	0.0	No	n/a	13.169875424688598	n/a	n/a	n/a	ShowResult	Mixed
322.731	3.555	0.019	380.422	21.0	1	-5.0	-5.0	20.6886	955.0	0.82	Certain	-11.67	1.5	0.0	No	n/a	13.169875424688598	n/a	n/a	n/a	ISITrial	Mixed
326.309	3.0	0.023	384.0	22.0	1	9.18	4.59	21.8361	955.0	2.22	Outcome1	9.18	11.1	3.2195	Yes	2.0	-1.91581728954322	0.93	327.239	n/a	GetAnswer	Loss
327.261	4.0	0.022	384.952	22.0	1	9.18	4.59	21.8361	955.0	2.22	Outcome1	9.18	11.1	3.2195	Yes	n/a	-1.91581728954322	n/a	n/a	n/a	ShowChoice	Loss
331.29	1.0	0.029	388.981	22.0	1	9.18	4.59	21.8361	955.0	2.22	Outcome1	9.18	11.1	3.2195	Yes	n/a	-1.91581728954322	n/a	n/a	n/a	ShowResult	Loss
332.31	6.793	0.02	390.001	22.0	1	9.18	4.59	21.8361	955.0	2.22	Outcome1	9.18	11.1	3.2195	Yes	n/a	-1.91581728954322	n/a	n/a	n/a	ISITrial	Loss
339.13	3.22	0.027	396.821	22.0	1	9.18	4.59	21.8361	955.0	2.22	Outcome1	9.18	11.1	3.2195	Yes	n/a	-1.91581728954322	n/a	n/a	n/a	TrialHappPreview	Loss
342.373	4.029	0.023	400.064	22.0	1	9.18	4.59	21.8361	955.0	2.22	Outcome1	9.18	11.1	3.2195	Yes	n/a	-1.91581728954322	n/a	n/a	624.0	TrialHappiness	Loss
342.374	0.786	n/a	400.806	22.0	1	9.18	4.59	21.8361	955.0	2.22	Outcome1	9.18	11.1	3.2195	Yes	n/a	-1.91581728954322	n/a	n/a	624.0	TrialHappinessSliderResponse	Loss
346.402	4.878	4.029	404.093	22.0	1	9.18	4.59	21.8361	955.0	2.22	Outcome1	9.18	11.1	3.2195	Yes	n/a	-1.91581728954322	n/a	n/a	n/a	ISIRate	Loss
351.3	3.0	0.02	408.991	23.0	1	-2.37	-1.0	21.5399	955.0	1.0	Outcome1	-2.37	-0.3	0.0	No	2.0	-2.07389580973952	2.565	353.865	n/a	GetAnswer	Mixed
353.891	4.0	0.026	411.582	23.0	1	-2.37	-1.0	21.5399	955.0	1.0	Outcome1	-2.37	-0.3	0.0	No	n/a	-2.07389580973952	n/a	n/a	n/a	ShowChoice	Mixed
357.903	1.0	0.012	415.594	23.0	1	-2.37	-1.0	21.5399	955.0	1.0	Outcome1	-2.37	-0.3	0.0	No	n/a	-2.07389580973952	n/a	n/a	n/a	ShowResult	Mixed
358.923	8.0	0.02	416.614	23.0	1	-2.37	-1.0	21.5399	955.0	1.0	Outcome1	-2.37	-0.3	0.0	No	n/a	-2.07389580973952	n/a	n/a	n/a	ISITrial	Mixed
366.947	3.0	0.024	424.638	24.0	1	2.19	1.1	21.8137	955.0	2.0	Outcome1	2.19	4.3	3.255	Yes	2.0	-2.10513401283503	1.413	368.36	n/a	GetAnswer	Mixed
368.384	4.0	0.024	426.075	24.0	1	2.19	1.1	21.8137	955.0	2.0	Outcome1	2.19	4.3	3.255	Yes	n/a	-2.10513401283503	n/a	n/a	n/a	ShowChoice	Mixed
372.413	1.0	0.029	430.104	24.0	1	2.19	1.1	21.8137	955.0	2.0	Outcome1	2.19	4.3	3.255	Yes	n/a	-2.10513401283503	n/a	n/a	n/a	ShowResult	Mixed
373.433	2.0	0.02	431.124	24.0	1	2.19	1.1	21.8137	955.0	2.0	Outcome1	2.19	4.3	3.255	Yes	n/a	-2.10513401283503	n/a	n/a	n/a	ISITrial	Mixed
375.456	3.255	0.023	433.147	24.0	1	2.19	1.1	21.8137	955.0	2.0	Outcome1	2.19	4.3	3.255	Yes	n/a	-2.10513401283503	n/a	n/a	n/a	TrialHappPreview	Mixed
378.732	4.029	0.021	436.423	24.0	1	2.19	1.1	21.8137	955.0	2.0	Outcome1	2.19	4.3	3.255	Yes	2{-2}	-2.10513401283503	2.267	380.999	532.0	TrialHappiness	Mixed
378.733	0.113	n/a	438.578	24.0	1	2.19	1.1	21.8137	955.0	2.0	Outcome1	2.19	4.3	3.255	Yes	n/a	-2.10513401283503	n/a	n/a	532.0	TrialHappinessSliderResponse	Mixed
382.761	5.02	4.029	440.452	24.0	1	2.19	1.1	21.8137	955.0	2.0	Outcome1	2.19	4.3	3.255	Yes	n/a	-2.10513401283503	n/a	n/a	n/a	ISIRate	Mixed
387.809	3.0	0.028	445.5	25.0	1	0.0	0.0	21.8137	955.0	1.68	Certain	8.5	-8.2	0.0	No	4.0	16.703284258210598	1.426	389.235	n/a	GetAnswer	Gain
389.264	4.0	0.029	446.955	25.0	1	0.0	0.0	21.8137	955.0	1.68	Certain	8.5	-8.2	0.0	No	n/a	16.703284258210598	n/a	n/a	n/a	ShowChoice	Gain
393.292	1.0	0.028	450.983	25.0	1	0.0	0.0	21.8137	955.0	1.68	Certain	8.5	-8.2	0.0	No	n/a	16.703284258210598	n/a	n/a	n/a	ShowResult	Gain
394.312	3.749	0.02	452.003	25.0	1	0.0	0.0	21.8137	955.0	1.68	Certain	8.5	-8.2	0.0	No	n/a	16.703284258210598	n/a	n/a	n/a	ISITrial	Gain
398.09	3.0	0.029	455.781	26.0	1	-8.0	-8.0	20.8137	955.0	0.2	Certain	-16.68	0.5	0.0	No	4.0	17.1823329558324	1.801	399.891	n/a	GetAnswer	Mixed
399.912	4.0	0.021	457.603	26.0	1	-8.0	-8.0	20.8137	955.0	0.2	Certain	-16.68	0.5	0.0	No	n/a	17.1823329558324	n/a	n/a	n/a	ShowChoice	Mixed
403.941	1.0	0.029	461.632	26.0	1	-8.0	-8.0	20.8137	955.0	0.2	Certain	-16.68	0.5	0.0	No	n/a	17.1823329558324	n/a	n/a	n/a	ShowResult	Mixed
404.96	7.834	0.019	462.651	26.0	1	-8.0	-8.0	20.8137	955.0	0.2	Certain	-16.68	0.5	0.0	No	n/a	17.1823329558324	n/a	n/a	n/a	ISITrial	Mixed
412.817	3.0	0.023	470.508	27.0	1	-9.0	-9.0	19.6887	955.0	1.2	Certain	-0.1	-17.76	2.54975	Yes	4.0	17.6613816534541	2.178	414.995	n/a	GetAnswer	Mixed
415.024	4.0	0.029	472.715	27.0	1	-9.0	-9.0	19.6887	955.0	1.2	Certain	-0.1	-17.76	2.54975	Yes	n/a	17.6613816534541	n/a	n/a	n/a	ShowChoice	Mixed
419.053	1.0	0.029	476.744	27.0	1	-9.0	-9.0	19.6887	955.0	1.2	Certain	-0.1	-17.76	2.54975	Yes	n/a	17.6613816534541	n/a	n/a	n/a	ShowResult	Mixed
420.072	4.225	0.019	477.763	27.0	1	-9.0	-9.0	19.6887	955.0	1.2	Certain	-0.1	-17.76	2.54975	Yes	n/a	17.6613816534541	n/a	n/a	n/a	ISITrial	Mixed
424.318	2.55	0.021	482.009	27.0	1	-9.0	-9.0	19.6887	955.0	1.2	Certain	-0.1	-17.76	2.54975	Yes	n/a	17.6613816534541	n/a	n/a	n/a	TrialHappPreview	Mixed
426.893	4.028	0.025	484.584	27.0	1	-9.0	-9.0	19.6887	955.0	1.2	Certain	-0.1	-17.76	2.54975	Yes	n/a	17.6613816534541	n/a	n/a	532.0	TrialHappiness	Mixed
426.893	0.145	n/a	487.23	27.0	1	-9.0	-9.0	19.6887	955.0	1.2	Certain	-0.1	-17.76	2.54975	Yes	n/a	17.6613816534541	n/a	n/a	532.0	TrialHappinessSliderResponse	Mixed
430.921	2.199	4.028	488.612	27.0	1	-9.0	-9.0	19.6887	955.0	1.2	Certain	-0.1	-17.76	2.54975	Yes	n/a	17.6613816534541	n/a	n/a	n/a	ISIRate	Mixed
477.829	0.247	n/a	537.152	n/a	1	n/a	n/a	n/a	n/a	n/a	n/a	n/a	n/a	n/a	n/a	n/a	n/a	n/a	n/a	560.0	BlockStartHappinessSliderResponse	n/a
-53.242	-0.001	0.025	490.836	n/a	2	n/a	n/a	n/a	n/a	n/a	n/a	n/a	n/a	n/a	n/a	{SPACE}	n/a	40.651	-12.591	n/a	Rest	n/a
-12.571	4.0	0.02	531.507	n/a	2	n/a	n/a	n/a	n/a	n/a	n/a	n/a	n/a	n/a	n/a	n/a	n/a	n/a	n/a	n/a	BlockHappyPreview	n/a
-8.559	1.879	0.012	535.519	n/a	2	n/a	n/a	n/a	n/a	n/a	n/a	n/a	n/a	n/a	n/a	n/a	n/a	n/a	n/a	560.0	BlockStartHappiness	n/a
-3.059	-0.001	0.028	541.019	n/a	2	n/a	n/a	n/a	n/a	n/a	n/a	n/a	n/a	n/a	n/a	5.0	n/a	3.034	-0.025	n/a	ScanWait	n/a
0.0	10.0	0.025	544.078	n/a	2	n/a	n/a	n/a	n/a	n/a	n/a	n/a	n/a	n/a	n/a	n/a	n/a	n/a	n/a	n/a	GetReady	n/a
10.03	3.0	0.03	554.108	28.0	2	-1.0	-1.0	19.5637	70.0	0.52	Certain	-5.23	3.1	0.0	No	4.0	-8.33333333333333	1.368	11.398	n/a	GetAnswer	Mixed
11.418	4.0	0.02	555.496	28.0	2	-1.0	-1.0	19.5637	70.0	0.52	Certain	-5.23	3.1	0.0	No	n/a	-8.33333333333333	n/a	n/a	n/a	ShowChoice	Mixed
15.43	1.0	0.012	559.508	28.0	2	-1.0	-1.0	19.5637	70.0	0.52	Certain	-5.23	3.1	0.0	No	n/a	-8.33333333333333	n/a	n/a	n/a	ShowResult	Mixed
16.449	3.575	0.019	560.527	28.0	2	-1.0	-1.0	19.5637	70.0	0.52	Certain	-5.23	3.1	0.0	No	n/a	-8.33333333333333	n/a	n/a	n/a	ISITrial	Mixed
20.043	3.0	0.019	564.121	29.0	2	-1.0	-1.0	19.4387	70.0	2.0	Certain	0.08	-1.96	3.529	Yes	4.0	2.03703703703704	1.61	21.653	n/a	GetAnswer	Mixed
21.682	4.0	0.029	565.76	29.0	2	-1.0	-1.0	19.4387	70.0	2.0	Certain	0.08	-1.96	3.529	Yes	n/a	2.03703703703704	n/a	n/a	n/a	ShowChoice	Mixed
25.71	1.0	0.028	569.788	29.0	2	-1.0	-1.0	19.4387	70.0	2.0	Certain	0.08	-1.96	3.529	Yes	n/a	2.03703703703704	n/a	n/a	n/a	ShowResult	Mixed
26.73	3.955	0.02	570.808	29.0	2	-1.0	-1.0	19.4387	70.0	2.0	Certain	0.08	-1.96	3.529	Yes	n/a	2.03703703703704	n/a	n/a	n/a	ISITrial	Mixed
30.709	3.529	0.024	574.787	29.0	2	-1.0	-1.0	19.4387	70.0	2.0	Certain	0.08	-1.96	3.529	Yes	n/a	2.03703703703704	n/a	n/a	n/a	TrialHappPreview	Mixed
34.269	4.012	0.031	578.347	29.0	2	-1.0	-1.0	19.4387	70.0	2.0	Certain	0.08	-1.96	3.529	Yes	n/a	2.03703703703704	n/a	n/a	512.0	TrialHappiness	Mixed
34.27	0.0	n/a	578.348	29.0	2	-1.0	-1.0	19.4387	70.0	2.0	Certain	0.08	-1.96	3.529	Yes	n/a	2.03703703703704	n/a	n/a	512.0	TrialHappinessSliderResponse	Mixed
38.281	6.116	4.012	582.359	29.0	2	-1.0	-1.0	19.4387	70.0	2.0	Certain	0.08	-1.96	3.529	Yes	n/a	2.03703703703704	n/a	n/a	n/a	ISIRate	Mixed
44.416	3.0	0.019	588.494	30.0	2	4.07	2.04	19.9475	70.0	1.82	Outcome1	4.07	12.7	0.0	No	2.0	-8.6281179138322	1.136	45.552	n/a	GetAnswer	Loss
45.57	4.0	0.018	589.648	30.0	2	4.07	2.04	19.9475	70.0	1.82	Outcome1	4.07	12.7	0.0	No	n/a	-8.6281179138322	n/a	n/a	n/a	ShowChoice	Loss
49.599	1.0	0.029	593.677	30.0	2	4.07	2.04	19.9475	70.0	1.82	Outcome1	4.07	12.7	0.0	No	n/a	-8.6281179138322	n/a	n/a	n/a	ShowResult	Loss
50.618	4.453	0.019	594.696	30.0	2	4.07	2.04	19.9475	70.0	1.82	Outcome1	4.07	12.7	0.0	No	n/a	-8.6281179138322	n/a	n/a	n/a	ISITrial	Loss
55.098	3.0	0.027	599.176	31.0	2	-1.0	-1.0	19.8225	70.0	0.82	Certain	-5.63	3.5	2.50325	Yes	4.0	-9.12925170068027	2.176	57.274	n/a	GetAnswer	Mixed
57.288	4.0	0.014	601.366	31.0	2	-1.0	-1.0	19.8225	70.0	0.82	Certain	-5.63	3.5	2.50325	Yes	n/a	-9.12925170068027	n/a	n/a	n/a	ShowChoice	Mixed
61.3	1.0	0.012	605.378	31.0	2	-1.0	-1.0	19.8225	70.0	0.82	Certain	-5.63	3.5	2.50325	Yes	n/a	-9.12925170068027	n/a	n/a	n/a	ShowResult	Mixed
62.32	4.786	0.02	606.398	31.0	2	-1.0	-1.0	19.8225	70.0	0.82	Certain	-5.63	3.5	2.50325	Yes	n/a	-9.12925170068027	n/a	n/a	n/a	ISITrial	Mixed
67.134	2.503	0.028	611.212	31.0	2	-1.0	-1.0	19.8225	70.0	0.82	Certain	-5.63	3.5	2.50325	Yes	n/a	-9.12925170068027	n/a	n/a	n/a	TrialHappPreview	Mixed
69.659	4.028	0.022	613.737	31.0	2	-1.0	-1.0	19.8225	70.0	0.82	Certain	-5.63	3.5	2.50325	Yes	n/a	-9.12925170068027	n/a	n/a	504.0	TrialHappiness	Mixed
69.659	0.165	n/a	615.807	31.0	2	-1.0	-1.0	19.8225	70.0	0.82	Certain	-5.63	3.5	2.50325	Yes	n/a	-9.12925170068027	n/a	n/a	504.0	TrialHappinessSliderResponse	Mixed
73.687	2.013	4.028	617.765	31.0	2	-1.0	-1.0	19.8225	70.0	0.82	Certain	-5.63	3.5	2.50325	Yes	n/a	-9.12925170068027	n/a	n/a	n/a	ISIRate	Mixed
75.727	3.0	0.027	619.805	32.0	2	0.0	0.0	19.8225	70.0	1.5	Certain	4.1	-5.39	0.0	No	4.0	-9.49433106575964	2.315	78.042	n/a	GetAnswer	Mixed
78.067	4.0	0.025	622.145	32.0	2	0.0	0.0	19.8225	70.0	1.5	Certain	4.1	-5.39	0.0	No	n/a	-9.49433106575964	n/a	n/a	n/a	ShowChoice	Mixed
82.096	1.0	0.029	626.174	32.0	2	0.0	0.0	19.8225	70.0	1.5	Certain	4.1	-5.39	0.0	No	n/a	-9.49433106575964	n/a	n/a	n/a	ShowResult	Mixed
83.115	2.0	0.019	627.193	32.0	2	0.0	0.0	19.8225	70.0	1.5	Certain	4.1	-5.39	0.0	No	n/a	-9.49433106575964	n/a	n/a	n/a	ISITrial	Mixed
85.138	3.0	0.023	629.216	33.0	2	0.0	0.0	19.8225	70.0	2.22	Certain	-0.71	1.27	0.0	No	4.0	1.98034769463341	1.842	86.98	n/a	GetAnswer	Gain
87.01	4.0	0.03	631.088	33.0	2	0.0	0.0	19.8225	70.0	2.22	Certain	-0.71	1.27	0.0	No	n/a	1.98034769463341	n/a	n/a	n/a	ShowChoice	Gain
91.022	1.0	0.012	635.1	33.0	2	0.0	0.0	19.8225	70.0	2.22	Certain	-0.71	1.27	0.0	No	n/a	1.98034769463341	n/a	n/a	n/a	ShowResult	Gain
92.042	5.099	0.02	636.12	33.0	2	0.0	0.0	19.8225	70.0	2.22	Certain	-0.71	1.27	0.0	No	n/a	1.98034769463341	n/a	n/a	n/a	ISITrial	Gain
97.174	3.0	0.033	641.252	34.0	2	0.0	0.0	19.8225	70.0	2.0	Certain	4.9	-5.58	3.2315	Yes	4.0	-10.4784580498866	2.184	99.358	n/a	GetAnswer	Gain
99.381	4.0	0.023	643.459	34.0	2	0.0	0.0	19.8225	70.0	2.0	Certain	4.9	-5.58	3.2315	Yes	n/a	-10.4784580498866	n/a	n/a	n/a	ShowChoice	Gain
103.393	1.0	0.012	647.471	34.0	2	0.0	0.0	19.8225	70.0	2.0	Certain	4.9	-5.58	3.2315	Yes	n/a	-10.4784580498866	n/a	n/a	n/a	ShowResult	Gain
104.412	4.784	0.019	648.49	34.0	2	0.0	0.0	19.8225	70.0	2.0	Certain	4.9	-5.58	3.2315	Yes	n/a	-10.4784580498866	n/a	n/a	n/a	ISITrial	Gain
109.21	3.232	0.014	653.288	34.0	2	0.0	0.0	19.8225	70.0	2.0	Certain	4.9	-5.58	3.2315	Yes	n/a	-10.4784580498866	n/a	n/a	n/a	TrialHappPreview	Gain
112.47	4.029	0.028	656.548	34.0	2	0.0	0.0	19.8225	70.0	2.0	Certain	4.9	-5.58	3.2315	Yes	n/a	-10.4784580498866	n/a	n/a	584.0	TrialHappiness	Gain
112.47	1.211	n/a	656.971	34.0	2	0.0	0.0	19.8225	70.0	2.0	Certain	4.9	-5.58	3.2315	Yes	n/a	-10.4784580498866	n/a	n/a	584.0	TrialHappinessSliderResponse	Gain
116.499	4.926	4.029	660.577	34.0	2	0.0	0.0	19.8225	70.0	2.0	Certain	4.9	-5.58	3.2315	Yes	n/a	-10.4784580498866	n/a	n/a	n/a	ISIRate	Gain
121.447	3.0	0.022	665.525	35.0	2	-7.0	-7.0	18.9475	70.0	0.66	Certain	-13.03	-0.7	0.0	No	4.0	-12.331065759637198	1.881	123.328	n/a	GetAnswer	Mixed
123.352	4.0	0.024	667.43	35.0	2	-7.0	-7.0	18.9475	70.0	0.66	Certain	-13.03	-0.7	0.0	No	n/a	-12.331065759637198	n/a	n/a	n/a	ShowChoice	Mixed
127.381	1.0	0.029	671.459	35.0	2	-7.0	-7.0	18.9475	70.0	0.66	Certain	-13.03	-0.7	0.0	No	n/a	-12.331065759637198	n/a	n/a	n/a	ShowResult	Mixed
128.401	2.098	0.02	672.479	35.0	2	-7.0	-7.0	18.9475	70.0	0.66	Certain	-13.03	-0.7	0.0	No	n/a	-12.331065759637198	n/a	n/a	n/a	ISITrial	Mixed
130.524	3.0	0.025	674.602	36.0	2	3.22	2.0	19.35	70.0	2.0	Outcome1	3.22	0.78	3.33575	Yes	2.0	2.4359410430839	2.028	132.552	n/a	GetAnswer	Loss
132.58	4.0	0.028	676.658	36.0	2	3.22	2.0	19.35	70.0	2.0	Outcome1	3.22	0.78	3.33575	Yes	n/a	2.4359410430839	n/a	n/a	n/a	ShowChoice	Loss
136.592	1.0	0.012	680.67	36.0	2	3.22	2.0	19.35	70.0	2.0	Outcome1	3.22	0.78	3.33575	Yes	n/a	2.4359410430839	n/a	n/a	n/a	ShowResult	Loss
137.612	5.156	0.02	681.69	36.0	2	3.22	2.0	19.35	70.0	2.0	Outcome1	3.22	0.78	3.33575	Yes	n/a	2.4359410430839	n/a	n/a	n/a	ISITrial	Loss
142.794	3.336	0.026	686.872	36.0	2	3.22	2.0	19.35	70.0	2.0	Outcome1	3.22	0.78	3.33575	Yes	n/a	2.4359410430839	n/a	n/a	n/a	TrialHappPreview	Loss
146.154	4.029	0.024	690.232	36.0	2	3.22	2.0	19.35	70.0	2.0	Outcome1	3.22	0.78	3.33575	Yes	n/a	2.4359410430839	n/a	n/a	540.0	TrialHappiness	Loss
146.155	1.573	n/a	690.575	36.0	2	3.22	2.0	19.35	70.0	2.0	Outcome1	3.22	0.78	3.33575	Yes	n/a	2.4359410430839	n/a	n/a	540.0	TrialHappinessSliderResponse	Loss
150.183	5.343	4.029	694.261	36.0	2	3.22	2.0	19.35	70.0	2.0	Outcome1	3.22	0.78	3.33575	Yes	n/a	2.4359410430839	n/a	n/a	n/a	ISIRate	Loss
155.549	3.0	0.023	699.627	37.0	2	-7.0	-7.0	18.475	70.0	0.52	Certain	-13.65	-0.9	0.0	No	4.0	-12.7482993197279	1.525	157.074	n/a	GetAnswer	Mixed
157.103	4.0	0.029	701.181	37.0	2	-7.0	-7.0	18.475	70.0	0.52	Certain	-13.65	-0.9	0.0	No	n/a	-12.7482993197279	n/a	n/a	n/a	ShowChoice	Mixed
161.132	1.0	0.029	705.21	37.0	2	-7.0	-7.0	18.475	70.0	0.52	Certain	-13.65	-0.9	0.0	No	n/a	-12.7482993197279	n/a	n/a	n/a	ShowResult	Mixed
162.152	3.598	0.02	706.23	37.0	2	-7.0	-7.0	18.475	70.0	0.52	Certain	-13.65	-0.9	0.0	No	n/a	-12.7482993197279	n/a	n/a	n/a	ISITrial	Mixed
165.779	3.0	0.029	709.857	38.0	2	-1.0	-1.0	18.35	70.0	0.52	Certain	0.28	-2.07	0.0	No	4.0	2.3501511715797405	1.493	167.272	n/a	GetAnswer	Mixed
167.3	4.0	0.028	711.378	38.0	2	-1.0	-1.0	18.35	70.0	0.52	Certain	0.28	-2.07	0.0	No	n/a	2.3501511715797405	n/a	n/a	n/a	ShowChoice	Mixed
171.329	1.0	0.029	715.407	38.0	2	-1.0	-1.0	18.35	70.0	0.52	Certain	0.28	-2.07	0.0	No	n/a	2.3501511715797405	n/a	n/a	n/a	ShowResult	Mixed
172.349	4.787	0.02	716.427	38.0	2	-1.0	-1.0	18.35	70.0	0.52	Certain	0.28	-2.07	0.0	No	n/a	2.3501511715797405	n/a	n/a	n/a	ISITrial	Mixed
177.163	3.0	0.027	721.241	39.0	2	3.42	2.0	18.7775	70.0	3.16	Outcome2	1.03	3.42	2.86425	Yes	2.0	2.39455782312925	1.244	178.407	n/a	GetAnswer	Loss
178.434	4.0	0.027	722.512	39.0	2	3.42	2.0	18.7775	70.0	3.16	Outcome2	1.03	3.42	2.86425	Yes	n/a	2.39455782312925	n/a	n/a	n/a	ShowChoice	Loss
182.462	1.0	0.028	726.54	39.0	2	3.42	2.0	18.7775	70.0	3.16	Outcome2	1.03	3.42	2.86425	Yes	n/a	2.39455782312925	n/a	n/a	n/a	ShowResult	Loss
183.482	2.348	0.02	727.56	39.0	2	3.42	2.0	18.7775	70.0	3.16	Outcome2	1.03	3.42	2.86425	Yes	n/a	2.39455782312925	n/a	n/a	n/a	ISITrial	Loss
185.856	2.864	0.026	729.934	39.0	2	3.42	2.0	18.7775	70.0	3.16	Outcome2	1.03	3.42	2.86425	Yes	n/a	2.39455782312925	n/a	n/a	n/a	TrialHappPreview	Loss
188.748	4.029	0.028	732.826	39.0	2	3.42	2.0	18.7775	70.0	3.16	Outcome2	1.03	3.42	2.86425	Yes	n/a	2.39455782312925	n/a	n/a	536.0	TrialHappiness	Loss
188.749	0.2	n/a	733.286	39.0	2	3.42	2.0	18.7775	70.0	3.16	Outcome2	1.03	3.42	2.86425	Yes	n/a	2.39455782312925	n/a	n/a	536.0	TrialHappinessSliderResponse	Loss
192.777	3.457	4.029	736.855	39.0	2	3.42	2.0	18.7775	70.0	3.16	Outcome2	1.03	3.42	2.86425	Yes	n/a	2.39455782312925	n/a	n/a	n/a	ISIRate	Loss
196.254	3.0	0.02	740.332	40.0	2	2.72	1.0	19.1175	70.0	2.0	Outcome1	2.72	0.3	0.0	No	2.0	2.42271352985639	1.383	197.637	n/a	GetAnswer	Loss
197.658	4.0	0.021	741.736	40.0	2	2.72	1.0	19.1175	70.0	2.0	Outcome1	2.72	0.3	0.0	No	n/a	2.42271352985639	n/a	n/a	n/a	ShowChoice	Loss
201.687	1.0	0.029	745.765	40.0	2	2.72	1.0	19.1175	70.0	2.0	Outcome1	2.72	0.3	0.0	No	n/a	2.42271352985639	n/a	n/a	n/a	ShowResult	Loss
202.706	3.158	0.019	746.784	40.0	2	2.72	1.0	19.1175	70.0	2.0	Outcome1	2.72	0.3	0.0	No	n/a	2.42271352985639	n/a	n/a	n/a	ISITrial	Loss
205.882	3.0	0.018	749.96	41.0	2	-2.31	-1.16	18.8287	70.0	1.68	Outcome2	12.5	-2.31	4.0	Yes	2.0	-14.8072562358277	1.662	207.544	n/a	GetAnswer	Loss
207.571	4.0	0.027	751.649	41.0	2	-2.31	-1.16	18.8287	70.0	1.68	Outcome2	12.5	-2.31	4.0	Yes	n/a	-14.8072562358277	n/a	n/a	n/a	ShowChoice	Loss
211.6	1.0	0.029	755.678	41.0	2	-2.31	-1.16	18.8287	70.0	1.68	Outcome2	12.5	-2.31	4.0	Yes	n/a	-14.8072562358277	n/a	n/a	n/a	ShowResult	Loss
212.619	4.506	0.019	756.697	41.0	2	-2.31	-1.16	18.8287	70.0	1.68	Outcome2	12.5	-2.31	4.0	Yes	n/a	-14.8072562358277	n/a	n/a	n/a	ISITrial	Loss
217.149	4.0	0.024	761.227	41.0	2	-2.31	-1.16	18.8287	70.0	1.68	Outcome2	12.5	-2.31	4.0	Yes	n/a	-14.8072562358277	n/a	n/a	n/a	TrialHappPreview	Loss
221.178	4.029	0.029	765.256	41.0	2	-2.31	-1.16	18.8287	70.0	1.68	Outcome2	12.5	-2.31	4.0	Yes	n/a	-14.8072562358277	n/a	n/a	572.0	TrialHappiness	Loss
221.179	0.543	n/a	765.565	41.0	2	-2.31	-1.16	18.8287	70.0	1.68	Outcome2	12.5	-2.31	4.0	Yes	n/a	-14.8072562358277	n/a	n/a	572.0	TrialHappinessSliderResponse	Loss
225.207	8.0	4.029	769.285	41.0	2	-2.31	-1.16	18.8287	70.0	1.68	Outcome2	12.5	-2.31	4.0	Yes	n/a	-14.8072562358277	n/a	n/a	n/a	ISIRate	Loss
233.231	3.0	0.024	777.309	42.0	2	0.0	0.0	18.8287	70.0	3.6	Certain	1.48	-1.18	0.0	No	4.0	2.6570294784580497	1.729	234.96	n/a	GetAnswer	Gain
234.986	4.0	0.026	779.064	42.0	2	0.0	0.0	18.8287	70.0	3.6	Certain	1.48	-1.18	0.0	No	n/a	2.6570294784580497	n/a	n/a	n/a	ShowChoice	Gain
238.998	1.0	0.012	783.076	42.0	2	0.0	0.0	18.8287	70.0	3.6	Certain	1.48	-1.18	0.0	No	n/a	2.6570294784580497	n/a	n/a	n/a	ShowResult	Gain
240.018	6.248	0.02	784.096	42.0	2	0.0	0.0	18.8287	70.0	3.6	Certain	1.48	-1.18	0.0	No	n/a	2.6570294784580497	n/a	n/a	n/a	ISITrial	Gain
246.287	3.0	0.021	790.365	43.0	2	2.38	1.0	19.1262	70.0	2.8	Outcome2	-0.32	2.38	2.77575	Yes	2.0	2.70445956160242	1.734	248.021	n/a	GetAnswer	Gain
248.042	4.0	0.021	792.12	43.0	2	2.38	1.0	19.1262	70.0	2.8	Outcome2	-0.32	2.38	2.77575	Yes	n/a	2.70445956160242	n/a	n/a	n/a	ShowChoice	Gain
252.054	1.0	0.012	796.132	43.0	2	2.38	1.0	19.1262	70.0	2.8	Outcome2	-0.32	2.38	2.77575	Yes	n/a	2.70445956160242	n/a	n/a	n/a	ShowResult	Gain
253.074	4.596	0.02	797.152	43.0	2	2.38	1.0	19.1262	70.0	2.8	Outcome2	-0.32	2.38	2.77575	Yes	n/a	2.70445956160242	n/a	n/a	n/a	ISITrial	Gain
257.687	2.776	0.017	801.765	43.0	2	2.38	1.0	19.1262	70.0	2.8	Outcome2	-0.32	2.38	2.77575	Yes	n/a	2.70445956160242	n/a	n/a	n/a	TrialHappPreview	Gain
260.496	4.028	0.033	804.574	43.0	2	2.38	1.0	19.1262	70.0	2.8	Outcome2	-0.32	2.38	2.77575	Yes	n/a	2.70445956160242	n/a	n/a	624.0	TrialHappiness	Gain
260.496	1.01	n/a	804.992	43.0	2	2.38	1.0	19.1262	70.0	2.8	Outcome2	-0.32	2.38	2.77575	Yes	n/a	2.70445956160242	n/a	n/a	624.0	TrialHappinessSliderResponse	Gain
264.524	3.103	4.028	808.602	43.0	2	2.38	1.0	19.1262	70.0	2.8	Outcome2	-0.32	2.38	2.77575	Yes	n/a	2.70445956160242	n/a	n/a	n/a	ISIRate	Gain
267.65	3.0	0.023	811.728	44.0	2	-10.0	-10.0	17.8762	70.0	0.4	Certain	-19.07	-1.1	0.0	No	4.0	-17.970521541950102	2.415	270.065	n/a	GetAnswer	Mixed
270.091	4.0	0.026	814.169	44.0	2	-10.0	-10.0	17.8762	70.0	0.4	Certain	-19.07	-1.1	0.0	No	n/a	-17.970521541950102	n/a	n/a	n/a	ShowChoice	Mixed
274.12	1.0	0.029	818.198	44.0	2	-10.0	-10.0	17.8762	70.0	0.4	Certain	-19.07	-1.1	0.0	No	n/a	-17.970521541950102	n/a	n/a	n/a	ShowResult	Mixed
275.14	2.42	0.02	819.218	44.0	2	-10.0	-10.0	17.8762	70.0	0.4	Certain	-19.07	-1.1	0.0	No	n/a	-17.970521541950102	n/a	n/a	n/a	ISITrial	Mixed
277.58	3.0	0.02	821.658	45.0	2	-3.0	-3.0	17.5012	70.0	1.68	Certain	6.5	-12.1	0.0	No	4.0	-18.5986394557823	1.565	279.145	n/a	GetAnswer	Gain
279.168	4.0	0.023	823.246	45.0	2	-3.0	-3.0	17.5012	70.0	1.68	Certain	6.5	-12.1	0.0	No	n/a	-18.5986394557823	n/a	n/a	n/a	ShowChoice	Gain
283.197	1.0	0.029	827.275	45.0	2	-3.0	-3.0	17.5012	70.0	1.68	Certain	6.5	-12.1	0.0	No	n/a	-18.5986394557823	n/a	n/a	n/a	ShowResult	Gain
284.217	3.144	0.02	828.295	45.0	2	-3.0	-3.0	17.5012	70.0	1.68	Certain	6.5	-12.1	0.0	No	n/a	-18.5986394557823	n/a	n/a	n/a	ISITrial	Gain
287.393	3.0	0.032	831.471	46.0	2	-3.0	-3.0	17.1262	70.0	1.82	Certain	6.7	-12.53	3.84125	Yes	4.0	-19.2267573696145	2.008	289.401	n/a	GetAnswer	Gain
289.416	4.0	0.015	833.494	46.0	2	-3.0	-3.0	17.1262	70.0	1.82	Certain	6.7	-12.53	3.84125	Yes	n/a	-19.2267573696145	n/a	n/a	n/a	ShowChoice	Gain
293.444	1.0	0.028	837.522	46.0	2	-3.0	-3.0	17.1262	70.0	1.82	Certain	6.7	-12.53	3.84125	Yes	n/a	-19.2267573696145	n/a	n/a	n/a	ShowResult	Gain
294.464	2.246	0.02	838.542	46.0	2	-3.0	-3.0	17.1262	70.0	1.82	Certain	6.7	-12.53	3.84125	Yes	n/a	-19.2267573696145	n/a	n/a	n/a	ISITrial	Gain
296.737	3.841	0.027	840.815	46.0	2	-3.0	-3.0	17.1262	70.0	1.82	Certain	6.7	-12.53	3.84125	Yes	n/a	-19.2267573696145	n/a	n/a	n/a	TrialHappPreview	Gain
300.599	4.029	0.021	844.677	46.0	2	-3.0	-3.0	17.1262	70.0	1.82	Certain	6.7	-12.53	3.84125	Yes	4{-4}2{-2}2{-2}	-19.2267573696145	1.664	302.263	484.0	TrialHappiness	Gain
300.6	1.283	n/a	845.059	46.0	2	-3.0	-3.0	17.1262	70.0	1.82	Certain	6.7	-12.53	3.84125	Yes	n/a	-19.2267573696145	n/a	n/a	484.0	TrialHappinessSliderResponse	Gain
304.628	7.365	4.029	848.706	46.0	2	-3.0	-3.0	17.1262	70.0	1.82	Certain	6.7	-12.53	3.84125	Yes	n/a	-19.2267573696145	n/a	n/a	n/a	ISIRate	Gain
312.016	3.0	0.023	856.094	47.0	2	1.92	0.0	17.3662	70.0	3.16	Outcome1	1.92	-0.63	0.0	No	2.0	2.5513983371126203	1.427	313.443	n/a	GetAnswer	Gain
313.471	4.0	0.028	857.549	47.0	2	1.92	0.0	17.3662	70.0	3.16	Outcome1	1.92	-0.63	0.0	No	n/a	2.5513983371126203	n/a	n/a	n/a	ShowChoice	Gain
317.5	1.0	0.029	861.578	47.0	2	1.92	0.0	17.3662	70.0	3.16	Outcome1	1.92	-0.63	0.0	No	n/a	2.5513983371126203	n/a	n/a	n/a	ShowResult	Gain
318.519	2.0	0.019	862.597	47.0	2	1.92	0.0	17.3662	70.0	3.16	Outcome1	1.92	-0.63	0.0	No	n/a	2.5513983371126203	n/a	n/a	n/a	ISITrial	Gain
320.542	3.0	0.023	864.62	48.0	2	1.78	0.0	17.5887	70.0	2.22	Outcome1	1.78	-0.81	2.83175	Yes	2.0	2.59051398337113	2.394	322.936	n/a	GetAnswer	Gain
322.966	4.0	0.03	867.044	48.0	2	1.78	0.0	17.5887	70.0	2.22	Outcome1	1.78	-0.81	2.83175	Yes	n/a	2.59051398337113	n/a	n/a	n/a	ShowChoice	Gain
326.995	1.0	0.029	871.073	48.0	2	1.78	0.0	17.5887	70.0	2.22	Outcome1	1.78	-0.81	2.83175	Yes	n/a	2.59051398337113	n/a	n/a	n/a	ShowResult	Gain
328.014	3.692	0.019	872.092	48.0	2	1.78	0.0	17.5887	70.0	2.22	Outcome1	1.78	-0.81	2.83175	Yes	n/a	2.59051398337113	n/a	n/a	n/a	ISITrial	Gain
331.725	2.832	0.019	875.803	48.0	2	1.78	0.0	17.5887	70.0	2.22	Outcome1	1.78	-0.81	2.83175	Yes	n/a	2.59051398337113	n/a	n/a	n/a	TrialHappPreview	Gain
334.584	4.012	0.027	878.662	48.0	2	1.78	0.0	17.5887	70.0	2.22	Outcome1	1.78	-0.81	2.83175	Yes	n/a	2.59051398337113	n/a	n/a	552.0	TrialHappiness	Gain
334.585	0.665	n/a	879.328	48.0	2	1.78	0.0	17.5887	70.0	2.22	Outcome1	1.78	-0.81	2.83175	Yes	n/a	2.59051398337113	n/a	n/a	552.0	TrialHappinessSliderResponse	Gain
338.596	3.327	4.012	882.674	48.0	2	1.78	0.0	17.5887	70.0	2.22	Outcome1	1.78	-0.81	2.83175	Yes	n/a	2.59051398337113	n/a	n/a	n/a	ISIRate	Gain
341.956	3.0	0.033	886.034	49.0	2	-1.0	-1.0	17.4637	70.0	2.0	Certain	8.9	-10.67	0.0	No	4.0	-19.5691609977324	1.68	343.636	n/a	GetAnswer	Gain
343.661	4.0	0.025	887.739	49.0	2	-1.0	-1.0	17.4637	70.0	2.0	Certain	8.9	-10.67	0.0	No	n/a	-19.5691609977324	n/a	n/a	n/a	ShowChoice	Gain
347.673	1.0	0.012	891.751	49.0	2	-1.0	-1.0	17.4637	70.0	2.0	Certain	8.9	-10.67	0.0	No	n/a	-19.5691609977324	n/a	n/a	n/a	ShowResult	Gain
348.693	8.0	0.02	892.771	49.0	2	-1.0	-1.0	17.4637	70.0	2.0	Certain	8.9	-10.67	0.0	No	n/a	-19.5691609977324	n/a	n/a	n/a	ISITrial	Gain
356.717	3.0	0.024	900.795	50.0	2	1.72	0.0	17.6787	70.0	2.0	Outcome2	-1.23	1.72	3.54725	Yes	2.0	2.9514361300075604	1.802	358.519	n/a	GetAnswer	Gain
358.539	4.0	0.02	902.617	50.0	2	1.72	0.0	17.6787	70.0	2.0	Outcome2	-1.23	1.72	3.54725	Yes	n/a	2.9514361300075604	n/a	n/a	n/a	ShowChoice	Gain
362.568	1.0	0.029	906.646	50.0	2	1.72	0.0	17.6787	70.0	2.0	Outcome2	-1.23	1.72	3.54725	Yes	n/a	2.9514361300075604	n/a	n/a	n/a	ShowResult	Gain
363.587	7.537	0.019	907.665	50.0	2	1.72	0.0	17.6787	70.0	2.0	Outcome2	-1.23	1.72	3.54725	Yes	n/a	2.9514361300075604	n/a	n/a	n/a	ISITrial	Gain
371.143	3.547	0.019	915.221	50.0	2	1.72	0.0	17.6787	70.0	2.0	Outcome2	-1.23	1.72	3.54725	Yes	n/a	2.9514361300075604	n/a	n/a	n/a	TrialHappPreview	Gain
374.721	4.028	0.031	918.799	50.0	2	1.72	0.0	17.6787	70.0	2.0	Outcome2	-1.23	1.72	3.54725	Yes	n/a	2.9514361300075604	n/a	n/a	568.0	TrialHappiness	Gain
374.721	0.699	n/a	921.033	50.0	2	1.72	0.0	17.6787	70.0	2.0	Outcome2	-1.23	1.72	3.54725	Yes	n/a	2.9514361300075604	n/a	n/a	568.0	TrialHappinessSliderResponse	Gain
378.749	6.189	4.028	922.827	50.0	2	1.72	0.0	17.6787	70.0	2.0	Outcome2	-1.23	1.72	3.54725	Yes	n/a	2.9514361300075604	n/a	n/a	n/a	ISIRate	Gain
384.968	3.0	0.03	929.046	51.0	2	-12.0	-12.0	16.1787	70.0	0.2	Certain	-1.5	-22.43	0.0	No	4.0	-20.934240362811803	1.873	386.841	n/a	GetAnswer	Mixed
386.857	4.0	0.016	930.935	51.0	2	-12.0	-12.0	16.1787	70.0	0.2	Certain	-1.5	-22.43	0.0	No	n/a	-20.934240362811803	n/a	n/a	n/a	ShowChoice	Mixed
390.886	1.0	0.029	934.964	51.0	2	-12.0	-12.0	16.1787	70.0	0.2	Certain	-1.5	-22.43	0.0	No	n/a	-20.934240362811803	n/a	n/a	n/a	ShowResult	Mixed
391.905	5.508	0.019	935.983	51.0	2	-12.0	-12.0	16.1787	70.0	0.2	Certain	-1.5	-22.43	0.0	No	n/a	-20.934240362811803	n/a	n/a	n/a	ISITrial	Mixed
397.439	3.0	0.026	941.517	52.0	2	-2.0	-2.0	15.9287	70.0	4.2	Certain	8.1	-13.4	0.0	No	4.0	-21.4988662131519	2.63	400.069	n/a	GetAnswer	Gain
400.096	4.0	0.027	944.174	52.0	2	-2.0	-2.0	15.9287	70.0	4.2	Certain	8.1	-13.4	0.0	No	n/a	-21.4988662131519	n/a	n/a	n/a	ShowChoice	Gain
404.108	1.0	0.012	948.186	52.0	2	-2.0	-2.0	15.9287	70.0	4.2	Certain	8.1	-13.4	0.0	No	n/a	-21.4988662131519	n/a	n/a	n/a	ShowResult	Gain
405.128	5.913	0.02	949.206	52.0	2	-2.0	-2.0	15.9287	70.0	4.2	Certain	8.1	-13.4	0.0	No	n/a	-21.4988662131519	n/a	n/a	n/a	ISITrial	Gain
411.063	3.0	0.022	955.141	53.0	2	-8.0	-8.0	14.9287	70.0	0.3	Certain	2.7	-19.36	2.99675	Yes	4.0	-22.063492063492102	2.522	413.585	n/a	GetAnswer	Mixed
413.604	4.0	0.018	957.682	53.0	2	-8.0	-8.0	14.9287	70.0	0.3	Certain	2.7	-19.36	2.99675	Yes	n/a	-22.063492063492102	n/a	n/a	n/a	ShowChoice	Mixed
417.632	1.0	0.028	961.71	53.0	2	-8.0	-8.0	14.9287	70.0	0.3	Certain	2.7	-19.36	2.99675	Yes	n/a	-22.063492063492102	n/a	n/a	n/a	ShowResult	Mixed
418.652	3.66	0.02	962.73	53.0	2	-8.0	-8.0	14.9287	70.0	0.3	Certain	2.7	-19.36	2.99675	Yes	n/a	-22.063492063492102	n/a	n/a	n/a	ISITrial	Mixed
422.33	2.997	0.018	966.408	53.0	2	-8.0	-8.0	14.9287	70.0	0.3	Certain	2.7	-19.36	2.99675	Yes	n/a	-22.063492063492102	n/a	n/a	n/a	TrialHappPreview	Mixed
425.355	4.029	0.028	969.433	53.0	2	-8.0	-8.0	14.9287	70.0	0.3	Certain	2.7	-19.36	2.99675	Yes	n/a	-22.063492063492102	n/a	n/a	512.0	TrialHappiness	Mixed
425.356	0.0	n/a	969.434	53.0	2	-8.0	-8.0	14.9287	70.0	0.3	Certain	2.7	-19.36	2.99675	Yes	n/a	-22.063492063492102	n/a	n/a	512.0	TrialHappinessSliderResponse	Mixed
429.384	3.987	4.029	973.462	53.0	2	-8.0	-8.0	14.9287	70.0	0.3	Certain	2.7	-19.36	2.99675	Yes	n/a	-22.063492063492102	n/a	n/a	n/a	ISIRate	Mixed
433.396	3.0	0.025	977.474	54.0	2	-2.0	-2.0	14.6787	70.0	1.82	Certain	8.7	-12.98	0.0	No	4.0	-21.6757369614512	2.11	435.506	n/a	GetAnswer	Gain
435.536	4.0	0.03	979.614	54.0	2	-2.0	-2.0	14.6787	70.0	1.82	Certain	8.7	-12.98	0.0	No	n/a	-21.6757369614512	n/a	n/a	n/a	ShowChoice	Gain
439.564	1.0	0.028	983.642	54.0	2	-2.0	-2.0	14.6787	70.0	1.82	Certain	8.7	-12.98	0.0	No	n/a	-21.6757369614512	n/a	n/a	n/a	ShowResult	Gain
440.584	8.0	0.02	984.662	54.0	2	-2.0	-2.0	14.6787	70.0	1.82	Certain	8.7	-12.98	0.0	No	n/a	-21.6757369614512	n/a	n/a	n/a	ISITrial	Gain
467.666	0.273	n/a	1013.468	n/a	2	n/a	n/a	n/a	n/a	n/a	n/a	n/a	n/a	n/a	n/a	n/a	n/a	n/a	n/a	568.0	BlockStartHappinessSliderResponse	n/a
-31.06	-0.001	0.024	992.686	n/a	3	n/a	n/a	n/a	n/a	n/a	n/a	n/a	n/a	n/a	n/a	2	n/a	15.013	-16.047	n/a	Rest	n/a
-16.015	4.0	0.032	1007.731	n/a	3	n/a	n/a	n/a	n/a	n/a	n/a	n/a	n/a	n/a	n/a	n/a	n/a	n/a	n/a	n/a	BlockHappyPreview	n/a
-12.003	1.997	0.012	1011.743	n/a	3	n/a	n/a	n/a	n/a	n/a	n/a	n/a	n/a	n/a	n/a	n/a	n/a	n/a	n/a	568.0	BlockStartHappiness	n/a
-5.416	-0.001	0.022	1018.33	n/a	3	n/a	n/a	n/a	n/a	n/a	n/a	n/a	n/a	n/a	n/a	5.0	n/a	5.398	-0.018	n/a	ScanWait	n/a
0.0	10.0	0.018	1023.746	n/a	3	n/a	n/a	n/a	n/a	n/a	n/a	n/a	n/a	n/a	n/a	n/a	n/a	n/a	n/a	n/a	GetReady	n/a
10.03	3.0	0.03	1033.776	55.0	3	11.53	5.76	16.12	955.0	2.22	Outcome2	13.1	11.53	2.53325	Yes	2.0	-1.57049830124575	1.213	11.243	n/a	GetAnswer	Loss
11.267	4.0	0.024	1035.013	55.0	3	11.53	5.76	16.12	955.0	2.22	Outcome2	13.1	11.53	2.53325	Yes	n/a	-1.57049830124575	n/a	n/a	n/a	ShowChoice	Loss
15.295	1.0	0.028	1039.041	55.0	3	11.53	5.76	16.12	955.0	2.22	Outcome2	13.1	11.53	2.53325	Yes	n/a	-1.57049830124575	n/a	n/a	n/a	ShowResult	Loss
16.315	7.709	0.02	1040.061	55.0	3	11.53	5.76	16.12	955.0	2.22	Outcome2	13.1	11.53	2.53325	Yes	n/a	-1.57049830124575	n/a	n/a	n/a	ISITrial	Loss
24.038	2.533	0.014	1047.784	55.0	3	11.53	5.76	16.12	955.0	2.22	Outcome2	13.1	11.53	2.53325	Yes	n/a	-1.57049830124575	n/a	n/a	n/a	TrialHappPreview	Loss
26.596	4.029	0.025	1050.342	55.0	3	11.53	5.76	16.12	955.0	2.22	Outcome2	13.1	11.53	2.53325	Yes	n/a	-1.57049830124575	n/a	n/a	576.0	TrialHappiness	Loss
26.597	0.772	n/a	1051.551	55.0	3	11.53	5.76	16.12	955.0	2.22	Outcome2	13.1	11.53	2.53325	Yes	n/a	-1.57049830124575	n/a	n/a	576.0	TrialHappinessSliderResponse	Loss
30.625	2.133	4.029	1054.371	55.0	3	11.53	5.76	16.12	955.0	2.22	Outcome2	13.1	11.53	2.53325	Yes	n/a	-1.57049830124575	n/a	n/a	n/a	ISIRate	Loss
32.781	3.0	0.023	1056.527	56.0	3	12.3	2.71	17.6575	955.0	5.0	Outcome2	5.42	12.3	0.0	No	2.0	6.876557191392981	1.213	33.994	n/a	GetAnswer	Loss
34.018	4.0	0.024	1057.764	56.0	3	12.3	2.71	17.6575	955.0	5.0	Outcome2	5.42	12.3	0.0	No	n/a	6.876557191392981	n/a	n/a	n/a	ShowChoice	Loss
38.047	1.0	0.029	1061.793	56.0	3	12.3	2.71	17.6575	955.0	5.0	Outcome2	5.42	12.3	0.0	No	n/a	6.876557191392981	n/a	n/a	n/a	ShowResult	Loss
39.067	4.697	0.02	1062.813	56.0	3	12.3	2.71	17.6575	955.0	5.0	Outcome2	5.42	12.3	0.0	No	n/a	6.876557191392981	n/a	n/a	n/a	ISITrial	Loss
43.797	3.0	0.033	1067.543	57.0	3	7.3	0.0	18.57	955.0	2.48	Outcome2	-0.01	7.3	0.0	No	2.0	7.30577576443941	1.501	45.298	n/a	GetAnswer	Gain
45.319	4.0	0.021	1069.065	57.0	3	7.3	0.0	18.57	955.0	2.48	Outcome2	-0.01	7.3	0.0	No	n/a	7.30577576443941	n/a	n/a	n/a	ShowChoice	Gain
49.347	1.0	0.028	1073.093	57.0	3	7.3	0.0	18.57	955.0	2.48	Outcome2	-0.01	7.3	0.0	No	n/a	7.30577576443941	n/a	n/a	n/a	ShowResult	Gain
50.367	4.291	0.02	1074.113	57.0	3	7.3	0.0	18.57	955.0	2.48	Outcome2	-0.01	7.3	0.0	No	n/a	7.30577576443941	n/a	n/a	n/a	ISITrial	Gain
54.68	3.0	0.022	1078.426	58.0	3	-4.0	-4.0	18.07	955.0	0.82	Certain	-0.5	-8.24	3.04575	Yes	4.0	7.73499433748584	2.28	56.96	n/a	GetAnswer	Mixed
56.987	4.0	0.027	1080.733	58.0	3	-4.0	-4.0	18.07	955.0	0.82	Certain	-0.5	-8.24	3.04575	Yes	n/a	7.73499433748584	n/a	n/a	n/a	ShowChoice	Mixed
60.999	1.0	0.012	1084.745	58.0	3	-4.0	-4.0	18.07	955.0	0.82	Certain	-0.5	-8.24	3.04575	Yes	n/a	7.73499433748584	n/a	n/a	n/a	ShowResult	Mixed
62.018	2.037	0.019	1085.764	58.0	3	-4.0	-4.0	18.07	955.0	0.82	Certain	-0.5	-8.24	3.04575	Yes	n/a	7.73499433748584	n/a	n/a	n/a	ISITrial	Mixed
64.075	3.046	0.02	1087.821	58.0	3	-4.0	-4.0	18.07	955.0	0.82	Certain	-0.5	-8.24	3.04575	Yes	n/a	7.73499433748584	n/a	n/a	n/a	TrialHappPreview	Mixed
67.15	4.029	0.029	1090.896	58.0	3	-4.0	-4.0	18.07	955.0	0.82	Certain	-0.5	-8.24	3.04575	Yes	n/a	7.73499433748584	n/a	n/a	560.0	TrialHappiness	Mixed
67.151	0.249	n/a	1092.562	58.0	3	-4.0	-4.0	18.07	955.0	0.82	Certain	-0.5	-8.24	3.04575	Yes	n/a	7.73499433748584	n/a	n/a	560.0	TrialHappinessSliderResponse	Mixed
71.179	4.183	4.029	1094.925	58.0	3	-4.0	-4.0	18.07	955.0	0.82	Certain	-0.5	-8.24	3.04575	Yes	n/a	7.73499433748584	n/a	n/a	n/a	ISIRate	Mixed
75.392	3.0	0.03	1099.138	59.0	3	10.5	1.03	19.3825	955.0	1.68	Outcome2	2.06	10.5	0.0	No	2.0	8.43601359003398	1.67	77.062	n/a	GetAnswer	Loss
77.08	4.0	0.018	1100.826	59.0	3	10.5	1.03	19.3825	955.0	1.68	Outcome2	2.06	10.5	0.0	No	n/a	8.43601359003398	n/a	n/a	n/a	ShowChoice	Loss
81.092	1.0	0.012	1104.838	59.0	3	10.5	1.03	19.3825	955.0	1.68	Outcome2	2.06	10.5	0.0	No	n/a	8.43601359003398	n/a	n/a	n/a	ShowResult	Loss
82.112	5.064	0.02	1105.858	59.0	3	10.5	1.03	19.3825	955.0	1.68	Outcome2	2.06	10.5	0.0	No	n/a	8.43601359003398	n/a	n/a	n/a	ISITrial	Loss
87.194	3.0	0.018	1110.94	60.0	3	3.72	1.86	19.8475	955.0	2.8	Outcome1	3.72	5.5	3.5625	Yes	2.0	-1.7840694601736498	1.666	88.86	n/a	GetAnswer	Gain
88.882	4.0	0.022	1112.628	60.0	3	3.72	1.86	19.8475	955.0	2.8	Outcome1	3.72	5.5	3.5625	Yes	n/a	-1.7840694601736498	n/a	n/a	n/a	ShowChoice	Gain
92.911	1.0	0.029	1116.657	60.0	3	3.72	1.86	19.8475	955.0	2.8	Outcome1	3.72	5.5	3.5625	Yes	n/a	-1.7840694601736498	n/a	n/a	n/a	ShowResult	Gain
93.931	8.0	0.02	1117.677	60.0	3	3.72	1.86	19.8475	955.0	2.8	Outcome1	3.72	5.5	3.5625	Yes	n/a	-1.7840694601736498	n/a	n/a	n/a	ISITrial	Gain
101.955	3.562	0.024	1125.701	60.0	3	3.72	1.86	19.8475	955.0	2.8	Outcome1	3.72	5.5	3.5625	Yes	n/a	-1.7840694601736498	n/a	n/a	n/a	TrialHappPreview	Gain
105.549	4.028	0.032	1129.295	60.0	3	3.72	1.86	19.8475	955.0	2.8	Outcome1	3.72	5.5	3.5625	Yes	n/a	-1.7840694601736498	n/a	n/a	616.0	TrialHappiness	Gain
105.549	0.745	n/a	1130.194	60.0	3	3.72	1.86	19.8475	955.0	2.8	Outcome1	3.72	5.5	3.5625	Yes	n/a	-1.7840694601736498	n/a	n/a	616.0	TrialHappinessSliderResponse	Gain
109.577	6.25	4.028	1133.323	60.0	3	3.72	1.86	19.8475	955.0	2.8	Outcome1	3.72	5.5	3.5625	Yes	n/a	-1.7840694601736498	n/a	n/a	n/a	ISIRate	Gain
115.846	3.0	0.019	1139.592	61.0	3	-1.0	-1.0	19.7225	955.0	0.2	Certain	-5.88	2.5	0.0	No	4.0	8.37938844847112	2.099	117.945	n/a	GetAnswer	Mixed
117.969	4.0	0.024	1141.715	61.0	3	-1.0	-1.0	19.7225	955.0	0.2	Certain	-5.88	2.5	0.0	No	n/a	8.37938844847112	n/a	n/a	n/a	ShowChoice	Mixed
121.981	1.0	0.012	1145.727	61.0	3	-1.0	-1.0	19.7225	955.0	0.2	Certain	-5.88	2.5	0.0	No	n/a	8.37938844847112	n/a	n/a	n/a	ShowResult	Mixed
123.001	4.586	0.02	1146.747	61.0	3	-1.0	-1.0	19.7225	955.0	0.2	Certain	-5.88	2.5	0.0	No	n/a	8.37938844847112	n/a	n/a	n/a	ISITrial	Mixed
127.615	3.0	0.028	1151.361	62.0	3	13.3	2.27	21.385	955.0	2.48	Outcome1	13.3	4.54	3.74875	Yes	2.0	8.76330690826727	1.168	128.783	n/a	GetAnswer	Loss
128.801	4.0	0.018	1152.547	62.0	3	13.3	2.27	21.385	955.0	2.48	Outcome1	13.3	4.54	3.74875	Yes	n/a	8.76330690826727	n/a	n/a	n/a	ShowChoice	Loss
132.83	1.0	0.029	1156.576	62.0	3	13.3	2.27	21.385	955.0	2.48	Outcome1	13.3	4.54	3.74875	Yes	n/a	8.76330690826727	n/a	n/a	n/a	ShowResult	Loss
133.85	5.212	0.02	1157.596	62.0	3	13.3	2.27	21.385	955.0	2.48	Outcome1	13.3	4.54	3.74875	Yes	n/a	8.76330690826727	n/a	n/a	n/a	ISITrial	Loss
139.082	3.749	0.02	1162.828	62.0	3	13.3	2.27	21.385	955.0	2.48	Outcome1	13.3	4.54	3.74875	Yes	n/a	8.76330690826727	n/a	n/a	n/a	TrialHappPreview	Loss
142.86	4.029	0.029	1166.606	62.0	3	13.3	2.27	21.385	955.0	2.48	Outcome1	13.3	4.54	3.74875	Yes	n/a	8.76330690826727	n/a	n/a	628.0	TrialHappiness	Loss
142.861	1.769	n/a	1167.219	62.0	3	13.3	2.27	21.385	955.0	2.48	Outcome1	13.3	4.54	3.74875	Yes	n/a	8.76330690826727	n/a	n/a	628.0	TrialHappinessSliderResponse	Loss
146.889	6.995	4.029	1170.635	62.0	3	13.3	2.27	21.385	955.0	2.48	Outcome1	13.3	4.54	3.74875	Yes	n/a	8.76330690826727	n/a	n/a	n/a	ISIRate	Loss
153.91	3.0	0.026	1177.656	63.0	3	3.09	1.54	21.7713	955.0	1.82	Outcome2	4.7	3.09	0.0	No	2.0	-1.60938089845225	1.069	154.979	n/a	GetAnswer	Gain
154.996	4.0	0.017	1178.742	63.0	3	3.09	1.54	21.7713	955.0	1.82	Outcome2	4.7	3.09	0.0	No	n/a	-1.60938089845225	n/a	n/a	n/a	ShowChoice	Gain
159.025	1.0	0.029	1182.771	63.0	3	3.09	1.54	21.7713	955.0	1.82	Outcome2	4.7	3.09	0.0	No	n/a	-1.60938089845225	n/a	n/a	n/a	ShowResult	Gain
160.045	5.595	0.02	1183.791	63.0	3	3.09	1.54	21.7713	955.0	1.82	Outcome2	4.7	3.09	0.0	No	n/a	-1.60938089845225	n/a	n/a	n/a	ISITrial	Gain
165.662	3.0	0.022	1189.408	64.0	3	-4.0	-4.0	21.2713	955.0	0.4	Certain	-8.41	0.9	0.0	No	4.0	9.31370328425821	1.876	167.538	n/a	GetAnswer	Mixed
167.567	4.0	0.029	1191.313	64.0	3	-4.0	-4.0	21.2713	955.0	0.4	Certain	-8.41	0.9	0.0	No	n/a	9.31370328425821	n/a	n/a	n/a	ShowChoice	Mixed
171.596	1.0	0.029	1195.342	64.0	3	-4.0	-4.0	21.2713	955.0	0.4	Certain	-8.41	0.9	0.0	No	n/a	9.31370328425821	n/a	n/a	n/a	ShowResult	Mixed
172.616	5.47	0.02	1196.362	64.0	3	-4.0	-4.0	21.2713	955.0	0.4	Certain	-8.41	0.9	0.0	No	n/a	9.31370328425821	n/a	n/a	n/a	ISITrial	Mixed
178.116	3.0	0.03	1201.862	65.0	3	7.9	-0.89	22.2588	955.0	3.6	Outcome1	7.9	-1.78	2.99675	Yes	2.0	9.68403171007927	1.959	180.075	n/a	GetAnswer	Gain
180.105	4.0	0.03	1203.851	65.0	3	7.9	-0.89	22.2588	955.0	3.6	Outcome1	7.9	-1.78	2.99675	Yes	n/a	9.68403171007927	n/a	n/a	n/a	ShowChoice	Gain
184.134	1.0	0.029	1207.88	65.0	3	7.9	-0.89	22.2588	955.0	3.6	Outcome1	7.9	-1.78	2.99675	Yes	n/a	9.68403171007927	n/a	n/a	n/a	ShowResult	Gain
185.153	3.344	0.019	1208.899	65.0	3	7.9	-0.89	22.2588	955.0	3.6	Outcome1	7.9	-1.78	2.99675	Yes	n/a	9.68403171007927	n/a	n/a	n/a	ISITrial	Gain
188.513	2.997	0.016	1212.259	65.0	3	7.9	-0.89	22.2588	955.0	3.6	Outcome1	7.9	-1.78	2.99675	Yes	n/a	9.68403171007927	n/a	n/a	n/a	TrialHappPreview	Gain
191.539	4.012	0.029	1215.285	65.0	3	7.9	-0.89	22.2588	955.0	3.6	Outcome1	7.9	-1.78	2.99675	Yes	n/a	9.68403171007927	n/a	n/a	516.0	TrialHappiness	Gain
191.54	3.117	n/a	1215.975	65.0	3	7.9	-0.89	22.2588	955.0	3.6	Outcome1	7.9	-1.78	2.99675	Yes	n/a	9.68403171007927	n/a	n/a	516.0	TrialHappinessSliderResponse	Gain
195.551	3.987	4.012	1219.297	65.0	3	7.9	-0.89	22.2588	955.0	3.6	Outcome1	7.9	-1.78	2.99675	Yes	n/a	9.68403171007927	n/a	n/a	n/a	ISIRate	Gain
199.563	3.0	0.025	1223.309	66.0	3	13.5	0.77	23.9463	955.0	2.8	Outcome2	1.54	13.5	0.0	No	2.0	11.9569648924122	1.182	200.745	n/a	GetAnswer	Loss
200.767	4.0	0.022	1224.513	66.0	3	13.5	0.77	23.9463	955.0	2.8	Outcome2	1.54	13.5	0.0	No	n/a	11.9569648924122	n/a	n/a	n/a	ShowChoice	Loss
204.795	1.0	0.028	1228.541	66.0	3	13.5	0.77	23.9463	955.0	2.8	Outcome2	1.54	13.5	0.0	No	n/a	11.9569648924122	n/a	n/a	n/a	ShowResult	Loss
205.815	3.959	0.02	1229.561	66.0	3	13.5	0.77	23.9463	955.0	2.8	Outcome2	1.54	13.5	0.0	No	n/a	11.9569648924122	n/a	n/a	n/a	ISITrial	Loss
209.794	3.0	0.02	1233.54	67.0	3	13.9	0.72	25.6838	955.0	3.6	Outcome2	1.45	13.9	2.9185	Yes	2.0	12.4541336353341	2.031	211.825	n/a	GetAnswer	Loss
211.85	4.0	0.025	1235.596	67.0	3	13.9	0.72	25.6838	955.0	3.6	Outcome2	1.45	13.9	2.9185	Yes	n/a	12.4541336353341	n/a	n/a	n/a	ShowChoice	Loss
215.879	1.0	0.029	1239.625	67.0	3	13.9	0.72	25.6838	955.0	3.6	Outcome2	1.45	13.9	2.9185	Yes	n/a	12.4541336353341	n/a	n/a	n/a	ShowResult	Loss
216.898	4.199	0.019	1240.644	67.0	3	13.9	0.72	25.6838	955.0	3.6	Outcome2	1.45	13.9	2.9185	Yes	n/a	12.4541336353341	n/a	n/a	n/a	ISITrial	Loss
221.111	2.918	0.014	1244.857	67.0	3	13.9	0.72	25.6838	955.0	3.6	Outcome2	1.45	13.9	2.9185	Yes	n/a	12.4541336353341	n/a	n/a	n/a	TrialHappPreview	Loss
224.053	4.029	0.024	1247.799	67.0	3	13.9	0.72	25.6838	955.0	3.6	Outcome2	1.45	13.9	2.9185	Yes	4{-4}4{-4}	12.4541336353341	3.348	227.401	480.0	TrialHappiness	Loss
224.054	0.831	n/a	1250.317	67.0	3	13.9	0.72	25.6838	955.0	3.6	Outcome2	1.45	13.9	2.9185	Yes	n/a	12.4541336353341	n/a	n/a	480.0	TrialHappinessSliderResponse	Loss
228.082	3.674	4.029	1251.828	67.0	3	13.9	0.72	25.6838	955.0	3.6	Outcome2	1.45	13.9	2.9185	Yes	n/a	12.4541336353341	n/a	n/a	n/a	ISIRate	Loss
231.776	3.0	0.02	1255.522	68.0	3	7.91	3.96	26.6726	955.0	5.0	Outcome2	10.3	7.91	0.0	No	2.0	-2.38542846357116	0.92	232.696	n/a	GetAnswer	Gain
232.712	4.0	0.015	1256.458	68.0	3	7.91	3.96	26.6726	955.0	5.0	Outcome2	10.3	7.91	0.0	No	n/a	-2.38542846357116	n/a	n/a	n/a	ShowChoice	Gain
236.724	1.0	0.012	1260.47	68.0	3	7.91	3.96	26.6726	955.0	5.0	Outcome2	10.3	7.91	0.0	No	n/a	-2.38542846357116	n/a	n/a	n/a	ShowResult	Gain
237.744	2.185	0.02	1261.49	68.0	3	7.91	3.96	26.6726	955.0	5.0	Outcome2	10.3	7.91	0.0	No	n/a	-2.38542846357116	n/a	n/a	n/a	ISITrial	Gain
239.95	3.0	0.021	1263.696	69.0	3	-6.0	-6.0	25.9226	955.0	0.66	Certain	-12.8	1.3	0.0	No	4.0	14.1007927519819	1.863	241.813	n/a	GetAnswer	Mixed
241.839	4.0	0.026	1265.585	69.0	3	-6.0	-6.0	25.9226	955.0	0.66	Certain	-12.8	1.3	0.0	No	n/a	14.1007927519819	n/a	n/a	n/a	ShowChoice	Mixed
245.851	1.0	0.012	1269.597	69.0	3	-6.0	-6.0	25.9226	955.0	0.66	Certain	-12.8	1.3	0.0	No	n/a	14.1007927519819	n/a	n/a	n/a	ShowResult	Mixed
246.871	2.0	0.02	1270.617	69.0	3	-6.0	-6.0	25.9226	955.0	0.66	Certain	-12.8	1.3	0.0	No	n/a	14.1007927519819	n/a	n/a	n/a	ISITrial	Mixed
248.894	3.0	0.023	1272.64	70.0	3	-5.0	-5.0	25.2976	955.0	1.0	Certain	1.7	-12.94	3.65125	Yes	4.0	14.638731596829	2.232	251.126	n/a	GetAnswer	Mixed
251.151	4.0	0.025	1274.897	70.0	3	-5.0	-5.0	25.2976	955.0	1.0	Certain	1.7	-12.94	3.65125	Yes	n/a	14.638731596829	n/a	n/a	n/a	ShowChoice	Mixed
255.179	1.0	0.028	1278.925	70.0	3	-5.0	-5.0	25.2976	955.0	1.0	Certain	1.7	-12.94	3.65125	Yes	n/a	14.638731596829	n/a	n/a	n/a	ShowResult	Mixed
256.199	2.623	0.02	1279.945	70.0	3	-5.0	-5.0	25.2976	955.0	1.0	Certain	1.7	-12.94	3.65125	Yes	n/a	14.638731596829	n/a	n/a	n/a	ISITrial	Mixed
258.84	3.651	0.018	1282.586	70.0	3	-5.0	-5.0	25.2976	955.0	1.0	Certain	1.7	-12.94	3.65125	Yes	n/a	14.638731596829	n/a	n/a	n/a	TrialHappPreview	Mixed
262.518	4.029	0.027	1286.264	70.0	3	-5.0	-5.0	25.2976	955.0	1.0	Certain	1.7	-12.94	3.65125	Yes	n/a	14.638731596829	n/a	n/a	560.0	TrialHappiness	Mixed
262.519	0.888	n/a	1288.326	70.0	3	-5.0	-5.0	25.2976	955.0	1.0	Certain	1.7	-12.94	3.65125	Yes	n/a	14.638731596829	n/a	n/a	560.0	TrialHappinessSliderResponse	Mixed
266.547	6.605	4.029	1290.293	70.0	3	-5.0	-5.0	25.2976	955.0	1.0	Certain	1.7	-12.94	3.65125	Yes	n/a	14.638731596829	n/a	n/a	n/a	ISIRate	Mixed
273.183	3.0	0.031	1296.929	71.0	3	-2.0	-2.0	25.0476	955.0	0.3	Certain	-1.3	-3.5	0.0	No	4.0	-2.19526236315591	2.874	276.057	n/a	GetAnswer	Mixed
276.075	4.0	0.017	1299.821	71.0	3	-2.0	-2.0	25.0476	955.0	0.3	Certain	-1.3	-3.5	0.0	No	n/a	-2.19526236315591	n/a	n/a	n/a	ShowChoice	Mixed
280.087	1.0	0.012	1303.833	71.0	3	-2.0	-2.0	25.0476	955.0	0.3	Certain	-1.3	-3.5	0.0	No	n/a	-2.19526236315591	n/a	n/a	n/a	ShowResult	Mixed
281.107	5.499	0.02	1304.853	71.0	3	-2.0	-2.0	25.0476	955.0	0.3	Certain	-1.3	-3.5	0.0	No	n/a	-2.19526236315591	n/a	n/a	n/a	ISITrial	Mixed
286.623	3.0	0.017	1310.369	72.0	3	9.3	2.0	26.2101	955.0	2.48	Outcome1	9.3	-4.96	3.0805	Yes	2.0	14.2650056625142	1.897	288.52	n/a	GetAnswer	Gain
288.546	4.0	0.026	1312.292	72.0	3	9.3	2.0	26.2101	955.0	2.48	Outcome1	9.3	-4.96	3.0805	Yes	n/a	14.2650056625142	n/a	n/a	n/a	ShowChoice	Gain
292.575	1.0	0.029	1316.321	72.0	3	9.3	2.0	26.2101	955.0	2.48	Outcome1	9.3	-4.96	3.0805	Yes	n/a	14.2650056625142	n/a	n/a	n/a	ShowResult	Gain
293.594	5.672	0.019	1317.34	72.0	3	9.3	2.0	26.2101	955.0	2.48	Outcome1	9.3	-4.96	3.0805	Yes	n/a	14.2650056625142	n/a	n/a	n/a	ISITrial	Gain
299.295	3.08	0.029	1323.041	72.0	3	9.3	2.0	26.2101	955.0	2.48	Outcome1	9.3	-4.96	3.0805	Yes	n/a	14.2650056625142	n/a	n/a	n/a	TrialHappPreview	Gain
302.404	4.029	0.029	1326.15	72.0	3	9.3	2.0	26.2101	955.0	2.48	Outcome1	9.3	-4.96	3.0805	Yes	n/a	14.2650056625142	n/a	n/a	564.0	TrialHappiness	Gain
302.404	2.411	n/a	1327.062	72.0	3	9.3	2.0	26.2101	955.0	2.48	Outcome1	9.3	-4.96	3.0805	Yes	n/a	14.2650056625142	n/a	n/a	564.0	TrialHappinessSliderResponse	Gain
306.433	4.322	4.029	1330.179	72.0	3	9.3	2.0	26.2101	955.0	2.48	Outcome1	9.3	-4.96	3.0805	Yes	n/a	14.2650056625142	n/a	n/a	n/a	ISIRate	Gain
310.779	3.0	0.024	1334.525	73.0	3	-4.0	-4.0	25.7101	955.0	0.66	Certain	-11.34	3.3	0.0	No	4.0	14.6443941109853	1.825	312.604	n/a	GetAnswer	Mixed
312.634	4.0	0.03	1336.38	73.0	3	-4.0	-4.0	25.7101	955.0	0.66	Certain	-11.34	3.3	0.0	No	n/a	14.6443941109853	n/a	n/a	n/a	ShowChoice	Mixed
316.663	1.0	0.029	1340.409	73.0	3	-4.0	-4.0	25.7101	955.0	0.66	Certain	-11.34	3.3	0.0	No	n/a	14.6443941109853	n/a	n/a	n/a	ShowResult	Mixed
317.683	4.616	0.02	1341.429	73.0	3	-4.0	-4.0	25.7101	955.0	0.66	Certain	-11.34	3.3	0.0	No	n/a	14.6443941109853	n/a	n/a	n/a	ISITrial	Mixed
322.33	3.0	0.031	1346.076	74.0	3	1.0	1.0	25.8351	955.0	2.22	Certain	9.1	-5.99	3.05625	Yes	4.0	15.087202718006802	1.805	324.135	n/a	GetAnswer	Gain
324.152	4.0	0.017	1347.898	74.0	3	1.0	1.0	25.8351	955.0	2.22	Certain	9.1	-5.99	3.05625	Yes	n/a	15.087202718006802	n/a	n/a	n/a	ShowChoice	Gain
328.164	1.0	0.012	1351.91	74.0	3	1.0	1.0	25.8351	955.0	2.22	Certain	9.1	-5.99	3.05625	Yes	n/a	15.087202718006802	n/a	n/a	n/a	ShowResult	Gain
329.184	3.909	0.02	1352.93	74.0	3	1.0	1.0	25.8351	955.0	2.22	Certain	9.1	-5.99	3.05625	Yes	n/a	15.087202718006802	n/a	n/a	n/a	ISITrial	Gain
333.112	3.056	0.019	1356.858	74.0	3	1.0	1.0	25.8351	955.0	2.22	Certain	9.1	-5.99	3.05625	Yes	n/a	15.087202718006802	n/a	n/a	n/a	TrialHappPreview	Gain
336.188	4.012	0.02	1359.934	74.0	3	1.0	1.0	25.8351	955.0	2.22	Certain	9.1	-5.99	3.05625	Yes	n/a	15.087202718006802	n/a	n/a	568.0	TrialHappiness	Gain
336.189	0.746	n/a	1360.551	74.0	3	1.0	1.0	25.8351	955.0	2.22	Certain	9.1	-5.99	3.05625	Yes	n/a	15.087202718006802	n/a	n/a	568.0	TrialHappinessSliderResponse	Gain
340.2	4.225	4.012	1363.946	74.0	3	1.0	1.0	25.8351	955.0	2.22	Certain	9.1	-5.99	3.05625	Yes	n/a	15.087202718006802	n/a	n/a	n/a	ISIRate	Gain
344.446	3.0	0.021	1368.192	75.0	3	2.0	2.0	26.0851	955.0	3.16	Certain	-5.76	9.7	0.0	No	4.0	15.4620611551529	2.052	346.498	n/a	GetAnswer	Gain
346.519	4.0	0.021	1370.265	75.0	3	2.0	2.0	26.0851	955.0	3.16	Certain	-5.76	9.7	0.0	No	n/a	15.4620611551529	n/a	n/a	n/a	ShowChoice	Gain
350.531	1.0	0.012	1374.277	75.0	3	2.0	2.0	26.0851	955.0	3.16	Certain	-5.76	9.7	0.0	No	n/a	15.4620611551529	n/a	n/a	n/a	ShowResult	Gain
351.551	4.979	0.02	1375.297	75.0	3	2.0	2.0	26.0851	955.0	3.16	Certain	-5.76	9.7	0.0	No	n/a	15.4620611551529	n/a	n/a	n/a	ISITrial	Gain
356.549	3.0	0.019	1380.295	76.0	3	6.1	-2.0	26.8476	955.0	4.2	Outcome2	-9.8	6.1	0.0	No	n/a	15.9003397508494	n/a	n/a	n/a	GetAnswer	Gain
359.575	4.0	0.026	1383.321	76.0	3	6.1	-2.0	26.8476	955.0	4.2	Outcome2	-9.8	6.1	0.0	No	n/a	15.9003397508494	n/a	n/a	n/a	ShowChoice	Gain
363.604	1.0	0.029	1387.35	76.0	3	6.1	-2.0	26.8476	955.0	4.2	Outcome2	-9.8	6.1	0.0	No	n/a	15.9003397508494	n/a	n/a	n/a	ShowResult	Gain
364.623	3.931	0.019	1388.369	76.0	3	6.1	-2.0	26.8476	955.0	4.2	Outcome2	-9.8	6.1	0.0	No	n/a	15.9003397508494	n/a	n/a	n/a	ISITrial	Gain
368.585	3.0	0.031	1392.331	77.0	3	1.0	1.0	26.9726	955.0	3.6	Certain	9.9	-6.44	4.0	Yes	4.0	16.3386183465459	1.803	370.388	n/a	GetAnswer	Gain
370.407	4.0	0.019	1394.153	77.0	3	1.0	1.0	26.9726	955.0	3.6	Certain	9.9	-6.44	4.0	Yes	n/a	16.3386183465459	n/a	n/a	n/a	ShowChoice	Gain
374.436	1.0	0.029	1398.182	77.0	3	1.0	1.0	26.9726	955.0	3.6	Certain	9.9	-6.44	4.0	Yes	n/a	16.3386183465459	n/a	n/a	n/a	ShowResult	Gain
375.456	7.022	0.02	1399.202	77.0	3	1.0	1.0	26.9726	955.0	3.6	Certain	9.9	-6.44	4.0	Yes	n/a	16.3386183465459	n/a	n/a	n/a	ISITrial	Gain
382.493	4.0	0.015	1406.239	77.0	3	1.0	1.0	26.9726	955.0	3.6	Certain	9.9	-6.44	4.0	Yes	n/a	16.3386183465459	n/a	n/a	n/a	TrialHappPreview	Gain
386.522	4.029	0.029	1410.268	77.0	3	1.0	1.0	26.9726	955.0	3.6	Certain	9.9	-6.44	4.0	Yes	n/a	16.3386183465459	n/a	n/a	512.0	TrialHappiness	Gain
386.523	0.0	n/a	1410.269	77.0	3	1.0	1.0	26.9726	955.0	3.6	Certain	9.9	-6.44	4.0	Yes	n/a	16.3386183465459	n/a	n/a	512.0	TrialHappinessSliderResponse	Gain
390.551	8.0	4.029	1414.297	77.0	3	1.0	1.0	26.9726	955.0	3.6	Certain	9.9	-6.44	4.0	Yes	n/a	16.3386183465459	n/a	n/a	n/a	ISIRate	Gain
398.575	3.0	0.024	1422.321	78.0	3	-7.0	-7.0	26.0976	955.0	1.5	Certain	-15.63	2.1	0.0	No	4.0	17.728199320498298	1.981	400.556	n/a	GetAnswer	Mixed
400.581	4.0	0.025	1424.327	78.0	3	-7.0	-7.0	26.0976	955.0	1.5	Certain	-15.63	2.1	0.0	No	n/a	17.728199320498298	n/a	n/a	n/a	ShowChoice	Mixed
404.609	1.0	0.028	1428.355	78.0	3	-7.0	-7.0	26.0976	955.0	1.5	Certain	-15.63	2.1	0.0	No	n/a	17.728199320498298	n/a	n/a	n/a	ShowResult	Mixed
405.629	2.078	0.02	1429.375	78.0	3	-7.0	-7.0	26.0976	955.0	1.5	Certain	-15.63	2.1	0.0	No	n/a	17.728199320498298	n/a	n/a	n/a	ISITrial	Mixed
407.735	3.0	0.028	1431.481	79.0	3	1.0	1.0	26.2226	955.0	3.6	Certain	-8.33	9.9	2.7295	Yes	4.0	18.2298980747452	1.333	409.068	n/a	GetAnswer	Gain
409.09	4.0	0.022	1432.836	79.0	3	1.0	1.0	26.2226	955.0	3.6	Certain	-8.33	9.9	2.7295	Yes	n/a	18.2298980747452	n/a	n/a	n/a	ShowChoice	Gain
413.118	1.0	0.028	1436.864	79.0	3	1.0	1.0	26.2226	955.0	3.6	Certain	-8.33	9.9	2.7295	Yes	n/a	18.2298980747452	n/a	n/a	n/a	ShowResult	Gain
414.138	3.829	0.02	1437.884	79.0	3	1.0	1.0	26.2226	955.0	3.6	Certain	-8.33	9.9	2.7295	Yes	n/a	18.2298980747452	n/a	n/a	n/a	ISITrial	Gain
417.983	2.73	0.016	1441.729	79.0	3	1.0	1.0	26.2226	955.0	3.6	Certain	-8.33	9.9	2.7295	Yes	n/a	18.2298980747452	n/a	n/a	n/a	TrialHappPreview	Gain
420.741	4.029	0.028	1444.487	79.0	3	1.0	1.0	26.2226	955.0	3.6	Certain	-8.33	9.9	2.7295	Yes	n/a	18.2298980747452	n/a	n/a	532.0	TrialHappiness	Gain
420.742	1.221	n/a	1444.989	79.0	3	1.0	1.0	26.2226	955.0	3.6	Certain	-8.33	9.9	2.7295	Yes	n/a	18.2298980747452	n/a	n/a	532.0	TrialHappinessSliderResponse	Gain
424.77	2.918	4.029	1448.516	79.0	3	1.0	1.0	26.2226	955.0	3.6	Certain	-8.33	9.9	2.7295	Yes	n/a	18.2298980747452	n/a	n/a	n/a	ISIRate	Gain
427.712	3.0	0.024	1451.458	80.0	3	0.85	2.0	26.3288	955.0	0.82	Outcome2	3.5	0.85	0.0	No	2.0	-2.65043412608532	1.687	429.399	n/a	GetAnswer	Mixed
429.417	4.0	0.018	1453.163	80.0	3	0.85	2.0	26.3288	955.0	0.82	Outcome2	3.5	0.85	0.0	No	n/a	-2.65043412608532	n/a	n/a	n/a	ShowChoice	Mixed
433.446	1.0	0.029	1457.192	80.0	3	0.85	2.0	26.3288	955.0	0.82	Outcome2	3.5	0.85	0.0	No	n/a	-2.65043412608532	n/a	n/a	n/a	ShowResult	Mixed
434.465	3.336	0.019	1458.211	80.0	3	0.85	2.0	26.3288	955.0	0.82	Outcome2	3.5	0.85	0.0	No	n/a	-2.65043412608532	n/a	n/a	n/a	ISITrial	Mixed
437.825	3.0	0.024	1461.571	81.0	3	1.0	1.0	26.4538	955.0	1.68	Certain	10.5	-8.37	3.92375	Yes	4.0	18.8708946772367	1.892	439.717	n/a	GetAnswer	Loss
439.731	4.0	0.014	1463.477	81.0	3	1.0	1.0	26.4538	955.0	1.68	Certain	10.5	-8.37	3.92375	Yes	n/a	18.8708946772367	n/a	n/a	n/a	ShowChoice	Loss
443.76	1.0	0.029	1467.506	81.0	3	1.0	1.0	26.4538	955.0	1.68	Certain	10.5	-8.37	3.92375	Yes	n/a	18.8708946772367	n/a	n/a	n/a	ShowResult	Loss
444.78	3.919	0.02	1468.526	81.0	3	1.0	1.0	26.4538	955.0	1.68	Certain	10.5	-8.37	3.92375	Yes	n/a	18.8708946772367	n/a	n/a	n/a	ISITrial	Loss
448.725	3.924	0.026	1472.471	81.0	3	1.0	1.0	26.4538	955.0	1.68	Certain	10.5	-8.37	3.92375	Yes	n/a	18.8708946772367	n/a	n/a	n/a	TrialHappPreview	Loss
452.67	4.029	0.021	1476.416	81.0	3	1.0	1.0	26.4538	955.0	1.68	Certain	10.5	-8.37	3.92375	Yes	n/a	18.8708946772367	n/a	n/a	544.0	TrialHappiness	Loss
452.67	0.214	n/a	1477.045	81.0	3	1.0	1.0	26.4538	955.0	1.68	Certain	10.5	-8.37	3.92375	Yes	n/a	18.8708946772367	n/a	n/a	544.0	TrialHappinessSliderResponse	Loss
456.699	7.695	4.029	1480.445	81.0	3	1.0	1.0	26.4538	955.0	1.68	Certain	10.5	-8.37	3.92375	Yes	n/a	18.8708946772367	n/a	n/a	n/a	ISIRate	Loss
464.422	3.0	0.028	1488.168	n/a	3	n/a	n/a	n/a	n/a	n/a	n/a	n/a	n/a	n/a	n/a	n/a	n/a	n/a	n/a	n/a	CurrentEarnings	n/a
467.447	-0.001	0.025	1491.193	n/a	3	n/a	n/a	n/a	n/a	n/a	n/a	n/a	n/a	n/a	n/a	{SPACE}	n/a	279.002	746.449	n/a	Goodbye	n/a
