onset	duration	onset_delay	onset_unadjusted	trial_number	block	amount_change	certain_amount	current_amount	mood_target	multiplier	outcome	outcome1_amount	outcome2_amount	question_duration	rating	response	rpe	rt	rt_time	slider_response	trial_phase	trial_type
-46.899	-0.001	0.013	30.123	n/a	0	n/a	n/a	n/a	n/a	n/a	n/a	n/a	n/a	n/a	n/a	{SPACE}	n/a	8.891	-38.008	n/a	Welcome	n/a
-37.98	5.0	0.028	39.042	n/a	0	n/a	n/a	n/a	n/a	n/a	n/a	n/a	n/a	n/a	n/a	n/a	n/a	n/a	n/a	n/a	LifeHappyPreview	n/a
-32.949	4.962	0.031	44.073	n/a	0	n/a	n/a	n/a	n/a	n/a	n/a	n/a	n/a	n/a	n/a	n/a	n/a	n/a	n/a	904.0	LifeHappiness	n/a
-32.948	4.089	n/a	44.947	n/a	0	n/a	n/a	n/a	n/a	n/a	n/a	n/a	n/a	n/a	n/a	n/a	n/a	n/a	n/a	904.0	LifeHappinessSliderResponse	n/a
-14.677	4.0	0.02	62.345	n/a	0	n/a	n/a	n/a	n/a	n/a	n/a	n/a	n/a	n/a	n/a	n/a	n/a	n/a	n/a	n/a	BlockHappyPreview	n/a
-10.665	3.908	0.012	66.357	n/a	0	n/a	n/a	n/a	n/a	n/a	n/a	n/a	n/a	n/a	n/a	n/a	n/a	n/a	n/a	780.0	BlockStartHappiness	n/a
-10.665	3.494	n/a	66.771	n/a	0	n/a	n/a	n/a	n/a	n/a	n/a	n/a	n/a	n/a	n/a	n/a	n/a	n/a	n/a	780.0	BlockStartHappinessSliderResponse	n/a
-0.468	-0.001	0.021	76.554	n/a	0	n/a	n/a	n/a	n/a	n/a	n/a	n/a	n/a	n/a	n/a	5.0	n/a	0.44	-0.028	n/a	ScanWait	n/a
0.0	10.0	0.028	77.022	n/a	1	n/a	n/a	n/a	n/a	n/a	n/a	n/a	n/a	n/a	n/a	n/a	n/a	n/a	n/a	n/a	GetReady	n/a
10.03	3.0	0.03	87.052	1.0	1	6.79	3.4	10.8488	955.0	2.8	Outcome2	7.5	6.79	0.0	No	2.0	-0.710173650434126	1.951	11.981	n/a	GetAnswer	Gain
12.002	4.0	0.021	89.024	1.0	1	6.79	3.4	10.8488	955.0	2.8	Outcome2	7.5	6.79	0.0	No	n/a	-0.710173650434126	n/a	n/a	n/a	ShowChoice	Gain
16.031	1.0	0.029	93.053	1.0	1	6.79	3.4	10.8488	955.0	2.8	Outcome2	7.5	6.79	0.0	No	n/a	-0.710173650434126	n/a	n/a	n/a	ShowResult	Gain
17.051	2.431	0.02	94.073	1.0	1	6.79	3.4	10.8488	955.0	2.8	Outcome2	7.5	6.79	0.0	No	n/a	-0.710173650434126	n/a	n/a	n/a	ISITrial	Gain
19.508	3.0	0.026	96.53	2.0	1	-1.0	-1.0	10.7238	955.0	0.52	Certain	-0.9	-1.63	0.0	No	4.0	-0.7266893167232921	1.578	21.086	n/a	GetAnswer	Mixed
21.113	4.0	0.027	98.135	2.0	1	-1.0	-1.0	10.7238	955.0	0.52	Certain	-0.9	-1.63	0.0	No	n/a	-0.7266893167232921	n/a	n/a	n/a	ShowChoice	Mixed
25.142	1.0	0.029	102.164	2.0	1	-1.0	-1.0	10.7238	955.0	0.52	Certain	-0.9	-1.63	0.0	No	n/a	-0.7266893167232921	n/a	n/a	n/a	ShowResult	Mixed
26.161	4.568	0.019	103.183	2.0	1	-1.0	-1.0	10.7238	955.0	0.52	Certain	-0.9	-1.63	0.0	No	n/a	-0.7266893167232921	n/a	n/a	n/a	ISITrial	Mixed
30.758	3.0	0.029	107.78	3.0	1	10.3	3.46	12.0113	955.0	5.0	Outcome1	10.3	6.93	2.868	Yes	2.0	3.3691959229898103	1.076	31.834	n/a	GetAnswer	Gain
31.862	4.0	0.028	108.884	3.0	1	10.3	3.46	12.0113	955.0	5.0	Outcome1	10.3	6.93	2.868	Yes	n/a	3.3691959229898103	n/a	n/a	n/a	ShowChoice	Gain
35.89	1.0	0.028	112.912	3.0	1	10.3	3.46	12.0113	955.0	5.0	Outcome1	10.3	6.93	2.868	Yes	n/a	3.3691959229898103	n/a	n/a	n/a	ShowResult	Gain
36.91	3.243	0.02	113.932	3.0	1	10.3	3.46	12.0113	955.0	5.0	Outcome1	10.3	6.93	2.868	Yes	n/a	3.3691959229898103	n/a	n/a	n/a	ISITrial	Gain
40.17	2.868	0.017	117.192	3.0	1	10.3	3.46	12.0113	955.0	5.0	Outcome1	10.3	6.93	2.868	Yes	n/a	3.3691959229898103	n/a	n/a	n/a	TrialHappPreview	Gain
43.062	4.029	0.024	120.084	3.0	1	10.3	3.46	12.0113	955.0	5.0	Outcome1	10.3	6.93	2.868	Yes	n/a	3.3691959229898103	n/a	n/a	896.0	TrialHappiness	Gain
43.063	2.135	n/a	121.033	3.0	1	10.3	3.46	12.0113	955.0	5.0	Outcome1	10.3	6.93	2.868	Yes	n/a	3.3691959229898103	n/a	n/a	896.0	TrialHappinessSliderResponse	Gain
47.091	3.472	4.029	124.113	3.0	1	10.3	3.46	12.0113	955.0	5.0	Outcome1	10.3	6.93	2.868	Yes	n/a	3.3691959229898103	n/a	n/a	n/a	ISIRate	Gain
50.584	3.0	0.021	127.606	4.0	1	6.5	2.45	12.8238	955.0	1.68	Outcome2	4.9	6.5	0.0	No	2.0	1.59682899207248	0.949	51.533	n/a	GetAnswer	Gain
51.554	4.0	0.021	128.576	4.0	1	6.5	2.45	12.8238	955.0	1.68	Outcome2	4.9	6.5	0.0	No	n/a	1.59682899207248	n/a	n/a	n/a	ShowChoice	Gain
55.583	1.0	0.029	132.605	4.0	1	6.5	2.45	12.8238	955.0	1.68	Outcome2	4.9	6.5	0.0	No	n/a	1.59682899207248	n/a	n/a	n/a	ShowResult	Gain
56.602	2.011	0.019	133.624	4.0	1	6.5	2.45	12.8238	955.0	1.68	Outcome2	4.9	6.5	0.0	No	n/a	1.59682899207248	n/a	n/a	n/a	ISITrial	Gain
58.642	3.0	0.029	135.664	5.0	1	2.61	1.3	13.1501	955.0	0.4	Outcome2	2.9	2.61	2.5825	Yes	2.0	-0.294545111362778	0.849	59.491	n/a	GetAnswer	Mixed
59.511	4.0	0.02	136.533	5.0	1	2.61	1.3	13.1501	955.0	0.4	Outcome2	2.9	2.61	2.5825	Yes	n/a	-0.294545111362778	n/a	n/a	n/a	ShowChoice	Mixed
63.54	1.0	0.029	140.562	5.0	1	2.61	1.3	13.1501	955.0	0.4	Outcome2	2.9	2.61	2.5825	Yes	n/a	-0.294545111362778	n/a	n/a	n/a	ShowResult	Mixed
64.56	5.129	0.02	141.582	5.0	1	2.61	1.3	13.1501	955.0	0.4	Outcome2	2.9	2.61	2.5825	Yes	n/a	-0.294545111362778	n/a	n/a	n/a	ISITrial	Mixed
69.708	2.582	0.019	146.73	5.0	1	2.61	1.3	13.1501	955.0	0.4	Outcome2	2.9	2.61	2.5825	Yes	n/a	-0.294545111362778	n/a	n/a	n/a	TrialHappPreview	Mixed
72.316	4.029	0.026	149.338	5.0	1	2.61	1.3	13.1501	955.0	0.4	Outcome2	2.9	2.61	2.5825	Yes	n/a	-0.294545111362778	n/a	n/a	840.0	TrialHappiness	Mixed
72.317	0.824	n/a	149.959	5.0	1	2.61	1.3	13.1501	955.0	0.4	Outcome2	2.9	2.61	2.5825	Yes	n/a	-0.294545111362778	n/a	n/a	840.0	TrialHappinessSliderResponse	Mixed
76.345	2.33	4.029	153.367	5.0	1	2.61	1.3	13.1501	955.0	0.4	Outcome2	2.9	2.61	2.5825	Yes	n/a	-0.294545111362778	n/a	n/a	n/a	ISIRate	Mixed
78.702	3.0	0.027	155.724	6.0	1	11.57	5.78	14.5963	955.0	4.2	Outcome2	12.1	11.57	0.0	No	2.0	-0.527368818422046	0.939	79.641	n/a	GetAnswer	Loss
79.671	4.0	0.03	156.693	6.0	1	11.57	5.78	14.5963	955.0	4.2	Outcome2	12.1	11.57	0.0	No	n/a	-0.527368818422046	n/a	n/a	n/a	ShowChoice	Loss
83.683	1.0	0.012	160.705	6.0	1	11.57	5.78	14.5963	955.0	4.2	Outcome2	12.1	11.57	0.0	No	n/a	-0.527368818422046	n/a	n/a	n/a	ShowResult	Loss
84.703	6.232	0.02	161.725	6.0	1	11.57	5.78	14.5963	955.0	4.2	Outcome2	12.1	11.57	0.0	No	n/a	-0.527368818422046	n/a	n/a	n/a	ISITrial	Loss
90.955	3.0	0.02	167.977	7.0	1	13.7	5.44	16.3088	955.0	3.16	Outcome2	10.89	13.7	0.0	No	2.0	2.8120045300113303	0.974	91.929	n/a	GetAnswer	Loss
91.958	4.0	0.029	168.98	7.0	1	13.7	5.44	16.3088	955.0	3.16	Outcome2	10.89	13.7	0.0	No	n/a	2.8120045300113303	n/a	n/a	n/a	ShowChoice	Loss
95.97	1.0	0.012	172.992	7.0	1	13.7	5.44	16.3088	955.0	3.16	Outcome2	10.89	13.7	0.0	No	n/a	2.8120045300113303	n/a	n/a	n/a	ShowResult	Loss
96.99	2.305	0.02	174.012	7.0	1	13.7	5.44	16.3088	955.0	3.16	Outcome2	10.89	13.7	0.0	No	n/a	2.8120045300113303	n/a	n/a	n/a	ISITrial	Loss
99.313	3.0	0.018	176.335	8.0	1	5.3	1.18	16.9713	955.0	2.48	Outcome1	5.3	2.36	3.1125	Yes	2.0	2.9422423556058903	0.926	100.239	n/a	GetAnswer	Gain
100.266	4.0	0.027	177.288	8.0	1	5.3	1.18	16.9713	955.0	2.48	Outcome1	5.3	2.36	3.1125	Yes	n/a	2.9422423556058903	n/a	n/a	n/a	ShowChoice	Gain
104.278	1.0	0.012	181.3	8.0	1	5.3	1.18	16.9713	955.0	2.48	Outcome1	5.3	2.36	3.1125	Yes	n/a	2.9422423556058903	n/a	n/a	n/a	ShowResult	Gain
105.298	3.506	0.02	182.32	8.0	1	5.3	1.18	16.9713	955.0	2.48	Outcome1	5.3	2.36	3.1125	Yes	n/a	2.9422423556058903	n/a	n/a	n/a	ISITrial	Gain
108.825	3.112	0.021	185.847	8.0	1	5.3	1.18	16.9713	955.0	2.48	Outcome1	5.3	2.36	3.1125	Yes	n/a	2.9422423556058903	n/a	n/a	n/a	TrialHappPreview	Gain
111.968	4.029	0.031	188.99	8.0	1	5.3	1.18	16.9713	955.0	2.48	Outcome1	5.3	2.36	3.1125	Yes	n/a	2.9422423556058903	n/a	n/a	872.0	TrialHappiness	Gain
111.969	0.891	n/a	189.527	8.0	1	5.3	1.18	16.9713	955.0	2.48	Outcome1	5.3	2.36	3.1125	Yes	n/a	2.9422423556058903	n/a	n/a	872.0	TrialHappinessSliderResponse	Gain
115.997	4.45	4.029	193.019	8.0	1	5.3	1.18	16.9713	955.0	2.48	Outcome1	5.3	2.36	3.1125	Yes	n/a	2.9422423556058903	n/a	n/a	n/a	ISIRate	Gain
120.477	3.0	0.03	197.499	9.0	1	9.9	3.68	18.2088	955.0	3.6	Outcome2	7.37	9.9	0.0	No	2.0	2.52887882219706	0.777	121.254	n/a	GetAnswer	Gain
121.279	4.0	0.025	198.301	9.0	1	9.9	3.68	18.2088	955.0	3.6	Outcome2	7.37	9.9	0.0	No	n/a	2.52887882219706	n/a	n/a	n/a	ShowChoice	Gain
125.291	1.0	0.012	202.313	9.0	1	9.9	3.68	18.2088	955.0	3.6	Outcome2	7.37	9.9	0.0	No	n/a	2.52887882219706	n/a	n/a	n/a	ShowResult	Gain
126.311	2.0	0.02	203.333	9.0	1	9.9	3.68	18.2088	955.0	3.6	Outcome2	7.37	9.9	0.0	No	n/a	2.52887882219706	n/a	n/a	n/a	ISITrial	Gain
128.334	3.0	0.023	205.356	10.0	1	2.1	1.0	18.4713	955.0	1.5	Outcome1	2.1	-0.52	4.0	Yes	2.0	2.62287655719139	0.913	129.247	n/a	GetAnswer	Mixed
129.27	4.0	0.023	206.292	10.0	1	2.1	1.0	18.4713	955.0	1.5	Outcome1	2.1	-0.52	4.0	Yes	n/a	2.62287655719139	n/a	n/a	n/a	ShowChoice	Mixed
133.298	1.0	0.028	210.32	10.0	1	2.1	1.0	18.4713	955.0	1.5	Outcome1	2.1	-0.52	4.0	Yes	n/a	2.62287655719139	n/a	n/a	n/a	ShowResult	Mixed
134.318	2.0	0.02	211.34	10.0	1	2.1	1.0	18.4713	955.0	1.5	Outcome1	2.1	-0.52	4.0	Yes	n/a	2.62287655719139	n/a	n/a	n/a	ISITrial	Mixed
136.341	4.0	0.023	213.363	10.0	1	2.1	1.0	18.4713	955.0	1.5	Outcome1	2.1	-0.52	4.0	Yes	n/a	2.62287655719139	n/a	n/a	n/a	TrialHappPreview	Mixed
140.37	4.028	0.029	217.392	10.0	1	2.1	1.0	18.4713	955.0	1.5	Outcome1	2.1	-0.52	4.0	Yes	n/a	2.62287655719139	n/a	n/a	888.0	TrialHappiness	Mixed
140.37	0.936	n/a	217.882	10.0	1	2.1	1.0	18.4713	955.0	1.5	Outcome1	2.1	-0.52	4.0	Yes	n/a	2.62287655719139	n/a	n/a	888.0	TrialHappinessSliderResponse	Mixed
144.398	8.0	4.028	221.42	10.0	1	2.1	1.0	18.4713	955.0	1.5	Outcome1	2.1	-0.52	4.0	Yes	n/a	2.62287655719139	n/a	n/a	n/a	ISIRate	Mixed
152.422	3.0	0.024	229.444	11.0	1	2.92	1.46	18.8363	955.0	0.66	Outcome2	3.3	2.92	0.0	No	2.0	-0.380804077010192	0.929	153.351	n/a	GetAnswer	Mixed
153.375	4.0	0.024	230.397	11.0	1	2.92	1.46	18.8363	955.0	0.66	Outcome2	3.3	2.92	0.0	No	n/a	-0.380804077010192	n/a	n/a	n/a	ShowChoice	Mixed
157.404	1.0	0.029	234.426	11.0	1	2.92	1.46	18.8363	955.0	0.66	Outcome2	3.3	2.92	0.0	No	n/a	-0.380804077010192	n/a	n/a	n/a	ShowResult	Mixed
158.424	3.324	0.02	235.446	11.0	1	2.92	1.46	18.8363	955.0	0.66	Outcome2	3.3	2.92	0.0	No	n/a	-0.380804077010192	n/a	n/a	n/a	ISITrial	Mixed
161.767	3.0	0.019	238.789	12.0	1	1.51	1.0	19.0251	955.0	1.2	Outcome2	1.9	1.51	2.61875	Yes	2.0	-0.387127217818044	1.085	162.852	n/a	GetAnswer	Mixed
162.87	4.0	0.018	239.892	12.0	1	1.51	1.0	19.0251	955.0	1.2	Outcome2	1.9	1.51	2.61875	Yes	n/a	-0.387127217818044	n/a	n/a	n/a	ShowChoice	Mixed
166.882	1.0	0.012	243.904	12.0	1	1.51	1.0	19.0251	955.0	1.2	Outcome2	1.9	1.51	2.61875	Yes	n/a	-0.387127217818044	n/a	n/a	n/a	ShowResult	Mixed
167.902	6.642	0.02	244.924	12.0	1	1.51	1.0	19.0251	955.0	1.2	Outcome2	1.9	1.51	2.61875	Yes	n/a	-0.387127217818044	n/a	n/a	n/a	ISITrial	Mixed
174.572	2.619	0.028	251.594	12.0	1	1.51	1.0	19.0251	955.0	1.2	Outcome2	1.9	1.51	2.61875	Yes	n/a	-0.387127217818044	n/a	n/a	n/a	TrialHappPreview	Mixed
177.213	4.029	0.022	254.235	12.0	1	1.51	1.0	19.0251	955.0	1.2	Outcome2	1.9	1.51	2.61875	Yes	n/a	-0.387127217818044	n/a	n/a	864.0	TrialHappiness	Mixed
177.214	0.886	n/a	254.71	12.0	1	1.51	1.0	19.0251	955.0	1.2	Outcome2	1.9	1.51	2.61875	Yes	n/a	-0.387127217818044	n/a	n/a	864.0	TrialHappinessSliderResponse	Mixed
181.242	2.475	4.029	258.264	12.0	1	1.51	1.0	19.0251	955.0	1.2	Outcome2	1.9	1.51	2.61875	Yes	n/a	-0.387127217818044	n/a	n/a	n/a	ISIRate	Mixed
183.749	3.0	0.032	260.771	13.0	1	5.81	2.9	19.7514	955.0	5.0	Outcome1	5.81	6.3	0.0	No	2.0	-0.490845602114005	0.888	184.637	n/a	GetAnswer	Gain
184.652	4.0	0.015	261.674	13.0	1	5.81	2.9	19.7514	955.0	5.0	Outcome1	5.81	6.3	0.0	No	n/a	-0.490845602114005	n/a	n/a	n/a	ShowChoice	Gain
188.681	1.0	0.029	265.703	13.0	1	5.81	2.9	19.7514	955.0	5.0	Outcome1	5.81	6.3	0.0	No	n/a	-0.490845602114005	n/a	n/a	n/a	ShowResult	Gain
189.7	3.48	0.019	266.722	13.0	1	5.81	2.9	19.7514	955.0	5.0	Outcome1	5.81	6.3	0.0	No	n/a	-0.490845602114005	n/a	n/a	n/a	ISITrial	Gain
193.211	3.0	0.031	270.233	14.0	1	13.1	5.0	21.3889	955.0	2.22	Outcome2	9.99	13.1	0.0	No	2.0	3.10758776896942	0.855	194.066	n/a	GetAnswer	Loss
194.097	4.0	0.031	271.119	14.0	1	13.1	5.0	21.3889	955.0	2.22	Outcome2	9.99	13.1	0.0	No	n/a	3.10758776896942	n/a	n/a	n/a	ShowChoice	Loss
198.126	1.0	0.029	275.148	14.0	1	13.1	5.0	21.3889	955.0	2.22	Outcome2	9.99	13.1	0.0	No	n/a	3.10758776896942	n/a	n/a	n/a	ShowResult	Loss
199.145	5.019	0.019	276.167	14.0	1	13.1	5.0	21.3889	955.0	2.22	Outcome2	9.99	13.1	0.0	No	n/a	3.10758776896942	n/a	n/a	n/a	ISITrial	Loss
204.194	3.0	0.03	281.216	15.0	1	8.1	2.44	22.4014	955.0	4.2	Outcome1	8.1	4.89	3.3485	Yes	2.0	3.21064552661382	0.903	205.097	n/a	GetAnswer	Gain
205.113	4.0	0.016	282.135	15.0	1	8.1	2.44	22.4014	955.0	4.2	Outcome1	8.1	4.89	3.3485	Yes	n/a	3.21064552661382	n/a	n/a	n/a	ShowChoice	Gain
209.125	1.0	0.012	286.147	15.0	1	8.1	2.44	22.4014	955.0	4.2	Outcome1	8.1	4.89	3.3485	Yes	n/a	3.21064552661382	n/a	n/a	n/a	ShowResult	Gain
210.145	7.614	0.02	287.167	15.0	1	8.1	2.44	22.4014	955.0	4.2	Outcome1	8.1	4.89	3.3485	Yes	n/a	3.21064552661382	n/a	n/a	n/a	ISITrial	Gain
217.784	3.348	0.025	294.806	15.0	1	8.1	2.44	22.4014	955.0	4.2	Outcome1	8.1	4.89	3.3485	Yes	n/a	3.21064552661382	n/a	n/a	n/a	TrialHappPreview	Gain
221.161	4.029	0.029	298.183	15.0	1	8.1	2.44	22.4014	955.0	4.2	Outcome1	8.1	4.89	3.3485	Yes	2{-2}	3.21064552661382	1.293	222.454	872.0	TrialHappiness	Gain
221.162	0.893	n/a	298.584	15.0	1	8.1	2.44	22.4014	955.0	4.2	Outcome1	8.1	4.89	3.3485	Yes	n/a	3.21064552661382	n/a	n/a	872.0	TrialHappinessSliderResponse	Gain
225.19	5.394	4.029	302.212	15.0	1	8.1	2.44	22.4014	955.0	4.2	Outcome1	8.1	4.89	3.3485	Yes	n/a	3.21064552661382	n/a	n/a	n/a	ISIRate	Gain
230.606	3.0	0.022	307.628	16.0	1	3.5	2.0	22.8389	955.0	0.82	Outcome1	3.5	0.32	0.0	No	2.0	3.17780294450736	0.833	231.439	n/a	GetAnswer	Mixed
231.459	4.0	0.02	308.481	16.0	1	3.5	2.0	22.8389	955.0	0.82	Outcome1	3.5	0.32	0.0	No	n/a	3.17780294450736	n/a	n/a	n/a	ShowChoice	Mixed
235.487	1.0	0.028	312.509	16.0	1	3.5	2.0	22.8389	955.0	0.82	Outcome1	3.5	0.32	0.0	No	n/a	3.17780294450736	n/a	n/a	n/a	ShowResult	Mixed
236.507	3.008	0.02	313.529	16.0	1	3.5	2.0	22.8389	955.0	0.82	Outcome1	3.5	0.32	0.0	No	n/a	3.17780294450736	n/a	n/a	n/a	ISITrial	Mixed
239.549	3.0	0.034	316.571	17.0	1	6.9	1.82	23.7014	955.0	2.0	Outcome2	3.63	6.9	3.0415	Yes	2.0	3.2718006795017005	1.314	240.863	n/a	GetAnswer	Gain
240.887	4.0	0.024	317.909	17.0	1	6.9	1.82	23.7014	955.0	2.0	Outcome2	3.63	6.9	3.0415	Yes	n/a	3.2718006795017005	n/a	n/a	n/a	ShowChoice	Gain
244.915	1.0	0.028	321.937	17.0	1	6.9	1.82	23.7014	955.0	2.0	Outcome2	3.63	6.9	3.0415	Yes	n/a	3.2718006795017005	n/a	n/a	n/a	ShowResult	Gain
245.935	3.566	0.02	322.957	17.0	1	6.9	1.82	23.7014	955.0	2.0	Outcome2	3.63	6.9	3.0415	Yes	n/a	3.2718006795017005	n/a	n/a	n/a	ISITrial	Gain
249.529	3.042	0.028	326.551	17.0	1	6.9	1.82	23.7014	955.0	2.0	Outcome2	3.63	6.9	3.0415	Yes	n/a	3.2718006795017005	n/a	n/a	n/a	TrialHappPreview	Gain
252.605	4.012	0.034	329.627	17.0	1	6.9	1.82	23.7014	955.0	2.0	Outcome2	3.63	6.9	3.0415	Yes	n/a	3.2718006795017005	n/a	n/a	872.0	TrialHappiness	Gain
252.606	0.891	n/a	330.013	17.0	1	6.9	1.82	23.7014	955.0	2.0	Outcome2	3.63	6.9	3.0415	Yes	n/a	3.2718006795017005	n/a	n/a	872.0	TrialHappinessSliderResponse	Gain
256.617	4.166	4.012	333.639	17.0	1	6.9	1.82	23.7014	955.0	2.0	Outcome2	3.63	6.9	3.0415	Yes	n/a	3.2718006795017005	n/a	n/a	n/a	ISIRate	Gain
260.813	3.0	0.03	337.835	18.0	1	5.0	2.5	24.3264	955.0	2.8	Outcome2	5.5	5.0	0.0	No	2.0	-0.4998112495281239	1.084	261.897	n/a	GetAnswer	Gain
261.916	4.0	0.019	338.938	18.0	1	5.0	2.5	24.3264	955.0	2.8	Outcome2	5.5	5.0	0.0	No	n/a	-0.4998112495281239	n/a	n/a	n/a	ShowChoice	Gain
265.945	1.0	0.029	342.967	18.0	1	5.0	2.5	24.3264	955.0	2.8	Outcome2	5.5	5.0	0.0	No	n/a	-0.4998112495281239	n/a	n/a	n/a	ShowResult	Gain
266.965	6.787	0.02	343.987	18.0	1	5.0	2.5	24.3264	955.0	2.8	Outcome2	5.5	5.0	0.0	No	n/a	-0.4998112495281239	n/a	n/a	n/a	ISITrial	Gain
273.785	3.0	0.033	350.807	19.0	1	7.39	3.7	25.2502	955.0	3.6	Outcome2	7.9	7.39	0.0	No	2.0	-0.5076443941109849	1.039	274.824	n/a	GetAnswer	Gain
274.855	4.0	0.031	351.877	19.0	1	7.39	3.7	25.2502	955.0	3.6	Outcome2	7.9	7.39	0.0	No	n/a	-0.5076443941109849	n/a	n/a	n/a	ShowChoice	Gain
278.884	1.0	0.029	355.906	19.0	1	7.39	3.7	25.2502	955.0	3.6	Outcome2	7.9	7.39	0.0	No	n/a	-0.5076443941109849	n/a	n/a	n/a	ShowResult	Gain
279.903	2.0	0.019	356.925	19.0	1	7.39	3.7	25.2502	955.0	3.6	Outcome2	7.9	7.39	0.0	No	n/a	-0.5076443941109849	n/a	n/a	n/a	ISITrial	Gain
281.926	3.0	0.023	358.948	20.0	1	2.58	1.29	25.5727	955.0	0.52	Outcome2	3.1	2.58	2.92125	Yes	2.0	-0.515477538693847	1.227	283.153	n/a	GetAnswer	Mixed
283.18	4.0	0.027	360.202	20.0	1	2.58	1.29	25.5727	955.0	0.52	Outcome2	3.1	2.58	2.92125	Yes	n/a	-0.515477538693847	n/a	n/a	n/a	ShowChoice	Mixed
287.209	1.0	0.029	364.231	20.0	1	2.58	1.29	25.5727	955.0	0.52	Outcome2	3.1	2.58	2.92125	Yes	n/a	-0.515477538693847	n/a	n/a	n/a	ShowResult	Mixed
288.228	8.0	0.019	365.25	20.0	1	2.58	1.29	25.5727	955.0	0.52	Outcome2	3.1	2.58	2.92125	Yes	n/a	-0.515477538693847	n/a	n/a	n/a	ISITrial	Mixed
296.252	2.921	0.024	373.274	20.0	1	2.58	1.29	25.5727	955.0	0.52	Outcome2	3.1	2.58	2.92125	Yes	n/a	-0.515477538693847	n/a	n/a	n/a	TrialHappPreview	Mixed
299.194	4.029	0.021	376.216	20.0	1	2.58	1.29	25.5727	955.0	0.52	Outcome2	3.1	2.58	2.92125	Yes	n/a	-0.515477538693847	n/a	n/a	864.0	TrialHappiness	Mixed
299.195	0.874	n/a	376.603	20.0	1	2.58	1.29	25.5727	955.0	0.52	Outcome2	3.1	2.58	2.92125	Yes	n/a	-0.515477538693847	n/a	n/a	864.0	TrialHappinessSliderResponse	Mixed
303.223	3.685	4.029	380.245	20.0	1	2.58	1.29	25.5727	955.0	0.52	Outcome2	3.1	2.58	2.92125	Yes	n/a	-0.515477538693847	n/a	n/a	n/a	ISIRate	Mixed
306.934	3.0	0.026	383.956	21.0	1	-3.0	-3.0	25.1977	955.0	0.4	Certain	-4.88	-1.1	0.0	No	4.0	3.7836919592299	1.396	308.33	n/a	GetAnswer	Mixed
308.355	4.0	0.025	385.377	21.0	1	-3.0	-3.0	25.1977	955.0	0.4	Certain	-4.88	-1.1	0.0	No	n/a	3.7836919592299	n/a	n/a	n/a	ShowChoice	Mixed
312.384	1.0	0.029	389.406	21.0	1	-3.0	-3.0	25.1977	955.0	0.4	Certain	-4.88	-1.1	0.0	No	n/a	3.7836919592299	n/a	n/a	n/a	ShowResult	Mixed
313.404	3.555	0.02	390.426	21.0	1	-3.0	-3.0	25.1977	955.0	0.4	Certain	-4.88	-1.1	0.0	No	n/a	3.7836919592299	n/a	n/a	n/a	ISITrial	Mixed
316.981	3.0	0.022	394.003	22.0	1	0.0	0.0	25.1977	955.0	1.5	Certain	0.1	-0.46	3.2195	Yes	4.0	-0.564363910909777	1.62	318.601	n/a	GetAnswer	Mixed
318.619	4.0	0.018	395.641	22.0	1	0.0	0.0	25.1977	955.0	1.5	Certain	0.1	-0.46	3.2195	Yes	n/a	-0.564363910909777	n/a	n/a	n/a	ShowChoice	Mixed
322.631	1.0	0.012	399.653	22.0	1	0.0	0.0	25.1977	955.0	1.5	Certain	0.1	-0.46	3.2195	Yes	n/a	-0.564363910909777	n/a	n/a	n/a	ShowResult	Mixed
323.651	6.793	0.02	400.673	22.0	1	0.0	0.0	25.1977	955.0	1.5	Certain	0.1	-0.46	3.2195	Yes	n/a	-0.564363910909777	n/a	n/a	n/a	ISITrial	Mixed
330.471	3.22	0.027	407.493	22.0	1	0.0	0.0	25.1977	955.0	1.5	Certain	0.1	-0.46	3.2195	Yes	n/a	-0.564363910909777	n/a	n/a	n/a	TrialHappPreview	Mixed
333.714	4.029	0.023	410.736	22.0	1	0.0	0.0	25.1977	955.0	1.5	Certain	0.1	-0.46	3.2195	Yes	n/a	-0.564363910909777	n/a	n/a	880.0	TrialHappiness	Mixed
333.715	0.914	n/a	411.183	22.0	1	0.0	0.0	25.1977	955.0	1.5	Certain	0.1	-0.46	3.2195	Yes	n/a	-0.564363910909777	n/a	n/a	880.0	TrialHappinessSliderResponse	Mixed
337.743	4.878	4.029	414.765	22.0	1	0.0	0.0	25.1977	955.0	1.5	Certain	0.1	-0.46	3.2195	Yes	n/a	-0.564363910909777	n/a	n/a	n/a	ISIRate	Mixed
342.641	3.0	0.02	419.663	23.0	1	-1.01	-1.0	25.0715	955.0	0.82	Outcome1	-1.01	-0.5	0.0	No	2.0	-0.508021895054738	2.047	344.688	n/a	GetAnswer	Mixed
344.714	4.0	0.026	421.736	23.0	1	-1.01	-1.0	25.0715	955.0	0.82	Outcome1	-1.01	-0.5	0.0	No	n/a	-0.508021895054738	n/a	n/a	n/a	ShowChoice	Mixed
348.743	1.0	0.029	425.765	23.0	1	-1.01	-1.0	25.0715	955.0	0.82	Outcome1	-1.01	-0.5	0.0	No	n/a	-0.508021895054738	n/a	n/a	n/a	ShowResult	Mixed
349.762	8.0	0.019	426.784	23.0	1	-1.01	-1.0	25.0715	955.0	0.82	Outcome1	-1.01	-0.5	0.0	No	n/a	-0.508021895054738	n/a	n/a	n/a	ISITrial	Mixed
357.786	3.0	0.024	434.808	24.0	1	7.1	1.65	25.959	955.0	2.22	Outcome2	3.3	7.1	3.255	Yes	2.0	3.80294450736127	1.197	358.983	n/a	GetAnswer	Gain
359.007	4.0	0.024	436.029	24.0	1	7.1	1.65	25.959	955.0	2.22	Outcome2	3.3	7.1	3.255	Yes	n/a	3.80294450736127	n/a	n/a	n/a	ShowChoice	Gain
363.035	1.0	0.028	440.057	24.0	1	7.1	1.65	25.959	955.0	2.22	Outcome2	3.3	7.1	3.255	Yes	n/a	3.80294450736127	n/a	n/a	n/a	ShowResult	Gain
364.055	2.0	0.02	441.077	24.0	1	7.1	1.65	25.959	955.0	2.22	Outcome2	3.3	7.1	3.255	Yes	n/a	3.80294450736127	n/a	n/a	n/a	ISITrial	Gain
366.078	3.255	0.023	443.1	24.0	1	7.1	1.65	25.959	955.0	2.22	Outcome2	3.3	7.1	3.255	Yes	n/a	3.80294450736127	n/a	n/a	n/a	TrialHappPreview	Gain
369.354	4.029	0.021	446.376	24.0	1	7.1	1.65	25.959	955.0	2.22	Outcome2	3.3	7.1	3.255	Yes	n/a	3.80294450736127	n/a	n/a	872.0	TrialHappiness	Gain
369.355	0.898	n/a	446.806	24.0	1	7.1	1.65	25.959	955.0	2.22	Outcome2	3.3	7.1	3.255	Yes	n/a	3.80294450736127	n/a	n/a	872.0	TrialHappinessSliderResponse	Gain
373.383	5.02	4.029	450.405	24.0	1	7.1	1.65	25.959	955.0	2.22	Outcome2	3.3	7.1	3.255	Yes	n/a	3.80294450736127	n/a	n/a	n/a	ISIRate	Gain
378.431	3.0	0.028	455.453	25.0	1	9.7	2.84	27.1715	955.0	3.16	Outcome2	5.68	9.7	0.0	No	2.0	4.0237825594564	0.896	379.327	n/a	GetAnswer	Gain
379.351	4.0	0.024	456.373	25.0	1	9.7	2.84	27.1715	955.0	3.16	Outcome2	5.68	9.7	0.0	No	n/a	4.0237825594564	n/a	n/a	n/a	ShowChoice	Gain
383.379	1.0	0.028	460.401	25.0	1	9.7	2.84	27.1715	955.0	3.16	Outcome2	5.68	9.7	0.0	No	n/a	4.0237825594564	n/a	n/a	n/a	ShowResult	Gain
384.399	3.749	0.02	461.421	25.0	1	9.7	2.84	27.1715	955.0	3.16	Outcome2	5.68	9.7	0.0	No	n/a	4.0237825594564	n/a	n/a	n/a	ISITrial	Gain
388.177	3.0	0.029	465.199	26.0	1	12.7	4.29	28.759	955.0	1.82	Outcome2	8.58	12.7	0.0	No	2.0	4.11778029445073	1.112	389.289	n/a	GetAnswer	Loss
389.314	4.0	0.025	466.336	26.0	1	12.7	4.29	28.759	955.0	1.82	Outcome2	8.58	12.7	0.0	No	n/a	4.11778029445073	n/a	n/a	n/a	ShowChoice	Loss
393.343	1.0	0.029	470.365	26.0	1	12.7	4.29	28.759	955.0	1.82	Outcome2	8.58	12.7	0.0	No	n/a	4.11778029445073	n/a	n/a	n/a	ShowResult	Loss
394.362	7.834	0.019	471.384	26.0	1	12.7	4.29	28.759	955.0	1.82	Outcome2	8.58	12.7	0.0	No	n/a	4.11778029445073	n/a	n/a	n/a	ISITrial	Loss
402.219	3.0	0.023	479.241	27.0	1	2.0	2.0	29.009	955.0	1.68	Certain	0.29	4.5	2.54975	Yes	4.0	4.21177802944507	1.578	403.797	n/a	GetAnswer	Gain
403.824	4.0	0.027	480.846	27.0	1	2.0	2.0	29.009	955.0	1.68	Certain	0.29	4.5	2.54975	Yes	n/a	4.21177802944507	n/a	n/a	n/a	ShowChoice	Gain
407.836	1.0	0.012	484.858	27.0	1	2.0	2.0	29.009	955.0	1.68	Certain	0.29	4.5	2.54975	Yes	n/a	4.21177802944507	n/a	n/a	n/a	ShowResult	Gain
408.856	4.225	0.02	485.878	27.0	1	2.0	2.0	29.009	955.0	1.68	Certain	0.29	4.5	2.54975	Yes	n/a	4.21177802944507	n/a	n/a	n/a	ISITrial	Gain
413.102	2.55	0.021	490.124	27.0	1	2.0	2.0	29.009	955.0	1.68	Certain	0.29	4.5	2.54975	Yes	n/a	4.21177802944507	n/a	n/a	n/a	TrialHappPreview	Gain
415.676	4.029	0.024	492.698	27.0	1	2.0	2.0	29.009	955.0	1.68	Certain	0.29	4.5	2.54975	Yes	n/a	4.21177802944507	n/a	n/a	880.0	TrialHappiness	Gain
415.677	0.921	n/a	493.121	27.0	1	2.0	2.0	29.009	955.0	1.68	Certain	0.29	4.5	2.54975	Yes	n/a	4.21177802944507	n/a	n/a	880.0	TrialHappinessSliderResponse	Gain
419.705	2.199	4.029	496.727	27.0	1	2.0	2.0	29.009	955.0	1.68	Certain	0.29	4.5	2.54975	Yes	n/a	4.21177802944507	n/a	n/a	n/a	ISIRate	Gain
524.87	0.846	n/a	602.389	n/a	1	n/a	n/a	n/a	n/a	n/a	n/a	n/a	n/a	n/a	n/a	n/a	n/a	n/a	n/a	848.0	BlockStartHappinessSliderResponse	n/a
-114.208	-0.001	0.024	498.95	n/a	2	n/a	n/a	n/a	n/a	n/a	n/a	n/a	n/a	n/a	n/a	{SPACE}	n/a	98.915	-15.293	n/a	Rest	n/a
-15.279	4.0	0.014	597.879	n/a	2	n/a	n/a	n/a	n/a	n/a	n/a	n/a	n/a	n/a	n/a	n/a	n/a	n/a	n/a	n/a	BlockHappyPreview	n/a
-11.267	1.343	0.012	601.891	n/a	2	n/a	n/a	n/a	n/a	n/a	n/a	n/a	n/a	n/a	n/a	n/a	n/a	n/a	n/a	848.0	BlockStartHappiness	n/a
-6.035	-0.001	0.011	607.123	n/a	2	n/a	n/a	n/a	n/a	n/a	n/a	n/a	n/a	n/a	n/a	5.0	n/a	6.016	-0.019	n/a	ScanWait	n/a
0.0	10.0	0.019	613.158	n/a	2	n/a	n/a	n/a	n/a	n/a	n/a	n/a	n/a	n/a	n/a	n/a	n/a	n/a	n/a	n/a	GetReady	n/a
10.013	3.0	0.013	623.171	28.0	2	1.0	1.0	29.134	70.0	5.0	Certain	8.3	-4.93	0.0	No	4.0	-13.2312925170068	1.482	11.495	n/a	GetAnswer	Gain
11.518	4.0	0.023	624.676	28.0	2	1.0	1.0	29.134	70.0	5.0	Certain	8.3	-4.93	0.0	No	n/a	-13.2312925170068	n/a	n/a	n/a	ShowChoice	Gain
15.53	1.0	0.012	628.688	28.0	2	1.0	1.0	29.134	70.0	5.0	Certain	8.3	-4.93	0.0	No	n/a	-13.2312925170068	n/a	n/a	n/a	ShowResult	Gain
16.55	3.575	0.02	629.708	28.0	2	1.0	1.0	29.134	70.0	5.0	Certain	8.3	-4.93	0.0	No	n/a	-13.2312925170068	n/a	n/a	n/a	ISITrial	Gain
20.144	3.0	0.019	633.302	29.0	2	1.0	1.0	29.259	70.0	1.82	Certain	-5.41	8.7	3.529	Yes	4.0	-14.1133786848073	1.259	21.403	n/a	GetAnswer	Gain
21.414	4.0	0.011	634.572	29.0	2	1.0	1.0	29.259	70.0	1.82	Certain	-5.41	8.7	3.529	Yes	n/a	-14.1133786848073	n/a	n/a	n/a	ShowChoice	Gain
25.426	1.0	0.012	638.584	29.0	2	1.0	1.0	29.259	70.0	1.82	Certain	-5.41	8.7	3.529	Yes	n/a	-14.1133786848073	n/a	n/a	n/a	ShowResult	Gain
26.446	3.955	0.02	639.604	29.0	2	1.0	1.0	29.259	70.0	1.82	Certain	-5.41	8.7	3.529	Yes	n/a	-14.1133786848073	n/a	n/a	n/a	ISITrial	Gain
30.424	3.529	0.023	643.582	29.0	2	1.0	1.0	29.259	70.0	1.82	Certain	-5.41	8.7	3.529	Yes	n/a	-14.1133786848073	n/a	n/a	n/a	TrialHappPreview	Gain
33.968	4.012	0.015	647.126	29.0	2	1.0	1.0	29.259	70.0	1.82	Certain	-5.41	8.7	3.529	Yes	n/a	-14.1133786848073	n/a	n/a	800.0	TrialHappiness	Gain
33.969	0.743	n/a	647.561	29.0	2	1.0	1.0	29.259	70.0	1.82	Certain	-5.41	8.7	3.529	Yes	n/a	-14.1133786848073	n/a	n/a	800.0	TrialHappinessSliderResponse	Gain
37.98	6.116	4.012	651.138	29.0	2	1.0	1.0	29.259	70.0	1.82	Certain	-5.41	8.7	3.529	Yes	n/a	-14.1133786848073	n/a	n/a	n/a	ISIRate	Gain
44.115	3.0	0.019	657.273	30.0	2	0.0	0.0	29.259	70.0	1.82	Certain	6.7	-7.48	0.0	No	4.0	-14.1791383219955	1.29	45.405	n/a	GetAnswer	Gain
45.419	4.0	0.014	658.577	30.0	2	0.0	0.0	29.259	70.0	1.82	Certain	6.7	-7.48	0.0	No	n/a	-14.1791383219955	n/a	n/a	n/a	ShowChoice	Gain
49.431	1.0	0.012	662.589	30.0	2	0.0	0.0	29.259	70.0	1.82	Certain	6.7	-7.48	0.0	No	n/a	-14.1791383219955	n/a	n/a	n/a	ShowResult	Gain
50.451	4.453	0.02	663.609	30.0	2	0.0	0.0	29.259	70.0	1.82	Certain	6.7	-7.48	0.0	No	n/a	-14.1791383219955	n/a	n/a	n/a	ISITrial	Gain
54.931	3.0	0.027	668.089	31.0	2	2.0	2.0	29.509	70.0	2.8	Certain	-5.51	9.5	2.50325	Yes	4.0	-15.0068027210884	1.278	56.209	n/a	GetAnswer	Gain
56.235	4.0	0.026	669.393	31.0	2	2.0	2.0	29.509	70.0	2.8	Certain	-5.51	9.5	2.50325	Yes	n/a	-15.0068027210884	n/a	n/a	n/a	ShowChoice	Gain
60.247	1.0	0.012	673.405	31.0	2	2.0	2.0	29.509	70.0	2.8	Certain	-5.51	9.5	2.50325	Yes	n/a	-15.0068027210884	n/a	n/a	n/a	ShowResult	Gain
61.267	4.786	0.02	674.425	31.0	2	2.0	2.0	29.509	70.0	2.8	Certain	-5.51	9.5	2.50325	Yes	n/a	-15.0068027210884	n/a	n/a	n/a	ISITrial	Gain
66.064	2.503	0.011	679.222	31.0	2	2.0	2.0	29.509	70.0	2.8	Certain	-5.51	9.5	2.50325	Yes	n/a	-15.0068027210884	n/a	n/a	n/a	TrialHappPreview	Gain
68.589	4.012	0.022	681.747	31.0	2	2.0	2.0	29.509	70.0	2.8	Certain	-5.51	9.5	2.50325	Yes	2{-2}	-15.0068027210884	1.259	69.848	816.0	TrialHappiness	Gain
68.589	0.78	n/a	682.226	31.0	2	2.0	2.0	29.509	70.0	2.8	Certain	-5.51	9.5	2.50325	Yes	n/a	-15.0068027210884	n/a	n/a	816.0	TrialHappinessSliderResponse	Gain
72.601	2.013	4.012	685.759	31.0	2	2.0	2.0	29.509	70.0	2.8	Certain	-5.51	9.5	2.50325	Yes	n/a	-15.0068027210884	n/a	n/a	n/a	ISIRate	Gain
74.64	3.0	0.026	687.798	32.0	2	-2.6	-2.6	29.184	70.0	2.0	Certain	-5.21	10.9	0.0	No	4.0	-16.1065759637188	1.811	76.451	n/a	GetAnswer	Loss
76.462	4.0	0.011	689.62	32.0	2	-2.6	-2.6	29.184	70.0	2.0	Certain	-5.21	10.9	0.0	No	n/a	-16.1065759637188	n/a	n/a	n/a	ShowChoice	Loss
80.474	1.0	0.012	693.632	32.0	2	-2.6	-2.6	29.184	70.0	2.0	Certain	-5.21	10.9	0.0	No	n/a	-16.1065759637188	n/a	n/a	n/a	ShowResult	Loss
81.494	2.0	0.02	694.652	32.0	2	-2.6	-2.6	29.184	70.0	2.0	Certain	-5.21	10.9	0.0	No	n/a	-16.1065759637188	n/a	n/a	n/a	ISITrial	Loss
83.517	3.0	0.023	696.675	33.0	2	-2.0	-2.0	28.934	70.0	0.66	Certain	-3.57	-0.18	0.0	No	4.0	3.38624338624339	1.854	85.371	n/a	GetAnswer	Mixed
85.389	4.0	0.018	698.547	33.0	2	-2.0	-2.0	28.934	70.0	0.66	Certain	-3.57	-0.18	0.0	No	n/a	3.38624338624339	n/a	n/a	n/a	ShowChoice	Mixed
89.401	1.0	0.012	702.559	33.0	2	-2.0	-2.0	28.934	70.0	0.66	Certain	-3.57	-0.18	0.0	No	n/a	3.38624338624339	n/a	n/a	n/a	ShowResult	Mixed
90.421	5.099	0.02	703.579	33.0	2	-2.0	-2.0	28.934	70.0	0.66	Certain	-3.57	-0.18	0.0	No	n/a	3.38624338624339	n/a	n/a	n/a	ISITrial	Mixed
95.536	3.0	0.016	708.694	34.0	2	-1.0	-1.0	28.809	70.0	2.0	Certain	0.08	-3.38	3.2315	Yes	4.0	3.45672713529856	1.687	97.223	n/a	GetAnswer	Mixed
97.241	4.0	0.018	710.399	34.0	2	-1.0	-1.0	28.809	70.0	2.0	Certain	0.08	-3.38	3.2315	Yes	n/a	3.45672713529856	n/a	n/a	n/a	ShowChoice	Mixed
101.253	1.0	0.012	714.411	34.0	2	-1.0	-1.0	28.809	70.0	2.0	Certain	0.08	-3.38	3.2315	Yes	n/a	3.45672713529856	n/a	n/a	n/a	ShowResult	Mixed
102.273	4.784	0.02	715.431	34.0	2	-1.0	-1.0	28.809	70.0	2.0	Certain	0.08	-3.38	3.2315	Yes	n/a	3.45672713529856	n/a	n/a	n/a	ISITrial	Mixed
107.07	3.232	0.013	720.228	34.0	2	-1.0	-1.0	28.809	70.0	2.0	Certain	0.08	-3.38	3.2315	Yes	n/a	3.45672713529856	n/a	n/a	n/a	TrialHappPreview	Mixed
110.33	4.012	0.028	723.488	34.0	2	-1.0	-1.0	28.809	70.0	2.0	Certain	0.08	-3.38	3.2315	Yes	n/a	3.45672713529856	n/a	n/a	824.0	TrialHappiness	Mixed
110.331	0.79	n/a	723.96	34.0	2	-1.0	-1.0	28.809	70.0	2.0	Certain	0.08	-3.38	3.2315	Yes	n/a	3.45672713529856	n/a	n/a	824.0	TrialHappinessSliderResponse	Mixed
114.342	4.926	4.012	727.5	34.0	2	-1.0	-1.0	28.809	70.0	2.0	Certain	0.08	-3.38	3.2315	Yes	n/a	3.45672713529856	n/a	n/a	n/a	ISIRate	Mixed
119.29	3.0	0.022	732.448	35.0	2	-2.0	-2.0	28.559	70.0	2.48	Certain	7.3	-11.48	0.0	No	4.0	-18.7800453514739	1.348	120.638	n/a	GetAnswer	Gain
120.661	4.0	0.023	733.819	35.0	2	-2.0	-2.0	28.559	70.0	2.48	Certain	7.3	-11.48	0.0	No	n/a	-18.7800453514739	n/a	n/a	n/a	ShowChoice	Gain
124.673	1.0	0.012	737.831	35.0	2	-2.0	-2.0	28.559	70.0	2.48	Certain	7.3	-11.48	0.0	No	n/a	-18.7800453514739	n/a	n/a	n/a	ShowResult	Gain
125.693	2.098	0.02	738.851	35.0	2	-2.0	-2.0	28.559	70.0	2.48	Certain	7.3	-11.48	0.0	No	n/a	-18.7800453514739	n/a	n/a	n/a	ISITrial	Gain
127.816	3.0	0.025	740.974	36.0	2	-5.0	-5.0	27.934	70.0	1.82	Certain	-14.93	4.7	3.33575	Yes	4.0	-19.6349206349206	1.612	129.428	n/a	GetAnswer	Gain
129.454	4.0	0.026	742.612	36.0	2	-5.0	-5.0	27.934	70.0	1.82	Certain	-14.93	4.7	3.33575	Yes	n/a	-19.6349206349206	n/a	n/a	n/a	ShowChoice	Gain
133.466	1.0	0.012	746.624	36.0	2	-5.0	-5.0	27.934	70.0	1.82	Certain	-14.93	4.7	3.33575	Yes	n/a	-19.6349206349206	n/a	n/a	n/a	ShowResult	Gain
134.486	5.156	0.02	747.644	36.0	2	-5.0	-5.0	27.934	70.0	1.82	Certain	-14.93	4.7	3.33575	Yes	n/a	-19.6349206349206	n/a	n/a	n/a	ISITrial	Gain
139.668	3.336	0.026	752.826	36.0	2	-5.0	-5.0	27.934	70.0	1.82	Certain	-14.93	4.7	3.33575	Yes	n/a	-19.6349206349206	n/a	n/a	n/a	TrialHappPreview	Gain
143.028	4.012	0.024	756.186	36.0	2	-5.0	-5.0	27.934	70.0	1.82	Certain	-14.93	4.7	3.33575	Yes	n/a	-19.6349206349206	n/a	n/a	824.0	TrialHappiness	Gain
143.028	2.36	n/a	756.626	36.0	2	-5.0	-5.0	27.934	70.0	1.82	Certain	-14.93	4.7	3.33575	Yes	n/a	-19.6349206349206	n/a	n/a	824.0	TrialHappinessSliderResponse	Gain
147.04	5.343	4.012	760.198	36.0	2	-5.0	-5.0	27.934	70.0	1.82	Certain	-14.93	4.7	3.33575	Yes	n/a	-19.6349206349206	n/a	n/a	n/a	ISIRate	Gain
152.406	3.0	0.023	765.564	37.0	2	0.0	0.0	27.934	70.0	4.2	Certain	-10.39	10.1	0.0	No	4.0	-20.4897959183673	1.306	153.712	n/a	GetAnswer	Gain
153.726	4.0	0.014	766.884	37.0	2	0.0	0.0	27.934	70.0	4.2	Certain	-10.39	10.1	0.0	No	n/a	-20.4897959183673	n/a	n/a	n/a	ShowChoice	Gain
157.738	1.0	0.012	770.896	37.0	2	0.0	0.0	27.934	70.0	4.2	Certain	-10.39	10.1	0.0	No	n/a	-20.4897959183673	n/a	n/a	n/a	ShowResult	Gain
158.758	3.598	0.02	771.916	37.0	2	0.0	0.0	27.934	70.0	4.2	Certain	-10.39	10.1	0.0	No	n/a	-20.4897959183673	n/a	n/a	n/a	ISITrial	Gain
162.386	3.0	0.03	775.544	38.0	2	-2.0	-2.0	27.684	70.0	0.2	Certain	-3.65	0.12	0.0	No	4.0	3.77343159486017	1.681	164.067	n/a	GetAnswer	Mixed
164.091	4.0	0.024	777.249	38.0	2	-2.0	-2.0	27.684	70.0	0.2	Certain	-3.65	0.12	0.0	No	n/a	3.77343159486017	n/a	n/a	n/a	ShowChoice	Mixed
168.103	1.0	0.012	781.261	38.0	2	-2.0	-2.0	27.684	70.0	0.2	Certain	-3.65	0.12	0.0	No	n/a	3.77343159486017	n/a	n/a	n/a	ShowResult	Mixed
169.122	4.787	0.019	782.28	38.0	2	-2.0	-2.0	27.684	70.0	0.2	Certain	-3.65	0.12	0.0	No	n/a	3.77343159486017	n/a	n/a	n/a	ISITrial	Mixed
173.937	3.0	0.028	787.095	39.0	2	-9.0	-9.0	26.559	70.0	2.0	Certain	2.3	-19.9	2.86425	Yes	4.0	-22.1995464852608	1.808	175.745	n/a	GetAnswer	Mixed
175.759	4.0	0.014	788.917	39.0	2	-9.0	-9.0	26.559	70.0	2.0	Certain	2.3	-19.9	2.86425	Yes	n/a	-22.1995464852608	n/a	n/a	n/a	ShowChoice	Mixed
179.771	1.0	0.012	792.929	39.0	2	-9.0	-9.0	26.559	70.0	2.0	Certain	2.3	-19.9	2.86425	Yes	n/a	-22.1995464852608	n/a	n/a	n/a	ShowResult	Mixed
180.791	2.348	0.02	793.949	39.0	2	-9.0	-9.0	26.559	70.0	2.0	Certain	2.3	-19.9	2.86425	Yes	n/a	-22.1995464852608	n/a	n/a	n/a	ISITrial	Mixed
183.164	2.864	0.025	796.322	39.0	2	-9.0	-9.0	26.559	70.0	2.0	Certain	2.3	-19.9	2.86425	Yes	n/a	-22.1995464852608	n/a	n/a	n/a	TrialHappPreview	Mixed
186.056	4.012	0.028	799.214	39.0	2	-9.0	-9.0	26.559	70.0	2.0	Certain	2.3	-19.9	2.86425	Yes	n/a	-22.1995464852608	n/a	n/a	776.0	TrialHappiness	Mixed
186.057	1.177	n/a	799.634	39.0	2	-9.0	-9.0	26.559	70.0	2.0	Certain	2.3	-19.9	2.86425	Yes	n/a	-22.1995464852608	n/a	n/a	776.0	TrialHappinessSliderResponse	Mixed
190.068	3.457	4.012	803.226	39.0	2	-9.0	-9.0	26.559	70.0	2.0	Certain	2.3	-19.9	2.86425	Yes	n/a	-22.1995464852608	n/a	n/a	n/a	ISIRate	Mixed
193.546	3.0	0.021	806.704	40.0	2	0.0	0.0	26.559	70.0	1.82	Certain	10.7	-11.54	0.0	No	4.0	-22.2380952380952	1.275	194.821	n/a	GetAnswer	Loss
194.833	4.0	0.012	807.991	40.0	2	0.0	0.0	26.559	70.0	1.82	Certain	10.7	-11.54	0.0	No	n/a	-22.2380952380952	n/a	n/a	n/a	ShowChoice	Loss
198.845	1.0	0.012	812.003	40.0	2	0.0	0.0	26.559	70.0	1.82	Certain	10.7	-11.54	0.0	No	n/a	-22.2380952380952	n/a	n/a	n/a	ShowResult	Loss
199.864	3.158	0.019	813.022	40.0	2	0.0	0.0	26.559	70.0	1.82	Certain	10.7	-11.54	0.0	No	n/a	-22.2380952380952	n/a	n/a	n/a	ISITrial	Loss
203.041	3.0	0.019	816.199	41.0	2	-2.0	-2.0	26.309	70.0	0.2	Certain	-4.17	-0.38	4.0	Yes	4.0	3.78760393046107	2.196	205.237	n/a	GetAnswer	Mixed
205.264	4.0	0.027	818.422	41.0	2	-2.0	-2.0	26.309	70.0	0.2	Certain	-4.17	-0.38	4.0	Yes	n/a	3.78760393046107	n/a	n/a	n/a	ShowChoice	Mixed
209.276	1.0	0.012	822.434	41.0	2	-2.0	-2.0	26.309	70.0	0.2	Certain	-4.17	-0.38	4.0	Yes	n/a	3.78760393046107	n/a	n/a	n/a	ShowResult	Mixed
210.296	4.506	0.02	823.454	41.0	2	-2.0	-2.0	26.309	70.0	0.2	Certain	-4.17	-0.38	4.0	Yes	n/a	3.78760393046107	n/a	n/a	n/a	ISITrial	Mixed
214.826	4.0	0.024	827.984	41.0	2	-2.0	-2.0	26.309	70.0	0.2	Certain	-4.17	-0.38	4.0	Yes	n/a	3.78760393046107	n/a	n/a	n/a	TrialHappPreview	Mixed
218.855	4.012	0.029	832.013	41.0	2	-2.0	-2.0	26.309	70.0	0.2	Certain	-4.17	-0.38	4.0	Yes	n/a	3.78760393046107	n/a	n/a	792.0	TrialHappiness	Mixed
218.855	0.723	n/a	832.433	41.0	2	-2.0	-2.0	26.309	70.0	0.2	Certain	-4.17	-0.38	4.0	Yes	n/a	3.78760393046107	n/a	n/a	792.0	TrialHappinessSliderResponse	Mixed
222.867	8.0	4.012	836.025	41.0	2	-2.0	-2.0	26.309	70.0	0.2	Certain	-4.17	-0.38	4.0	Yes	n/a	3.78760393046107	n/a	n/a	n/a	ISIRate	Mixed
230.891	3.0	0.024	844.049	42.0	2	-1.0	-1.0	26.184	70.0	0.66	Certain	-3.6	0.32	0.0	No	4.0	3.91931216931217	1.097	231.988	n/a	GetAnswer	Mixed
232.011	4.0	0.023	845.169	42.0	2	-1.0	-1.0	26.184	70.0	0.66	Certain	-3.6	0.32	0.0	No	n/a	3.91931216931217	n/a	n/a	n/a	ShowChoice	Mixed
236.023	1.0	0.012	849.181	42.0	2	-1.0	-1.0	26.184	70.0	0.66	Certain	-3.6	0.32	0.0	No	n/a	3.91931216931217	n/a	n/a	n/a	ShowResult	Mixed
237.042	6.248	0.019	850.2	42.0	2	-1.0	-1.0	26.184	70.0	0.66	Certain	-3.6	0.32	0.0	No	n/a	3.91931216931217	n/a	n/a	n/a	ISITrial	Mixed
243.311	3.0	0.021	856.469	43.0	2	1.0	1.0	26.309	70.0	3.6	Certain	2.98	-1.01	2.77575	Yes	4.0	3.9875283446712	1.517	244.828	n/a	GetAnswer	Loss
244.849	4.0	0.021	858.007	43.0	2	1.0	1.0	26.309	70.0	3.6	Certain	2.98	-1.01	2.77575	Yes	n/a	3.9875283446712	n/a	n/a	n/a	ShowChoice	Loss
248.861	1.0	0.012	862.019	43.0	2	1.0	1.0	26.309	70.0	3.6	Certain	2.98	-1.01	2.77575	Yes	n/a	3.9875283446712	n/a	n/a	n/a	ShowResult	Loss
249.881	4.596	0.02	863.039	43.0	2	1.0	1.0	26.309	70.0	3.6	Certain	2.98	-1.01	2.77575	Yes	n/a	3.9875283446712	n/a	n/a	n/a	ISITrial	Loss
254.494	2.776	0.017	867.652	43.0	2	1.0	1.0	26.309	70.0	3.6	Certain	2.98	-1.01	2.77575	Yes	n/a	3.9875283446712	n/a	n/a	n/a	TrialHappPreview	Loss
257.286	4.012	0.016	870.444	43.0	2	1.0	1.0	26.309	70.0	3.6	Certain	2.98	-1.01	2.77575	Yes	n/a	3.9875283446712	n/a	n/a	792.0	TrialHappiness	Loss
257.287	0.736	n/a	870.902	43.0	2	1.0	1.0	26.309	70.0	3.6	Certain	2.98	-1.01	2.77575	Yes	n/a	3.9875283446712	n/a	n/a	792.0	TrialHappinessSliderResponse	Loss
261.298	3.103	4.012	874.456	43.0	2	1.0	1.0	26.309	70.0	3.6	Certain	2.98	-1.01	2.77575	Yes	n/a	3.9875283446712	n/a	n/a	n/a	ISIRate	Loss
264.424	3.0	0.023	877.582	44.0	2	-10.0	-10.0	25.059	70.0	0.2	Certain	-23.25	2.5	0.0	No	4.0	-25.7482993197279	1.824	266.248	n/a	GetAnswer	Mixed
266.263	4.0	0.015	879.421	44.0	2	-10.0	-10.0	25.059	70.0	0.2	Certain	-23.25	2.5	0.0	No	n/a	-25.7482993197279	n/a	n/a	n/a	ShowChoice	Mixed
270.275	1.0	0.012	883.433	44.0	2	-10.0	-10.0	25.059	70.0	0.2	Certain	-23.25	2.5	0.0	No	n/a	-25.7482993197279	n/a	n/a	n/a	ShowResult	Mixed
271.295	2.42	0.02	884.453	44.0	2	-10.0	-10.0	25.059	70.0	0.2	Certain	-23.25	2.5	0.0	No	n/a	-25.7482993197279	n/a	n/a	n/a	ISITrial	Mixed
273.735	3.0	0.02	886.893	45.0	2	-7.0	-7.0	24.184	70.0	3.6	Certain	5.9	-20.67	0.0	No	4.0	-26.5668934240363	1.52	275.255	n/a	GetAnswer	Gain
275.273	4.0	0.018	888.431	45.0	2	-7.0	-7.0	24.184	70.0	3.6	Certain	5.9	-20.67	0.0	No	n/a	-26.5668934240363	n/a	n/a	n/a	ShowChoice	Gain
279.285	1.0	0.012	892.443	45.0	2	-7.0	-7.0	24.184	70.0	3.6	Certain	5.9	-20.67	0.0	No	n/a	-26.5668934240363	n/a	n/a	n/a	ShowResult	Gain
280.305	3.144	0.02	893.463	45.0	2	-7.0	-7.0	24.184	70.0	3.6	Certain	5.9	-20.67	0.0	No	n/a	-26.5668934240363	n/a	n/a	n/a	ISITrial	Gain
283.464	3.0	0.015	896.622	46.0	2	-5.0	-5.0	23.559	70.0	1.68	Certain	8.5	-18.89	3.84125	Yes	4.0	-27.385487528344697	1.74	285.204	n/a	GetAnswer	Gain
285.22	4.0	0.016	898.378	46.0	2	-5.0	-5.0	23.559	70.0	1.68	Certain	8.5	-18.89	3.84125	Yes	n/a	-27.385487528344697	n/a	n/a	n/a	ShowChoice	Gain
289.232	1.0	0.012	902.39	46.0	2	-5.0	-5.0	23.559	70.0	1.68	Certain	8.5	-18.89	3.84125	Yes	n/a	-27.385487528344697	n/a	n/a	n/a	ShowResult	Gain
290.251	2.246	0.019	903.409	46.0	2	-5.0	-5.0	23.559	70.0	1.68	Certain	8.5	-18.89	3.84125	Yes	n/a	-27.385487528344697	n/a	n/a	n/a	ISITrial	Gain
292.508	3.841	0.011	905.666	46.0	2	-5.0	-5.0	23.559	70.0	1.68	Certain	8.5	-18.89	3.84125	Yes	n/a	-27.385487528344697	n/a	n/a	n/a	TrialHappPreview	Gain
296.37	4.012	0.021	909.528	46.0	2	-5.0	-5.0	23.559	70.0	1.68	Certain	8.5	-18.89	3.84125	Yes	2{-2}4{-4}	-27.385487528344697	1.829	298.199	768.0	TrialHappiness	Gain
296.37	1.379	n/a	909.978	46.0	2	-5.0	-5.0	23.559	70.0	1.68	Certain	8.5	-18.89	3.84125	Yes	n/a	-27.385487528344697	n/a	n/a	768.0	TrialHappinessSliderResponse	Gain
300.382	7.365	4.012	913.54	46.0	2	-5.0	-5.0	23.559	70.0	1.68	Certain	8.5	-18.89	3.84125	Yes	n/a	-27.385487528344697	n/a	n/a	n/a	ISIRate	Gain
307.77	3.0	0.023	920.928	47.0	2	-12.0	-12.0	22.059	70.0	1.0	Certain	-26.1	1.7	0.0	No	4.0	-27.795918367346896	1.402	309.172	n/a	GetAnswer	Mixed
309.191	4.0	0.019	922.349	47.0	2	-12.0	-12.0	22.059	70.0	1.0	Certain	-26.1	1.7	0.0	No	n/a	-27.795918367346896	n/a	n/a	n/a	ShowChoice	Mixed
313.203	1.0	0.012	926.361	47.0	2	-12.0	-12.0	22.059	70.0	1.0	Certain	-26.1	1.7	0.0	No	n/a	-27.795918367346896	n/a	n/a	n/a	ShowResult	Mixed
314.223	2.0	0.02	927.381	47.0	2	-12.0	-12.0	22.059	70.0	1.0	Certain	-26.1	1.7	0.0	No	n/a	-27.795918367346896	n/a	n/a	n/a	ISITrial	Mixed
316.246	3.0	0.023	929.404	48.0	2	1.0	1.0	22.184	70.0	2.8	Certain	-0.85	3.38	2.83175	Yes	4.0	4.22883597883598	1.618	317.864	n/a	GetAnswer	Loss
317.884	4.0	0.02	931.042	48.0	2	1.0	1.0	22.184	70.0	2.8	Certain	-0.85	3.38	2.83175	Yes	n/a	4.22883597883598	n/a	n/a	n/a	ShowChoice	Loss
321.896	1.0	0.012	935.054	48.0	2	1.0	1.0	22.184	70.0	2.8	Certain	-0.85	3.38	2.83175	Yes	n/a	4.22883597883598	n/a	n/a	n/a	ShowResult	Loss
322.916	3.692	0.02	936.074	48.0	2	1.0	1.0	22.184	70.0	2.8	Certain	-0.85	3.38	2.83175	Yes	n/a	4.22883597883598	n/a	n/a	n/a	ISITrial	Loss
326.627	2.832	0.019	939.785	48.0	2	1.0	1.0	22.184	70.0	2.8	Certain	-0.85	3.38	2.83175	Yes	n/a	4.22883597883598	n/a	n/a	n/a	TrialHappPreview	Loss
329.485	4.012	0.026	942.643	48.0	2	1.0	1.0	22.184	70.0	2.8	Certain	-0.85	3.38	2.83175	Yes	n/a	4.22883597883598	n/a	n/a	840.0	TrialHappiness	Loss
329.486	0.827	n/a	943.044	48.0	2	1.0	1.0	22.184	70.0	2.8	Certain	-0.85	3.38	2.83175	Yes	n/a	4.22883597883598	n/a	n/a	840.0	TrialHappinessSliderResponse	Loss
333.497	3.327	4.012	946.655	48.0	2	1.0	1.0	22.184	70.0	2.8	Certain	-0.85	3.38	2.83175	Yes	n/a	4.22883597883598	n/a	n/a	n/a	ISIRate	Loss
336.841	3.0	0.017	949.999	49.0	2	-16.0	-16.0	20.184	70.0	0.3	Certain	-31.9	-1.3	0.0	No	4.0	-30.6031746031746	1.3	338.141	n/a	GetAnswer	Mixed
338.161	4.0	0.02	951.319	49.0	2	-16.0	-16.0	20.184	70.0	0.3	Certain	-31.9	-1.3	0.0	No	n/a	-30.6031746031746	n/a	n/a	n/a	ShowChoice	Mixed
342.173	1.0	0.012	955.331	49.0	2	-16.0	-16.0	20.184	70.0	0.3	Certain	-31.9	-1.3	0.0	No	n/a	-30.6031746031746	n/a	n/a	n/a	ShowResult	Mixed
343.193	8.0	0.02	956.351	49.0	2	-16.0	-16.0	20.184	70.0	0.3	Certain	-31.9	-1.3	0.0	No	n/a	-30.6031746031746	n/a	n/a	n/a	ISITrial	Mixed
351.217	3.0	0.024	964.375	50.0	2	-14.0	-14.0	18.434	70.0	0.52	Certain	-30.38	1.1	3.54725	Yes	4.0	-31.4761904761905	1.447	352.664	n/a	GetAnswer	Mixed
352.688	4.0	0.024	965.846	50.0	2	-14.0	-14.0	18.434	70.0	0.52	Certain	-30.38	1.1	3.54725	Yes	n/a	-31.4761904761905	n/a	n/a	n/a	ShowChoice	Mixed
356.7	1.0	0.012	969.858	50.0	2	-14.0	-14.0	18.434	70.0	0.52	Certain	-30.38	1.1	3.54725	Yes	n/a	-31.4761904761905	n/a	n/a	n/a	ShowResult	Mixed
357.72	7.537	0.02	970.878	50.0	2	-14.0	-14.0	18.434	70.0	0.52	Certain	-30.38	1.1	3.54725	Yes	n/a	-31.4761904761905	n/a	n/a	n/a	ISITrial	Mixed
365.276	3.547	0.019	978.434	50.0	2	-14.0	-14.0	18.434	70.0	0.52	Certain	-30.38	1.1	3.54725	Yes	n/a	-31.4761904761905	n/a	n/a	n/a	TrialHappPreview	Mixed
368.853	4.012	0.03	982.011	50.0	2	-14.0	-14.0	18.434	70.0	0.52	Certain	-30.38	1.1	3.54725	Yes	n/a	-31.4761904761905	n/a	n/a	768.0	TrialHappiness	Mixed
368.854	0.686	n/a	982.436	50.0	2	-14.0	-14.0	18.434	70.0	0.52	Certain	-30.38	1.1	3.54725	Yes	n/a	-31.4761904761905	n/a	n/a	768.0	TrialHappinessSliderResponse	Mixed
372.865	6.189	4.012	986.023	50.0	2	-14.0	-14.0	18.434	70.0	0.52	Certain	-30.38	1.1	3.54725	Yes	n/a	-31.4761904761905	n/a	n/a	n/a	ISIRate	Mixed
379.084	3.0	0.03	992.242	51.0	2	0.0	0.0	18.434	70.0	2.48	Certain	2.82	-1.62	0.0	No	4.0	4.44028722600151	1.52	380.604	n/a	GetAnswer	Loss
380.622	4.0	0.018	993.78	51.0	2	0.0	0.0	18.434	70.0	2.48	Certain	2.82	-1.62	0.0	No	n/a	4.44028722600151	n/a	n/a	n/a	ShowChoice	Loss
384.634	1.0	0.012	997.792	51.0	2	0.0	0.0	18.434	70.0	2.48	Certain	2.82	-1.62	0.0	No	n/a	4.44028722600151	n/a	n/a	n/a	ShowResult	Loss
385.653	5.508	0.019	998.811	51.0	2	0.0	0.0	18.434	70.0	2.48	Certain	2.82	-1.62	0.0	No	n/a	4.44028722600151	n/a	n/a	n/a	ISITrial	Loss
391.186	3.0	0.025	1004.344	52.0	2	-2.0	-2.0	18.184	70.0	2.48	Certain	-18.62	13.3	0.0	No	4.0	-31.916099773242603	1.591	392.777	n/a	GetAnswer	Loss
392.791	4.0	0.014	1005.949	52.0	2	-2.0	-2.0	18.184	70.0	2.48	Certain	-18.62	13.3	0.0	No	n/a	-31.916099773242603	n/a	n/a	n/a	ShowChoice	Loss
396.803	1.0	0.012	1009.961	52.0	2	-2.0	-2.0	18.184	70.0	2.48	Certain	-18.62	13.3	0.0	No	n/a	-31.916099773242603	n/a	n/a	n/a	ShowResult	Loss
397.823	5.913	0.02	1010.981	52.0	2	-2.0	-2.0	18.184	70.0	2.48	Certain	-18.62	13.3	0.0	No	n/a	-31.916099773242603	n/a	n/a	n/a	ISITrial	Loss
403.757	3.0	0.021	1016.915	53.0	2	-3.0	-3.0	17.809	70.0	2.0	Certain	-19.81	12.9	2.99675	Yes	4.0	-32.7074829931973	1.094	404.851	n/a	GetAnswer	Loss
404.877	4.0	0.026	1018.035	53.0	2	-3.0	-3.0	17.809	70.0	2.0	Certain	-19.81	12.9	2.99675	Yes	n/a	-32.7074829931973	n/a	n/a	n/a	ShowChoice	Loss
408.889	1.0	0.012	1022.047	53.0	2	-3.0	-3.0	17.809	70.0	2.0	Certain	-19.81	12.9	2.99675	Yes	n/a	-32.7074829931973	n/a	n/a	n/a	ShowResult	Loss
409.909	3.66	0.02	1023.067	53.0	2	-3.0	-3.0	17.809	70.0	2.0	Certain	-19.81	12.9	2.99675	Yes	n/a	-32.7074829931973	n/a	n/a	n/a	ISITrial	Loss
413.587	2.997	0.018	1026.745	53.0	2	-3.0	-3.0	17.809	70.0	2.0	Certain	-19.81	12.9	2.99675	Yes	n/a	-32.7074829931973	n/a	n/a	n/a	TrialHappPreview	Loss
416.612	4.012	0.028	1029.77	53.0	2	-3.0	-3.0	17.809	70.0	2.0	Certain	-19.81	12.9	2.99675	Yes	n/a	-32.7074829931973	n/a	n/a	832.0	TrialHappiness	Loss
416.613	0.819	n/a	1030.213	53.0	2	-3.0	-3.0	17.809	70.0	2.0	Certain	-19.81	12.9	2.99675	Yes	n/a	-32.7074829931973	n/a	n/a	832.0	TrialHappinessSliderResponse	Loss
420.624	3.987	4.012	1033.782	53.0	2	-3.0	-3.0	17.809	70.0	2.0	Certain	-19.81	12.9	2.99675	Yes	n/a	-32.7074829931973	n/a	n/a	n/a	ISIRate	Loss
424.636	3.0	0.025	1037.794	54.0	2	-1.0	-1.0	17.684	70.0	3.16	Certain	1.42	-3.48	0.0	No	4.0	4.898148148148151	1.18	425.816	n/a	GetAnswer	Gain
425.84	4.0	0.024	1038.998	54.0	2	-1.0	-1.0	17.684	70.0	3.16	Certain	1.42	-3.48	0.0	No	n/a	4.898148148148151	n/a	n/a	n/a	ShowChoice	Gain
429.852	1.0	0.012	1043.01	54.0	2	-1.0	-1.0	17.684	70.0	3.16	Certain	1.42	-3.48	0.0	No	n/a	4.898148148148151	n/a	n/a	n/a	ShowResult	Gain
430.872	8.0	0.02	1044.03	54.0	2	-1.0	-1.0	17.684	70.0	3.16	Certain	1.42	-3.48	0.0	No	n/a	4.898148148148151	n/a	n/a	n/a	ISITrial	Gain
481.123	0.763	n/a	1094.761	n/a	2	n/a	n/a	n/a	n/a	n/a	n/a	n/a	n/a	n/a	n/a	n/a	n/a	n/a	n/a	808.0	BlockStartHappinessSliderResponse	n/a
-51.571	-0.001	0.024	1052.054	n/a	3	n/a	n/a	n/a	n/a	n/a	n/a	n/a	n/a	n/a	n/a	{SPACE}	n/a	38.199	-13.372	n/a	Rest	n/a
-13.357	4.0	0.015	1090.268	n/a	3	n/a	n/a	n/a	n/a	n/a	n/a	n/a	n/a	n/a	n/a	n/a	n/a	n/a	n/a	n/a	BlockHappyPreview	n/a
-9.345	1.243	0.012	1094.28	n/a	3	n/a	n/a	n/a	n/a	n/a	n/a	n/a	n/a	n/a	n/a	n/a	n/a	n/a	n/a	808.0	BlockStartHappiness	n/a
-3.678	-0.001	0.014	1099.947	n/a	3	n/a	n/a	n/a	n/a	n/a	n/a	n/a	n/a	n/a	n/a	5.0	n/a	3.66	-0.018	n/a	ScanWait	n/a
0.0	10.0	0.018	1103.625	n/a	3	n/a	n/a	n/a	n/a	n/a	n/a	n/a	n/a	n/a	n/a	n/a	n/a	n/a	n/a	n/a	GetReady	n/a
10.03	3.0	0.03	1113.655	55.0	3	9.1	3.3	18.8215	955.0	2.22	Outcome1	9.1	6.6	2.53325	Yes	2.0	2.49716874292186	1.453	11.483	n/a	GetAnswer	Gain
11.501	4.0	0.018	1115.126	55.0	3	9.1	3.3	18.8215	955.0	2.22	Outcome1	9.1	6.6	2.53325	Yes	n/a	2.49716874292186	n/a	n/a	n/a	ShowChoice	Gain
15.513	1.0	0.012	1119.138	55.0	3	9.1	3.3	18.8215	955.0	2.22	Outcome1	9.1	6.6	2.53325	Yes	n/a	2.49716874292186	n/a	n/a	n/a	ShowResult	Gain
16.532	7.709	0.019	1120.157	55.0	3	9.1	3.3	18.8215	955.0	2.22	Outcome1	9.1	6.6	2.53325	Yes	n/a	2.49716874292186	n/a	n/a	n/a	ISITrial	Gain
24.255	2.533	0.014	1127.88	55.0	3	9.1	3.3	18.8215	955.0	2.22	Outcome1	9.1	6.6	2.53325	Yes	n/a	2.49716874292186	n/a	n/a	n/a	TrialHappPreview	Gain
26.813	4.012	0.025	1130.438	55.0	3	9.1	3.3	18.8215	955.0	2.22	Outcome1	9.1	6.6	2.53325	Yes	n/a	2.49716874292186	n/a	n/a	776.0	TrialHappiness	Gain
26.814	0.694	n/a	1130.972	55.0	3	9.1	3.3	18.8215	955.0	2.22	Outcome1	9.1	6.6	2.53325	Yes	n/a	2.49716874292186	n/a	n/a	776.0	TrialHappinessSliderResponse	Gain
30.825	2.133	4.012	1134.45	55.0	3	9.1	3.3	18.8215	955.0	2.22	Outcome1	9.1	6.6	2.53325	Yes	n/a	2.49716874292186	n/a	n/a	n/a	ISIRate	Gain
32.982	3.0	0.024	1136.607	56.0	3	0.0	0.0	18.8215	955.0	0.82	Certain	-1.71	1.5	0.0	No	4.0	3.20724801812005	1.337	34.319	n/a	GetAnswer	Mixed
34.336	4.0	0.017	1137.961	56.0	3	0.0	0.0	18.8215	955.0	0.82	Certain	-1.71	1.5	0.0	No	n/a	3.20724801812005	n/a	n/a	n/a	ShowChoice	Mixed
38.348	1.0	0.012	1141.973	56.0	3	0.0	0.0	18.8215	955.0	0.82	Certain	-1.71	1.5	0.0	No	n/a	3.20724801812005	n/a	n/a	n/a	ShowResult	Mixed
39.367	4.697	0.019	1142.992	56.0	3	0.0	0.0	18.8215	955.0	0.82	Certain	-1.71	1.5	0.0	No	n/a	3.20724801812005	n/a	n/a	n/a	ISITrial	Mixed
44.081	3.0	0.017	1147.706	57.0	3	9.74	4.87	20.039	955.0	1.68	Outcome2	10.5	9.74	0.0	No	2.0	-0.757172517931295	1.024	45.105	n/a	GetAnswer	Loss
45.118	4.0	0.013	1148.743	57.0	3	9.74	4.87	20.039	955.0	1.68	Outcome2	10.5	9.74	0.0	No	n/a	-0.757172517931295	n/a	n/a	n/a	ShowChoice	Loss
49.13	1.0	0.012	1152.755	57.0	3	9.74	4.87	20.039	955.0	1.68	Outcome2	10.5	9.74	0.0	No	n/a	-0.757172517931295	n/a	n/a	n/a	ShowResult	Loss
50.15	4.291	0.02	1153.775	57.0	3	9.74	4.87	20.039	955.0	1.68	Outcome2	10.5	9.74	0.0	No	n/a	-0.757172517931295	n/a	n/a	n/a	ISITrial	Loss
54.462	3.0	0.021	1158.087	58.0	3	7.7	2.04	21.0015	955.0	3.16	Outcome2	4.09	7.7	3.04575	Yes	2.0	3.61268403171008	0.964	55.426	n/a	GetAnswer	Gain
55.449	4.0	0.023	1159.074	58.0	3	7.7	2.04	21.0015	955.0	3.16	Outcome2	4.09	7.7	3.04575	Yes	n/a	3.61268403171008	n/a	n/a	n/a	ShowChoice	Gain
59.461	1.0	0.012	1163.086	58.0	3	7.7	2.04	21.0015	955.0	3.16	Outcome2	4.09	7.7	3.04575	Yes	n/a	3.61268403171008	n/a	n/a	n/a	ShowResult	Gain
60.48	2.037	0.019	1164.105	58.0	3	7.7	2.04	21.0015	955.0	3.16	Outcome2	4.09	7.7	3.04575	Yes	n/a	3.61268403171008	n/a	n/a	n/a	ISITrial	Gain
62.537	3.046	0.02	1166.162	58.0	3	7.7	2.04	21.0015	955.0	3.16	Outcome2	4.09	7.7	3.04575	Yes	n/a	3.61268403171008	n/a	n/a	n/a	TrialHappPreview	Gain
65.612	4.012	0.029	1169.237	58.0	3	7.7	2.04	21.0015	955.0	3.16	Outcome2	4.09	7.7	3.04575	Yes	n/a	3.61268403171008	n/a	n/a	824.0	TrialHappiness	Gain
65.613	1.408	n/a	1169.643	58.0	3	7.7	2.04	21.0015	955.0	3.16	Outcome2	4.09	7.7	3.04575	Yes	n/a	3.61268403171008	n/a	n/a	824.0	TrialHappinessSliderResponse	Gain
69.624	4.183	4.012	1173.249	58.0	3	7.7	2.04	21.0015	955.0	3.16	Outcome2	4.09	7.7	3.04575	Yes	n/a	3.61268403171008	n/a	n/a	n/a	ISIRate	Gain
73.837	3.0	0.03	1177.462	59.0	3	11.7	5.85	22.464	955.0	5.0	Outcome2	12.3	11.7	0.0	No	2.0	-0.5961683654209139	0.91	74.747	n/a	GetAnswer	Loss
74.773	4.0	0.026	1178.398	59.0	3	11.7	5.85	22.464	955.0	5.0	Outcome2	12.3	11.7	0.0	No	n/a	-0.5961683654209139	n/a	n/a	n/a	ShowChoice	Loss
78.785	1.0	0.012	1182.41	59.0	3	11.7	5.85	22.464	955.0	5.0	Outcome2	12.3	11.7	0.0	No	n/a	-0.5961683654209139	n/a	n/a	n/a	ShowResult	Loss
79.805	5.064	0.02	1183.43	59.0	3	11.7	5.85	22.464	955.0	5.0	Outcome2	12.3	11.7	0.0	No	n/a	-0.5961683654209139	n/a	n/a	n/a	ISITrial	Loss
84.887	3.0	0.018	1188.512	60.0	3	11.7	4.28	23.9265	955.0	3.16	Outcome2	8.55	11.7	3.5625	Yes	2.0	3.14835787089468	0.919	85.806	n/a	GetAnswer	Loss
85.823	4.0	0.017	1189.448	60.0	3	11.7	4.28	23.9265	955.0	3.16	Outcome2	8.55	11.7	3.5625	Yes	n/a	3.14835787089468	n/a	n/a	n/a	ShowChoice	Loss
89.835	1.0	0.012	1193.46	60.0	3	11.7	4.28	23.9265	955.0	3.16	Outcome2	8.55	11.7	3.5625	Yes	n/a	3.14835787089468	n/a	n/a	n/a	ShowResult	Loss
90.855	8.0	0.02	1194.48	60.0	3	11.7	4.28	23.9265	955.0	3.16	Outcome2	8.55	11.7	3.5625	Yes	n/a	3.14835787089468	n/a	n/a	n/a	ISITrial	Loss
98.879	3.562	0.024	1202.504	60.0	3	11.7	4.28	23.9265	955.0	3.16	Outcome2	8.55	11.7	3.5625	Yes	n/a	3.14835787089468	n/a	n/a	n/a	TrialHappPreview	Loss
102.473	4.012	0.032	1206.098	60.0	3	11.7	4.28	23.9265	955.0	3.16	Outcome2	8.55	11.7	3.5625	Yes	n/a	3.14835787089468	n/a	n/a	792.0	TrialHappiness	Loss
102.473	0.73	n/a	1206.561	60.0	3	11.7	4.28	23.9265	955.0	3.16	Outcome2	8.55	11.7	3.5625	Yes	n/a	3.14835787089468	n/a	n/a	792.0	TrialHappinessSliderResponse	Loss
106.485	6.25	4.012	1210.11	60.0	3	11.7	4.28	23.9265	955.0	3.16	Outcome2	8.55	11.7	3.5625	Yes	n/a	3.14835787089468	n/a	n/a	n/a	ISIRate	Loss
112.753	3.0	0.018	1216.378	61.0	3	-1.0	-1.0	23.8015	955.0	0.4	Certain	0.9	-2.94	0.0	No	4.0	3.84031710079275	1.335	114.088	n/a	GetAnswer	Mixed
114.107	4.0	0.019	1217.732	61.0	3	-1.0	-1.0	23.8015	955.0	0.4	Certain	0.9	-2.94	0.0	No	n/a	3.84031710079275	n/a	n/a	n/a	ShowChoice	Mixed
118.119	1.0	0.012	1221.744	61.0	3	-1.0	-1.0	23.8015	955.0	0.4	Certain	0.9	-2.94	0.0	No	n/a	3.84031710079275	n/a	n/a	n/a	ShowResult	Mixed
119.139	4.586	0.02	1222.764	61.0	3	-1.0	-1.0	23.8015	955.0	0.4	Certain	0.9	-2.94	0.0	No	n/a	3.84031710079275	n/a	n/a	n/a	ISITrial	Mixed
123.753	3.0	0.028	1227.378	62.0	3	9.3	2.64	24.964	955.0	2.48	Outcome2	5.28	9.3	3.74875	Yes	2.0	4.02491506228766	1.118	124.871	n/a	GetAnswer	Gain
124.89	4.0	0.019	1228.515	62.0	3	9.3	2.64	24.964	955.0	2.48	Outcome2	5.28	9.3	3.74875	Yes	n/a	4.02491506228766	n/a	n/a	n/a	ShowChoice	Gain
128.902	1.0	0.012	1232.527	62.0	3	9.3	2.64	24.964	955.0	2.48	Outcome2	5.28	9.3	3.74875	Yes	n/a	4.02491506228766	n/a	n/a	n/a	ShowResult	Gain
129.921	5.212	0.019	1233.546	62.0	3	9.3	2.64	24.964	955.0	2.48	Outcome2	5.28	9.3	3.74875	Yes	n/a	4.02491506228766	n/a	n/a	n/a	ISITrial	Gain
135.154	3.749	0.021	1238.779	62.0	3	9.3	2.64	24.964	955.0	2.48	Outcome2	5.28	9.3	3.74875	Yes	n/a	4.02491506228766	n/a	n/a	n/a	TrialHappPreview	Gain
138.932	4.012	0.029	1242.557	62.0	3	9.3	2.64	24.964	955.0	2.48	Outcome2	5.28	9.3	3.74875	Yes	n/a	4.02491506228766	n/a	n/a	824.0	TrialHappiness	Gain
138.932	0.794	n/a	1242.973	62.0	3	9.3	2.64	24.964	955.0	2.48	Outcome2	5.28	9.3	3.74875	Yes	n/a	4.02491506228766	n/a	n/a	824.0	TrialHappinessSliderResponse	Gain
142.944	6.995	4.012	1246.569	62.0	3	9.3	2.64	24.964	955.0	2.48	Outcome2	5.28	9.3	3.74875	Yes	n/a	4.02491506228766	n/a	n/a	n/a	ISIRate	Gain
149.965	3.0	0.026	1253.59	63.0	3	0.0	0.0	24.964	955.0	1.2	Certain	-0.1	-0.75	0.0	No	4.0	-0.65166100415251	1.034	150.999	n/a	GetAnswer	Mixed
151.018	4.0	0.019	1254.643	63.0	3	0.0	0.0	24.964	955.0	1.2	Certain	-0.1	-0.75	0.0	No	n/a	-0.65166100415251	n/a	n/a	n/a	ShowChoice	Mixed
155.03	1.0	0.012	1258.655	63.0	3	0.0	0.0	24.964	955.0	1.2	Certain	-0.1	-0.75	0.0	No	n/a	-0.65166100415251	n/a	n/a	n/a	ShowResult	Mixed
156.05	5.595	0.02	1259.675	63.0	3	0.0	0.0	24.964	955.0	1.2	Certain	-0.1	-0.75	0.0	No	n/a	-0.65166100415251	n/a	n/a	n/a	ISITrial	Mixed
161.666	3.0	0.021	1265.291	64.0	3	-1.0	-1.0	24.839	955.0	0.3	Certain	-3.11	0.7	0.0	No	4.0	3.81426953567384	1.146	162.812	n/a	GetAnswer	Mixed
162.836	4.0	0.024	1266.461	64.0	3	-1.0	-1.0	24.839	955.0	0.3	Certain	-3.11	0.7	0.0	No	n/a	3.81426953567384	n/a	n/a	n/a	ShowChoice	Mixed
166.848	1.0	0.012	1270.473	64.0	3	-1.0	-1.0	24.839	955.0	0.3	Certain	-3.11	0.7	0.0	No	n/a	3.81426953567384	n/a	n/a	n/a	ShowResult	Mixed
167.868	5.47	0.02	1271.493	64.0	3	-1.0	-1.0	24.839	955.0	0.3	Certain	-3.11	0.7	0.0	No	n/a	3.81426953567384	n/a	n/a	n/a	ISITrial	Mixed
173.368	3.0	0.03	1276.993	65.0	3	1.0	1.0	24.964	955.0	1.0	Certain	-0.26	3.7	2.99675	Yes	4.0	3.96262740656852	1.547	174.915	n/a	GetAnswer	Mixed
174.939	4.0	0.024	1278.564	65.0	3	1.0	1.0	24.964	955.0	1.0	Certain	-0.26	3.7	2.99675	Yes	n/a	3.96262740656852	n/a	n/a	n/a	ShowChoice	Mixed
178.951	1.0	0.012	1282.576	65.0	3	1.0	1.0	24.964	955.0	1.0	Certain	-0.26	3.7	2.99675	Yes	n/a	3.96262740656852	n/a	n/a	n/a	ShowResult	Mixed
179.971	3.344	0.02	1283.596	65.0	3	1.0	1.0	24.964	955.0	1.0	Certain	-0.26	3.7	2.99675	Yes	n/a	3.96262740656852	n/a	n/a	n/a	ISITrial	Mixed
183.331	2.997	0.016	1286.956	65.0	3	1.0	1.0	24.964	955.0	1.0	Certain	-0.26	3.7	2.99675	Yes	n/a	3.96262740656852	n/a	n/a	n/a	TrialHappPreview	Mixed
186.357	4.012	0.029	1289.982	65.0	3	1.0	1.0	24.964	955.0	1.0	Certain	-0.26	3.7	2.99675	Yes	n/a	3.96262740656852	n/a	n/a	792.0	TrialHappiness	Mixed
186.357	0.726	n/a	1290.399	65.0	3	1.0	1.0	24.964	955.0	1.0	Certain	-0.26	3.7	2.99675	Yes	n/a	3.96262740656852	n/a	n/a	792.0	TrialHappinessSliderResponse	Mixed
190.369	3.987	4.012	1293.994	65.0	3	1.0	1.0	24.964	955.0	1.0	Certain	-0.26	3.7	2.99675	Yes	n/a	3.96262740656852	n/a	n/a	n/a	ISIRate	Mixed
194.381	3.0	0.025	1298.006	66.0	3	-2.0	-2.0	24.714	955.0	1.0	Certain	-4.95	-0.3	0.0	No	4.0	4.65458663646659	1.299	195.68	n/a	GetAnswer	Mixed
195.701	4.0	0.021	1299.326	66.0	3	-2.0	-2.0	24.714	955.0	1.0	Certain	-4.95	-0.3	0.0	No	n/a	4.65458663646659	n/a	n/a	n/a	ShowChoice	Mixed
199.713	1.0	0.012	1303.338	66.0	3	-2.0	-2.0	24.714	955.0	1.0	Certain	-4.95	-0.3	0.0	No	n/a	4.65458663646659	n/a	n/a	n/a	ShowResult	Mixed
200.733	3.959	0.02	1304.358	66.0	3	-2.0	-2.0	24.714	955.0	1.0	Certain	-4.95	-0.3	0.0	No	n/a	4.65458663646659	n/a	n/a	n/a	ISITrial	Mixed
204.712	3.0	0.02	1308.337	67.0	3	0.0	0.0	24.714	955.0	0.3	Certain	2.7	-2.14	2.9185	Yes	4.0	4.8391845979614905	1.117	205.829	n/a	GetAnswer	Mixed
205.848	4.0	0.019	1309.473	67.0	3	0.0	0.0	24.714	955.0	0.3	Certain	2.7	-2.14	2.9185	Yes	n/a	4.8391845979614905	n/a	n/a	n/a	ShowChoice	Mixed
209.86	1.0	0.012	1313.485	67.0	3	0.0	0.0	24.714	955.0	0.3	Certain	2.7	-2.14	2.9185	Yes	n/a	4.8391845979614905	n/a	n/a	n/a	ShowResult	Mixed
210.88	4.199	0.02	1314.505	67.0	3	0.0	0.0	24.714	955.0	0.3	Certain	2.7	-2.14	2.9185	Yes	n/a	4.8391845979614905	n/a	n/a	n/a	ISITrial	Mixed
215.093	2.918	0.014	1318.718	67.0	3	0.0	0.0	24.714	955.0	0.3	Certain	2.7	-2.14	2.9185	Yes	n/a	4.8391845979614905	n/a	n/a	n/a	TrialHappPreview	Mixed
218.035	4.012	0.024	1321.66	67.0	3	0.0	0.0	24.714	955.0	0.3	Certain	2.7	-2.14	2.9185	Yes	n/a	4.8391845979614905	n/a	n/a	840.0	TrialHappiness	Mixed
218.035	1.502	n/a	1322.139	67.0	3	0.0	0.0	24.714	955.0	0.3	Certain	2.7	-2.14	2.9185	Yes	n/a	4.8391845979614905	n/a	n/a	840.0	TrialHappinessSliderResponse	Mixed
222.047	3.674	4.012	1325.672	67.0	3	0.0	0.0	24.714	955.0	0.3	Certain	2.7	-2.14	2.9185	Yes	n/a	4.8391845979614905	n/a	n/a	n/a	ISIRate	Mixed
225.741	3.0	0.02	1329.366	68.0	3	2.0	2.0	24.964	955.0	1.2	Certain	3.9	-0.31	0.0	No	4.0	4.2083805209513	1.324	227.065	n/a	GetAnswer	Mixed
227.079	4.0	0.014	1330.704	68.0	3	2.0	2.0	24.964	955.0	1.2	Certain	3.9	-0.31	0.0	No	n/a	4.2083805209513	n/a	n/a	n/a	ShowChoice	Mixed
231.091	1.0	0.012	1334.716	68.0	3	2.0	2.0	24.964	955.0	1.2	Certain	3.9	-0.31	0.0	No	n/a	4.2083805209513	n/a	n/a	n/a	ShowResult	Mixed
232.11	2.185	0.019	1335.735	68.0	3	2.0	2.0	24.964	955.0	1.2	Certain	3.9	-0.31	0.0	No	n/a	4.2083805209513	n/a	n/a	n/a	ISITrial	Mixed
234.317	3.0	0.022	1337.942	69.0	3	12.5	4.08	26.5265	955.0	1.68	Outcome2	8.16	12.5	0.0	No	2.0	4.338618346545871	0.971	235.288	n/a	GetAnswer	Loss
235.303	4.0	0.015	1338.928	69.0	3	12.5	4.08	26.5265	955.0	1.68	Outcome2	8.16	12.5	0.0	No	n/a	4.338618346545871	n/a	n/a	n/a	ShowChoice	Loss
239.315	1.0	0.012	1342.94	69.0	3	12.5	4.08	26.5265	955.0	1.68	Outcome2	8.16	12.5	0.0	No	n/a	4.338618346545871	n/a	n/a	n/a	ShowResult	Loss
240.335	2.0	0.02	1343.96	69.0	3	12.5	4.08	26.5265	955.0	1.68	Outcome2	8.16	12.5	0.0	No	n/a	4.338618346545871	n/a	n/a	n/a	ISITrial	Loss
242.358	3.0	0.023	1345.983	70.0	3	11.5	3.52	27.964	955.0	2.8	Outcome1	11.5	7.03	3.65125	Yes	2.0	4.46885617214043	1.102	243.46	n/a	GetAnswer	Loss
243.478	4.0	0.018	1347.103	70.0	3	11.5	3.52	27.964	955.0	2.8	Outcome1	11.5	7.03	3.65125	Yes	n/a	4.46885617214043	n/a	n/a	n/a	ShowChoice	Loss
247.49	1.0	0.012	1351.115	70.0	3	11.5	3.52	27.964	955.0	2.8	Outcome1	11.5	7.03	3.65125	Yes	n/a	4.46885617214043	n/a	n/a	n/a	ShowResult	Loss
248.509	2.623	0.019	1352.134	70.0	3	11.5	3.52	27.964	955.0	2.8	Outcome1	11.5	7.03	3.65125	Yes	n/a	4.46885617214043	n/a	n/a	n/a	ISITrial	Loss
251.151	3.651	0.019	1354.776	70.0	3	11.5	3.52	27.964	955.0	2.8	Outcome1	11.5	7.03	3.65125	Yes	n/a	4.46885617214043	n/a	n/a	n/a	TrialHappPreview	Loss
254.828	4.012	0.026	1358.453	70.0	3	11.5	3.52	27.964	955.0	2.8	Outcome1	11.5	7.03	3.65125	Yes	n/a	4.46885617214043	n/a	n/a	800.0	TrialHappiness	Loss
254.829	1.3	n/a	1359.068	70.0	3	11.5	3.52	27.964	955.0	2.8	Outcome1	11.5	7.03	3.65125	Yes	n/a	4.46885617214043	n/a	n/a	800.0	TrialHappinessSliderResponse	Loss
258.84	6.605	4.012	1362.465	70.0	3	11.5	3.52	27.964	955.0	2.8	Outcome1	11.5	7.03	3.65125	Yes	n/a	4.46885617214043	n/a	n/a	n/a	ISIRate	Loss
265.477	3.0	0.032	1369.102	71.0	3	13.9	4.31	29.7015	955.0	3.6	Outcome2	8.62	13.9	0.0	No	2.0	5.278595696489241	0.933	266.41	n/a	GetAnswer	Loss
266.43	4.0	0.02	1370.055	71.0	3	13.9	4.31	29.7015	955.0	3.6	Outcome2	8.62	13.9	0.0	No	n/a	5.278595696489241	n/a	n/a	n/a	ShowChoice	Loss
270.458	1.0	0.028	1374.083	71.0	3	13.9	4.31	29.7015	955.0	3.6	Outcome2	8.62	13.9	0.0	No	n/a	5.278595696489241	n/a	n/a	n/a	ShowResult	Loss
271.478	5.499	0.02	1375.103	71.0	3	13.9	4.31	29.7015	955.0	3.6	Outcome2	8.62	13.9	0.0	No	n/a	5.278595696489241	n/a	n/a	n/a	ISITrial	Loss
276.994	3.0	0.017	1380.619	72.0	3	11.1	2.82	31.089	955.0	2.22	Outcome1	11.1	5.65	3.0805	Yes	2.0	5.45413363533409	0.8	277.794	n/a	GetAnswer	Loss
277.814	4.0	0.02	1381.439	72.0	3	11.1	2.82	31.089	955.0	2.22	Outcome1	11.1	5.65	3.0805	Yes	n/a	5.45413363533409	n/a	n/a	n/a	ShowChoice	Loss
281.826	1.0	0.012	1385.451	72.0	3	11.1	2.82	31.089	955.0	2.22	Outcome1	11.1	5.65	3.0805	Yes	n/a	5.45413363533409	n/a	n/a	n/a	ShowResult	Loss
282.845	5.672	0.019	1386.47	72.0	3	11.1	2.82	31.089	955.0	2.22	Outcome1	11.1	5.65	3.0805	Yes	n/a	5.45413363533409	n/a	n/a	n/a	ISITrial	Loss
288.529	3.08	0.012	1392.154	72.0	3	11.1	2.82	31.089	955.0	2.22	Outcome1	11.1	5.65	3.0805	Yes	n/a	5.45413363533409	n/a	n/a	n/a	TrialHappPreview	Loss
291.638	4.012	0.029	1395.263	72.0	3	11.1	2.82	31.089	955.0	2.22	Outcome1	11.1	5.65	3.0805	Yes	n/a	5.45413363533409	n/a	n/a	792.0	TrialHappiness	Loss
291.639	0.736	n/a	1395.872	72.0	3	11.1	2.82	31.089	955.0	2.22	Outcome1	11.1	5.65	3.0805	Yes	n/a	5.45413363533409	n/a	n/a	792.0	TrialHappinessSliderResponse	Loss
295.65	4.322	4.012	1399.275	72.0	3	11.1	2.82	31.089	955.0	2.22	Outcome1	11.1	5.65	3.0805	Yes	n/a	5.45413363533409	n/a	n/a	n/a	ISIRate	Loss
299.997	3.0	0.025	1403.622	73.0	3	5.19	2.6	31.7378	955.0	4.2	Outcome1	5.19	6.1	0.0	No	2.0	-0.911192902982257	0.942	300.939	n/a	GetAnswer	Gain
300.966	4.0	0.027	1404.591	73.0	3	5.19	2.6	31.7378	955.0	4.2	Outcome1	5.19	6.1	0.0	No	n/a	-0.911192902982257	n/a	n/a	n/a	ShowChoice	Gain
304.978	1.0	0.012	1408.603	73.0	3	5.19	2.6	31.7378	955.0	4.2	Outcome1	5.19	6.1	0.0	No	n/a	-0.911192902982257	n/a	n/a	n/a	ShowResult	Gain
305.998	4.616	0.02	1409.623	73.0	3	5.19	2.6	31.7378	955.0	4.2	Outcome1	5.19	6.1	0.0	No	n/a	-0.911192902982257	n/a	n/a	n/a	ISITrial	Gain
310.645	3.0	0.031	1414.27	74.0	3	4.17	2.08	32.259	955.0	2.22	Outcome1	4.17	5.1	3.05625	Yes	2.0	-0.926576066440166	0.878	311.523	n/a	GetAnswer	Gain
311.548	4.0	0.025	1415.173	74.0	3	4.17	2.08	32.259	955.0	2.22	Outcome1	4.17	5.1	3.05625	Yes	n/a	-0.926576066440166	n/a	n/a	n/a	ShowChoice	Gain
315.56	1.0	0.012	1419.185	74.0	3	4.17	2.08	32.259	955.0	2.22	Outcome1	4.17	5.1	3.05625	Yes	n/a	-0.926576066440166	n/a	n/a	n/a	ShowResult	Gain
316.579	3.909	0.019	1420.204	74.0	3	4.17	2.08	32.259	955.0	2.22	Outcome1	4.17	5.1	3.05625	Yes	n/a	-0.926576066440166	n/a	n/a	n/a	ISITrial	Gain
320.508	3.056	0.02	1424.133	74.0	3	4.17	2.08	32.259	955.0	2.22	Outcome1	4.17	5.1	3.05625	Yes	n/a	-0.926576066440166	n/a	n/a	n/a	TrialHappPreview	Gain
323.584	4.012	0.02	1427.209	74.0	3	4.17	2.08	32.259	955.0	2.22	Outcome1	4.17	5.1	3.05625	Yes	2{-2}	-0.926576066440166	1.211	324.795	848.0	TrialHappiness	Gain
323.584	0.829	n/a	1427.591	74.0	3	4.17	2.08	32.259	955.0	2.22	Outcome1	4.17	5.1	3.05625	Yes	n/a	-0.926576066440166	n/a	n/a	848.0	TrialHappinessSliderResponse	Gain
327.596	4.225	4.012	1431.221	74.0	3	4.17	2.08	32.259	955.0	2.22	Outcome1	4.17	5.1	3.05625	Yes	n/a	-0.926576066440166	n/a	n/a	n/a	ISIRate	Gain
331.842	3.0	0.021	1435.467	75.0	3	3.39	1.7	32.6828	955.0	1.5	Outcome1	3.39	4.1	0.0	No	2.0	-0.714703661759154	0.886	332.728	n/a	GetAnswer	Mixed
332.744	4.0	0.016	1436.369	75.0	3	3.39	1.7	32.6828	955.0	1.5	Outcome1	3.39	4.1	0.0	No	n/a	-0.714703661759154	n/a	n/a	n/a	ShowChoice	Mixed
336.756	1.0	0.012	1440.381	75.0	3	3.39	1.7	32.6828	955.0	1.5	Outcome1	3.39	4.1	0.0	No	n/a	-0.714703661759154	n/a	n/a	n/a	ShowResult	Mixed
337.776	4.979	0.02	1441.401	75.0	3	3.39	1.7	32.6828	955.0	1.5	Outcome1	3.39	4.1	0.0	No	n/a	-0.714703661759154	n/a	n/a	n/a	ISITrial	Mixed
342.774	3.0	0.019	1446.399	76.0	3	1.0	1.0	32.8078	955.0	2.0	Certain	-1.0	4.3	0.0	No	4.0	5.304643261608151	1.256	344.03	n/a	GetAnswer	Mixed
344.045	4.0	0.015	1447.67	76.0	3	1.0	1.0	32.8078	955.0	2.0	Certain	-1.0	4.3	0.0	No	n/a	5.304643261608151	n/a	n/a	n/a	ShowChoice	Mixed
348.057	1.0	0.012	1451.682	76.0	3	1.0	1.0	32.8078	955.0	2.0	Certain	-1.0	4.3	0.0	No	n/a	5.304643261608151	n/a	n/a	n/a	ShowResult	Mixed
349.077	3.931	0.02	1452.702	76.0	3	1.0	1.0	32.8078	955.0	2.0	Certain	-1.0	4.3	0.0	No	n/a	5.304643261608151	n/a	n/a	n/a	ISITrial	Mixed
353.038	3.0	0.03	1456.663	77.0	3	2.0	2.0	33.0578	955.0	2.0	Certain	-0.53	4.9	4.0	Yes	4.0	5.42582106455266	1.125	354.163	n/a	GetAnswer	Gain
354.175	4.0	0.012	1457.8	77.0	3	2.0	2.0	33.0578	955.0	2.0	Certain	-0.53	4.9	4.0	Yes	n/a	5.42582106455266	n/a	n/a	n/a	ShowChoice	Gain
358.187	1.0	0.012	1461.812	77.0	3	2.0	2.0	33.0578	955.0	2.0	Certain	-0.53	4.9	4.0	Yes	n/a	5.42582106455266	n/a	n/a	n/a	ShowResult	Gain
359.207	7.022	0.02	1462.832	77.0	3	2.0	2.0	33.0578	955.0	2.0	Certain	-0.53	4.9	4.0	Yes	n/a	5.42582106455266	n/a	n/a	n/a	ISITrial	Gain
366.245	4.0	0.016	1469.87	77.0	3	2.0	2.0	33.0578	955.0	2.0	Certain	-0.53	4.9	4.0	Yes	n/a	5.42582106455266	n/a	n/a	n/a	TrialHappPreview	Gain
370.273	4.012	0.028	1473.898	77.0	3	2.0	2.0	33.0578	955.0	2.0	Certain	-0.53	4.9	4.0	Yes	n/a	5.42582106455266	n/a	n/a	792.0	TrialHappiness	Gain
370.274	0.728	n/a	1474.381	77.0	3	2.0	2.0	33.0578	955.0	2.0	Certain	-0.53	4.9	4.0	Yes	n/a	5.42582106455266	n/a	n/a	792.0	TrialHappinessSliderResponse	Gain
374.285	8.0	4.012	1477.91	77.0	3	2.0	2.0	33.0578	955.0	2.0	Certain	-0.53	4.9	4.0	Yes	n/a	5.42582106455266	n/a	n/a	n/a	ISIRate	Gain
382.309	3.0	0.024	1485.934	78.0	3	8.9	1.2	34.1703	955.0	2.0	Outcome2	2.4	8.9	0.0	No	2.0	6.498301245753111	0.975	383.284	n/a	GetAnswer	Gain
383.296	4.0	0.012	1486.921	78.0	3	8.9	1.2	34.1703	955.0	2.0	Outcome2	2.4	8.9	0.0	No	n/a	6.498301245753111	n/a	n/a	n/a	ShowChoice	Gain
387.308	1.0	0.012	1490.933	78.0	3	8.9	1.2	34.1703	955.0	2.0	Outcome2	2.4	8.9	0.0	No	n/a	6.498301245753111	n/a	n/a	n/a	ShowResult	Gain
388.327	2.078	0.019	1491.952	78.0	3	8.9	1.2	34.1703	955.0	2.0	Outcome2	2.4	8.9	0.0	No	n/a	6.498301245753111	n/a	n/a	n/a	ISITrial	Gain
390.434	3.0	0.029	1494.059	79.0	3	7.51	3.76	35.1091	955.0	1.68	Outcome1	7.51	8.5	2.7295	Yes	2.0	-0.98763684409211	0.861	391.295	n/a	GetAnswer	Gain
391.32	4.0	0.025	1494.945	79.0	3	7.51	3.76	35.1091	955.0	1.68	Outcome1	7.51	8.5	2.7295	Yes	n/a	-0.98763684409211	n/a	n/a	n/a	ShowChoice	Gain
395.332	1.0	0.012	1498.957	79.0	3	7.51	3.76	35.1091	955.0	1.68	Outcome1	7.51	8.5	2.7295	Yes	n/a	-0.98763684409211	n/a	n/a	n/a	ShowResult	Gain
396.351	3.829	0.019	1499.976	79.0	3	7.51	3.76	35.1091	955.0	1.68	Outcome1	7.51	8.5	2.7295	Yes	n/a	-0.98763684409211	n/a	n/a	n/a	ISITrial	Gain
400.196	2.73	0.016	1503.821	79.0	3	7.51	3.76	35.1091	955.0	1.68	Outcome1	7.51	8.5	2.7295	Yes	n/a	-0.98763684409211	n/a	n/a	n/a	TrialHappPreview	Gain
402.954	4.012	0.028	1506.579	79.0	3	7.51	3.76	35.1091	955.0	1.68	Outcome1	7.51	8.5	2.7295	Yes	n/a	-0.98763684409211	n/a	n/a	848.0	TrialHappiness	Gain
402.955	0.851	n/a	1507.04	79.0	3	7.51	3.76	35.1091	955.0	1.68	Outcome1	7.51	8.5	2.7295	Yes	n/a	-0.98763684409211	n/a	n/a	848.0	TrialHappinessSliderResponse	Gain
406.966	2.918	4.012	1510.591	79.0	3	7.51	3.76	35.1091	955.0	1.68	Outcome1	7.51	8.5	2.7295	Yes	n/a	-0.98763684409211	n/a	n/a	n/a	ISIRate	Gain
409.909	3.0	0.025	1513.534	80.0	3	2.0	2.0	35.3591	955.0	2.8	Certain	-0.42	5.5	0.0	No	4.0	5.916194790486981	1.259	411.168	n/a	GetAnswer	Gain
411.179	4.0	0.011	1514.804	80.0	3	2.0	2.0	35.3591	955.0	2.8	Certain	-0.42	5.5	0.0	No	n/a	5.916194790486981	n/a	n/a	n/a	ShowChoice	Gain
415.191	1.0	0.012	1518.816	80.0	3	2.0	2.0	35.3591	955.0	2.8	Certain	-0.42	5.5	0.0	No	n/a	5.916194790486981	n/a	n/a	n/a	ShowResult	Gain
416.211	3.336	0.02	1519.836	80.0	3	2.0	2.0	35.3591	955.0	2.8	Certain	-0.42	5.5	0.0	No	n/a	5.916194790486981	n/a	n/a	n/a	ISITrial	Gain
419.571	3.0	0.024	1523.196	81.0	3	12.31	6.16	36.8979	955.0	2.22	Outcome2	13.1	12.31	3.92375	Yes	2.0	-0.7858625896564742	1.028	420.599	n/a	GetAnswer	Loss
420.624	4.0	0.025	1524.249	81.0	3	12.31	6.16	36.8979	955.0	2.22	Outcome2	13.1	12.31	3.92375	Yes	n/a	-0.7858625896564742	n/a	n/a	n/a	ShowChoice	Loss
424.636	1.0	0.012	1528.261	81.0	3	12.31	6.16	36.8979	955.0	2.22	Outcome2	13.1	12.31	3.92375	Yes	n/a	-0.7858625896564742	n/a	n/a	n/a	ShowResult	Loss
425.656	3.919	0.02	1529.281	81.0	3	12.31	6.16	36.8979	955.0	2.22	Outcome2	13.1	12.31	3.92375	Yes	n/a	-0.7858625896564742	n/a	n/a	n/a	ISITrial	Loss
429.601	3.924	0.026	1533.226	81.0	3	12.31	6.16	36.8979	955.0	2.22	Outcome2	13.1	12.31	3.92375	Yes	n/a	-0.7858625896564742	n/a	n/a	n/a	TrialHappPreview	Loss
433.546	4.012	0.021	1537.171	81.0	3	12.31	6.16	36.8979	955.0	2.22	Outcome2	13.1	12.31	3.92375	Yes	n/a	-0.7858625896564742	n/a	n/a	840.0	TrialHappiness	Loss
433.547	0.837	n/a	1537.696	81.0	3	12.31	6.16	36.8979	955.0	2.22	Outcome2	13.1	12.31	3.92375	Yes	n/a	-0.7858625896564742	n/a	n/a	840.0	TrialHappinessSliderResponse	Loss
437.558	7.695	4.012	1541.183	81.0	3	12.31	6.16	36.8979	955.0	2.22	Outcome2	13.1	12.31	3.92375	Yes	n/a	-0.7858625896564742	n/a	n/a	n/a	ISIRate	Loss
445.281	3.0	0.028	1548.906	n/a	3	n/a	n/a	n/a	n/a	n/a	n/a	n/a	n/a	n/a	n/a	n/a	n/a	n/a	n/a	n/a	CurrentEarnings	n/a
448.307	-0.001	0.026	1551.932	n/a	3	n/a	n/a	n/a	n/a	n/a	n/a	n/a	n/a	n/a	n/a	{SPACE}	n/a	34.597	482.904	n/a	Goodbye	n/a
