onset	duration	onset_delay	onset_unadjusted	trial_number	block	amount_change	certain_amount	current_amount	mood_target	multiplier	outcome	outcome1_amount	outcome2_amount	question_duration	rating	response	rpe	rt	rt_time	slider_response	trial_phase	trial_type
-35.543	-0.001	0.05	23.905	n/a	0	n/a	n/a	n/a	n/a	n/a	n/a	n/a	n/a	n/a	n/a	{SPACE}	n/a	3.606	-31.937	n/a	Welcome	n/a
-31.912	5.0	0.025	27.536	n/a	0	n/a	n/a	n/a	n/a	n/a	n/a	n/a	n/a	n/a	n/a	n/a	n/a	n/a	n/a	n/a	LifeHappyPreview	n/a
-26.88	1.729	0.032	32.568	n/a	0	n/a	n/a	n/a	n/a	n/a	n/a	n/a	n/a	n/a	n/a	n/a	n/a	n/a	n/a	952.0	LifeHappiness	n/a
-26.88	1.249	n/a	33.048	n/a	0	n/a	n/a	n/a	n/a	n/a	n/a	n/a	n/a	n/a	n/a	n/a	n/a	n/a	n/a	952.0	LifeHappinessSliderResponse	n/a
-15.279	4.0	0.019	44.169	n/a	0	n/a	n/a	n/a	n/a	n/a	n/a	n/a	n/a	n/a	n/a	n/a	n/a	n/a	n/a	n/a	BlockHappyPreview	n/a
-11.267	2.674	0.012	48.181	n/a	0	n/a	n/a	n/a	n/a	n/a	n/a	n/a	n/a	n/a	n/a	n/a	n/a	n/a	n/a	952.0	BlockStartHappiness	n/a
-11.266	2.296	n/a	48.56	n/a	0	n/a	n/a	n/a	n/a	n/a	n/a	n/a	n/a	n/a	n/a	n/a	n/a	n/a	n/a	952.0	BlockStartHappinessSliderResponse	n/a
-4.028	-0.001	0.022	55.42	n/a	0	n/a	n/a	n/a	n/a	n/a	n/a	n/a	n/a	n/a	n/a	5.0	n/a	4.013	-0.015	n/a	ScanWait	n/a
0.0	10.0	0.015	59.448	n/a	1	n/a	n/a	n/a	n/a	n/a	n/a	n/a	n/a	n/a	n/a	n/a	n/a	n/a	n/a	n/a	GetReady	n/a
10.031	3.0	0.031	69.479	1.0	1	2.5	2.0	10.3125	955.0	0.2	Outcome2	2.45	2.5	0.0	No	2.0	0.0509626274065685	1.337	11.368	n/a	GetAnswer	Mixed
11.385	4.0	0.017	70.833	1.0	1	2.5	2.0	10.3125	955.0	0.2	Outcome2	2.45	2.5	0.0	No	n/a	0.0509626274065685	n/a	n/a	n/a	ShowChoice	Mixed
15.413	1.0	0.028	74.861	1.0	1	2.5	2.0	10.3125	955.0	0.2	Outcome2	2.45	2.5	0.0	No	n/a	0.0509626274065685	n/a	n/a	n/a	ShowResult	Mixed
16.433	2.431	0.02	75.881	1.0	1	2.5	2.0	10.3125	955.0	0.2	Outcome2	2.45	2.5	0.0	No	n/a	0.0509626274065685	n/a	n/a	n/a	ISITrial	Mixed
18.89	3.0	0.026	78.338	2.0	1	3.89	1.94	10.7987	955.0	1.2	Outcome2	3.9	3.89	0.0	No	2.0	-0.0124575311438279	1.097	19.987	n/a	GetAnswer	Mixed
20.01	4.0	0.023	79.458	2.0	1	3.89	1.94	10.7987	955.0	1.2	Outcome2	3.9	3.89	0.0	No	n/a	-0.0124575311438279	n/a	n/a	n/a	ShowChoice	Mixed
24.022	1.0	0.012	83.47	2.0	1	3.89	1.94	10.7987	955.0	1.2	Outcome2	3.9	3.89	0.0	No	n/a	-0.0124575311438279	n/a	n/a	n/a	ShowResult	Mixed
25.042	4.568	0.02	84.49	2.0	1	3.89	1.94	10.7987	955.0	1.2	Outcome2	3.9	3.89	0.0	No	n/a	-0.0124575311438279	n/a	n/a	n/a	ISITrial	Mixed
29.639	3.0	0.029	89.087	3.0	1	12.1	6.02	12.3112	955.0	4.2	Outcome1	12.1	12.04	2.868	Yes	2.0	0.0577576443941109	1.026	30.665	n/a	GetAnswer	Loss
30.692	4.0	0.027	90.14	3.0	1	12.1	6.02	12.3112	955.0	4.2	Outcome1	12.1	12.04	2.868	Yes	n/a	0.0577576443941109	n/a	n/a	n/a	ShowChoice	Loss
34.704	1.0	0.012	94.152	3.0	1	12.1	6.02	12.3112	955.0	4.2	Outcome1	12.1	12.04	2.868	Yes	n/a	0.0577576443941109	n/a	n/a	n/a	ShowResult	Loss
35.724	3.243	0.02	95.172	3.0	1	12.1	6.02	12.3112	955.0	4.2	Outcome1	12.1	12.04	2.868	Yes	n/a	0.0577576443941109	n/a	n/a	n/a	ISITrial	Loss
38.984	2.868	0.017	98.432	3.0	1	12.1	6.02	12.3112	955.0	4.2	Outcome1	12.1	12.04	2.868	Yes	n/a	0.0577576443941109	n/a	n/a	n/a	TrialHappPreview	Loss
41.876	4.029	0.024	101.324	3.0	1	12.1	6.02	12.3112	955.0	4.2	Outcome1	12.1	12.04	2.868	Yes	n/a	0.0577576443941109	n/a	n/a	952.0	TrialHappiness	Loss
41.877	1.196	n/a	101.706	3.0	1	12.1	6.02	12.3112	955.0	4.2	Outcome1	12.1	12.04	2.868	Yes	n/a	0.0577576443941109	n/a	n/a	952.0	TrialHappinessSliderResponse	Loss
45.905	3.472	4.029	105.353	3.0	1	12.1	6.02	12.3112	955.0	4.2	Outcome1	12.1	12.04	2.868	Yes	n/a	0.0577576443941109	n/a	n/a	n/a	ISIRate	Loss
49.398	3.0	0.021	108.846	4.0	1	3.69	1.84	12.7725	955.0	1.0	Outcome1	3.69	3.7	0.0	No	2.0	-0.0130237825594564	1.068	50.466	n/a	GetAnswer	Mixed
50.485	4.0	0.019	109.933	4.0	1	3.69	1.84	12.7725	955.0	1.0	Outcome1	3.69	3.7	0.0	No	n/a	-0.0130237825594564	n/a	n/a	n/a	ShowChoice	Mixed
54.497	1.0	0.012	113.945	4.0	1	3.69	1.84	12.7725	955.0	1.0	Outcome1	3.69	3.7	0.0	No	n/a	-0.0130237825594564	n/a	n/a	n/a	ShowResult	Mixed
55.517	2.011	0.02	114.965	4.0	1	3.69	1.84	12.7725	955.0	1.0	Outcome1	3.69	3.7	0.0	No	n/a	-0.0130237825594564	n/a	n/a	n/a	ISITrial	Mixed
57.556	3.0	0.028	117.004	5.0	1	6.5	3.22	13.585	955.0	1.68	Outcome1	6.5	6.44	2.5825	Yes	2.0	0.0645526613816535	0.765	58.321	n/a	GetAnswer	Gain
58.342	4.0	0.021	117.79	5.0	1	6.5	3.22	13.585	955.0	1.68	Outcome1	6.5	6.44	2.5825	Yes	n/a	0.0645526613816535	n/a	n/a	n/a	ShowChoice	Gain
62.371	1.0	0.029	121.819	5.0	1	6.5	3.22	13.585	955.0	1.68	Outcome1	6.5	6.44	2.5825	Yes	n/a	0.0645526613816535	n/a	n/a	n/a	ShowResult	Gain
63.39	5.129	0.019	122.838	5.0	1	6.5	3.22	13.585	955.0	1.68	Outcome1	6.5	6.44	2.5825	Yes	n/a	0.0645526613816535	n/a	n/a	n/a	ISITrial	Gain
68.539	2.582	0.02	127.987	5.0	1	6.5	3.22	13.585	955.0	1.68	Outcome1	6.5	6.44	2.5825	Yes	n/a	0.0645526613816535	n/a	n/a	n/a	TrialHappPreview	Gain
71.147	4.029	0.026	130.595	5.0	1	6.5	3.22	13.585	955.0	1.68	Outcome1	6.5	6.44	2.5825	Yes	n/a	0.0645526613816535	n/a	n/a	952.0	TrialHappiness	Gain
71.148	1.189	n/a	130.867	5.0	1	6.5	3.22	13.585	955.0	1.68	Outcome1	6.5	6.44	2.5825	Yes	n/a	0.0645526613816535	n/a	n/a	952.0	TrialHappinessSliderResponse	Gain
75.176	2.33	4.029	134.624	5.0	1	6.5	3.22	13.585	955.0	1.68	Outcome1	6.5	6.44	2.5825	Yes	n/a	0.0645526613816535	n/a	n/a	n/a	ISIRate	Gain
77.533	3.0	0.027	136.981	6.0	1	2.29	2.0	13.8712	955.0	2.0	Outcome1	2.29	2.3	0.0	No	2.0	-0.0135900339750849	0.801	78.334	n/a	GetAnswer	Mixed
78.352	4.0	0.018	137.8	6.0	1	2.29	2.0	13.8712	955.0	2.0	Outcome1	2.29	2.3	0.0	No	n/a	-0.0135900339750849	n/a	n/a	n/a	ShowChoice	Mixed
82.381	1.0	0.029	141.829	6.0	1	2.29	2.0	13.8712	955.0	2.0	Outcome1	2.29	2.3	0.0	No	n/a	-0.0135900339750849	n/a	n/a	n/a	ShowResult	Mixed
83.4	6.232	0.019	142.848	6.0	1	2.29	2.0	13.8712	955.0	2.0	Outcome1	2.29	2.3	0.0	No	n/a	-0.0135900339750849	n/a	n/a	n/a	ISITrial	Mixed
89.652	3.0	0.02	149.1	7.0	1	7.7	3.82	14.8337	955.0	3.16	Outcome1	7.7	7.63	0.0	No	2.0	0.0713476783691959	0.879	90.531	n/a	GetAnswer	Gain
90.555	4.0	0.024	150.003	7.0	1	7.7	3.82	14.8337	955.0	3.16	Outcome1	7.7	7.63	0.0	No	n/a	0.0713476783691959	n/a	n/a	n/a	ShowChoice	Gain
94.584	1.0	0.029	154.032	7.0	1	7.7	3.82	14.8337	955.0	3.16	Outcome1	7.7	7.63	0.0	No	n/a	0.0713476783691959	n/a	n/a	n/a	ShowResult	Gain
95.604	2.305	0.02	155.052	7.0	1	7.7	3.82	14.8337	955.0	3.16	Outcome1	7.7	7.63	0.0	No	n/a	0.0713476783691959	n/a	n/a	n/a	ISITrial	Gain
97.927	3.0	0.018	157.375	8.0	1	12.69	6.34	16.42	955.0	1.82	Outcome2	12.7	12.69	3.1125	Yes	2.0	-0.0141562853907135	0.998	98.925	n/a	GetAnswer	Loss
98.947	4.0	0.022	158.395	8.0	1	12.69	6.34	16.42	955.0	1.82	Outcome2	12.7	12.69	3.1125	Yes	n/a	-0.0141562853907135	n/a	n/a	n/a	ShowChoice	Loss
102.976	1.0	0.029	162.424	8.0	1	12.69	6.34	16.42	955.0	1.82	Outcome2	12.7	12.69	3.1125	Yes	n/a	-0.0141562853907135	n/a	n/a	n/a	ShowResult	Loss
103.995	3.506	0.019	163.443	8.0	1	12.69	6.34	16.42	955.0	1.82	Outcome2	12.7	12.69	3.1125	Yes	n/a	-0.0141562853907135	n/a	n/a	n/a	ISITrial	Loss
107.523	3.112	0.022	166.971	8.0	1	12.69	6.34	16.42	955.0	1.82	Outcome2	12.7	12.69	3.1125	Yes	n/a	-0.0141562853907135	n/a	n/a	n/a	TrialHappPreview	Loss
110.665	4.029	0.03	170.113	8.0	1	12.69	6.34	16.42	955.0	1.82	Outcome2	12.7	12.69	3.1125	Yes	n/a	-0.0141562853907135	n/a	n/a	952.0	TrialHappiness	Loss
110.666	1.226	n/a	170.432	8.0	1	12.69	6.34	16.42	955.0	1.82	Outcome2	12.7	12.69	3.1125	Yes	n/a	-0.0141562853907135	n/a	n/a	952.0	TrialHappinessSliderResponse	Loss
114.694	4.45	4.029	174.142	8.0	1	12.69	6.34	16.42	955.0	1.82	Outcome2	12.7	12.69	3.1125	Yes	n/a	-0.0141562853907135	n/a	n/a	n/a	ISIRate	Loss
119.174	3.0	0.03	178.622	9.0	1	9.49	4.74	17.6062	955.0	2.8	Outcome2	9.5	9.49	0.0	No	2.0	-0.0144394110985277	0.873	120.047	n/a	GetAnswer	Gain
120.077	4.0	0.03	179.525	9.0	1	9.49	4.74	17.6062	955.0	2.8	Outcome2	9.5	9.49	0.0	No	n/a	-0.0144394110985277	n/a	n/a	n/a	ShowChoice	Gain
124.106	1.0	0.029	183.554	9.0	1	9.49	4.74	17.6062	955.0	2.8	Outcome2	9.5	9.49	0.0	No	n/a	-0.0144394110985277	n/a	n/a	n/a	ShowResult	Gain
125.125	2.0	0.019	184.573	9.0	1	9.49	4.74	17.6062	955.0	2.8	Outcome2	9.5	9.49	0.0	No	n/a	-0.0144394110985277	n/a	n/a	n/a	ISITrial	Gain
127.148	3.0	0.023	186.596	10.0	1	1.69	1.0	17.8174	955.0	1.0	Outcome2	1.7	1.69	4.0	Yes	2.0	-0.0147225368063419	1.184	128.332	n/a	GetAnswer	Mixed
128.352	4.0	0.02	187.8	10.0	1	1.69	1.0	17.8174	955.0	1.0	Outcome2	1.7	1.69	4.0	Yes	n/a	-0.0147225368063419	n/a	n/a	n/a	ShowChoice	Mixed
132.38	1.0	0.028	191.828	10.0	1	1.69	1.0	17.8174	955.0	1.0	Outcome2	1.7	1.69	4.0	Yes	n/a	-0.0147225368063419	n/a	n/a	n/a	ShowResult	Mixed
133.4	2.0	0.02	192.848	10.0	1	1.69	1.0	17.8174	955.0	1.0	Outcome2	1.7	1.69	4.0	Yes	n/a	-0.0147225368063419	n/a	n/a	n/a	ISITrial	Mixed
135.423	4.0	0.023	194.871	10.0	1	1.69	1.0	17.8174	955.0	1.0	Outcome2	1.7	1.69	4.0	Yes	n/a	-0.0147225368063419	n/a	n/a	n/a	TrialHappPreview	Mixed
139.452	4.028	0.029	198.9	10.0	1	1.69	1.0	17.8174	955.0	1.0	Outcome2	1.7	1.69	4.0	Yes	n/a	-0.0147225368063419	n/a	n/a	952.0	TrialHappiness	Mixed
139.452	2.344	n/a	199.42	10.0	1	1.69	1.0	17.8174	955.0	1.0	Outcome2	1.7	1.69	4.0	Yes	n/a	-0.0147225368063419	n/a	n/a	952.0	TrialHappinessSliderResponse	Mixed
143.48	8.0	4.028	202.928	10.0	1	1.69	1.0	17.8174	955.0	1.0	Outcome2	1.7	1.69	4.0	Yes	n/a	-0.0147225368063419	n/a	n/a	n/a	ISIRate	Mixed
151.504	3.0	0.024	210.952	11.0	1	5.3	2.61	18.4799	955.0	2.48	Outcome2	5.22	5.3	0.0	No	2.0	0.0849377123442809	0.936	152.44	n/a	GetAnswer	Gain
152.457	4.0	0.017	211.905	11.0	1	5.3	2.61	18.4799	955.0	2.48	Outcome2	5.22	5.3	0.0	No	n/a	0.0849377123442809	n/a	n/a	n/a	ShowChoice	Gain
156.486	1.0	0.029	215.934	11.0	1	5.3	2.61	18.4799	955.0	2.48	Outcome2	5.22	5.3	0.0	No	n/a	0.0849377123442809	n/a	n/a	n/a	ShowResult	Gain
157.506	3.324	0.02	216.954	11.0	1	5.3	2.61	18.4799	955.0	2.48	Outcome2	5.22	5.3	0.0	No	n/a	0.0849377123442809	n/a	n/a	n/a	ISITrial	Gain
160.849	3.0	0.019	220.297	12.0	1	3.48	1.74	18.9149	955.0	0.82	Outcome2	3.5	3.48	2.61875	Yes	2.0	-0.0152887882219706	0.987	161.836	n/a	GetAnswer	Mixed
161.852	4.0	0.016	221.3	12.0	1	3.48	1.74	18.9149	955.0	0.82	Outcome2	3.5	3.48	2.61875	Yes	n/a	-0.0152887882219706	n/a	n/a	n/a	ShowChoice	Mixed
165.881	1.0	0.029	225.329	12.0	1	3.48	1.74	18.9149	955.0	0.82	Outcome2	3.5	3.48	2.61875	Yes	n/a	-0.0152887882219706	n/a	n/a	n/a	ShowResult	Mixed
166.901	6.642	0.02	226.349	12.0	1	3.48	1.74	18.9149	955.0	0.82	Outcome2	3.5	3.48	2.61875	Yes	n/a	-0.0152887882219706	n/a	n/a	n/a	ISITrial	Mixed
173.571	2.619	0.028	233.019	12.0	1	3.48	1.74	18.9149	955.0	0.82	Outcome2	3.5	3.48	2.61875	Yes	n/a	-0.0152887882219706	n/a	n/a	n/a	TrialHappPreview	Mixed
176.212	4.029	0.022	235.66	12.0	1	3.48	1.74	18.9149	955.0	0.82	Outcome2	3.5	3.48	2.61875	Yes	n/a	-0.0152887882219706	n/a	n/a	952.0	TrialHappiness	Mixed
176.212	1.338	n/a	236.35	12.0	1	3.48	1.74	18.9149	955.0	0.82	Outcome2	3.5	3.48	2.61875	Yes	n/a	-0.0152887882219706	n/a	n/a	952.0	TrialHappinessSliderResponse	Mixed
180.241	2.475	4.029	239.689	12.0	1	3.48	1.74	18.9149	955.0	0.82	Outcome2	3.5	3.48	2.61875	Yes	n/a	-0.0152887882219706	n/a	n/a	n/a	ISIRate	Mixed
182.748	3.0	0.032	242.196	13.0	1	13.1	6.5	20.5524	955.0	2.22	Outcome2	13.01	13.1	0.0	No	2.0	0.0917327293318233	1.028	183.776	n/a	GetAnswer	Loss
183.801	4.0	0.025	243.249	13.0	1	13.1	6.5	20.5524	955.0	2.22	Outcome2	13.01	13.1	0.0	No	n/a	0.0917327293318233	n/a	n/a	n/a	ShowChoice	Loss
187.83	1.0	0.029	247.278	13.0	1	13.1	6.5	20.5524	955.0	2.22	Outcome2	13.01	13.1	0.0	No	n/a	0.0917327293318233	n/a	n/a	n/a	ShowResult	Loss
188.85	3.48	0.02	248.298	13.0	1	13.1	6.5	20.5524	955.0	2.22	Outcome2	13.01	13.1	0.0	No	n/a	0.0917327293318233	n/a	n/a	n/a	ISITrial	Loss
192.36	3.0	0.03	251.808	14.0	1	13.68	6.84	22.2624	955.0	3.16	Outcome2	13.7	13.68	0.0	No	2.0	-0.0158550396375991	0.739	193.099	n/a	GetAnswer	Loss
193.129	4.0	0.03	252.577	14.0	1	13.68	6.84	22.2624	955.0	3.16	Outcome2	13.7	13.68	0.0	No	n/a	-0.0158550396375991	n/a	n/a	n/a	ShowChoice	Loss
197.141	1.0	0.012	256.589	14.0	1	13.68	6.84	22.2624	955.0	3.16	Outcome2	13.7	13.68	0.0	No	n/a	-0.0158550396375991	n/a	n/a	n/a	ShowResult	Loss
198.161	5.019	0.02	257.609	14.0	1	13.68	6.84	22.2624	955.0	3.16	Outcome2	13.7	13.68	0.0	No	n/a	-0.0158550396375991	n/a	n/a	n/a	ISITrial	Loss
203.209	3.0	0.029	262.657	15.0	1	11.1	5.5	23.6499	955.0	2.22	Outcome2	11.0	11.1	3.3485	Yes	2.0	0.0985277463193658	0.719	203.928	n/a	GetAnswer	Loss
203.945	4.0	0.017	263.393	15.0	1	11.1	5.5	23.6499	955.0	2.22	Outcome2	11.0	11.1	3.3485	Yes	n/a	0.0985277463193658	n/a	n/a	n/a	ShowChoice	Loss
207.957	1.0	0.012	267.405	15.0	1	11.1	5.5	23.6499	955.0	2.22	Outcome2	11.0	11.1	3.3485	Yes	n/a	0.0985277463193658	n/a	n/a	n/a	ShowResult	Loss
208.977	7.614	0.02	268.425	15.0	1	11.1	5.5	23.6499	955.0	2.22	Outcome2	11.0	11.1	3.3485	Yes	n/a	0.0985277463193658	n/a	n/a	n/a	ISITrial	Loss
216.616	3.348	0.025	276.064	15.0	1	11.1	5.5	23.6499	955.0	2.22	Outcome2	11.0	11.1	3.3485	Yes	n/a	0.0985277463193658	n/a	n/a	n/a	TrialHappPreview	Loss
219.993	4.029	0.029	279.441	15.0	1	11.1	5.5	23.6499	955.0	2.22	Outcome2	11.0	11.1	3.3485	Yes	n/a	0.0985277463193658	n/a	n/a	952.0	TrialHappiness	Loss
219.994	1.325	n/a	280.229	15.0	1	11.1	5.5	23.6499	955.0	2.22	Outcome2	11.0	11.1	3.3485	Yes	n/a	0.0985277463193658	n/a	n/a	952.0	TrialHappinessSliderResponse	Loss
224.022	5.394	4.029	283.47	15.0	1	11.1	5.5	23.6499	955.0	2.22	Outcome2	11.0	11.1	3.3485	Yes	n/a	0.0985277463193658	n/a	n/a	n/a	ISIRate	Loss
229.438	3.0	0.022	288.886	16.0	1	4.1	2.0	24.1624	955.0	1.5	Outcome1	4.1	4.0	0.0	No	2.0	0.101925254813137	0.776	230.214	n/a	GetAnswer	Mixed
230.24	4.0	0.026	289.688	16.0	1	4.1	2.0	24.1624	955.0	1.5	Outcome1	4.1	4.0	0.0	No	n/a	0.101925254813137	n/a	n/a	n/a	ShowChoice	Mixed
234.252	1.0	0.012	293.7	16.0	1	4.1	2.0	24.1624	955.0	1.5	Outcome1	4.1	4.0	0.0	No	n/a	0.101925254813137	n/a	n/a	n/a	ShowResult	Mixed
235.272	3.008	0.02	294.72	16.0	1	4.1	2.0	24.1624	955.0	1.5	Outcome1	4.1	4.0	0.0	No	n/a	0.101925254813137	n/a	n/a	n/a	ISITrial	Mixed
238.298	3.0	0.018	297.746	17.0	1	0.0	0.0	24.1624	955.0	1.0	Certain	-0.3	-0.32	3.0415	Yes	4.0	-0.0167044167610419	1.392	239.69	n/a	GetAnswer	Mixed
239.719	4.0	0.029	299.167	17.0	1	0.0	0.0	24.1624	955.0	1.0	Certain	-0.3	-0.32	3.0415	Yes	n/a	-0.0167044167610419	n/a	n/a	n/a	ShowChoice	Mixed
243.747	1.0	0.028	303.195	17.0	1	0.0	0.0	24.1624	955.0	1.0	Certain	-0.3	-0.32	3.0415	Yes	n/a	-0.0167044167610419	n/a	n/a	n/a	ShowResult	Mixed
244.767	3.566	0.02	304.215	17.0	1	0.0	0.0	24.1624	955.0	1.0	Certain	-0.3	-0.32	3.0415	Yes	n/a	-0.0167044167610419	n/a	n/a	n/a	ISITrial	Mixed
248.361	3.042	0.028	307.809	17.0	1	0.0	0.0	24.1624	955.0	1.0	Certain	-0.3	-0.32	3.0415	Yes	n/a	-0.0167044167610419	n/a	n/a	n/a	TrialHappPreview	Mixed
251.42	4.029	0.017	310.868	17.0	1	0.0	0.0	24.1624	955.0	1.0	Certain	-0.3	-0.32	3.0415	Yes	n/a	-0.0167044167610419	n/a	n/a	952.0	TrialHappiness	Mixed
251.421	1.075	n/a	311.388	17.0	1	0.0	0.0	24.1624	955.0	1.0	Certain	-0.3	-0.32	3.0415	Yes	n/a	-0.0167044167610419	n/a	n/a	952.0	TrialHappinessSliderResponse	Mixed
255.449	4.166	4.029	314.897	17.0	1	0.0	0.0	24.1624	955.0	1.0	Certain	-0.3	-0.32	3.0415	Yes	n/a	-0.0167044167610419	n/a	n/a	n/a	ISIRate	Mixed
259.645	3.0	0.03	319.093	18.0	1	7.3	3.6	25.0749	955.0	2.48	Outcome1	7.3	7.19	0.0	No	2.0	0.108720271800679	0.78	260.425	n/a	GetAnswer	Gain
260.448	4.0	0.023	319.896	18.0	1	7.3	3.6	25.0749	955.0	2.48	Outcome1	7.3	7.19	0.0	No	n/a	0.108720271800679	n/a	n/a	n/a	ShowChoice	Gain
264.476	1.0	0.028	323.924	18.0	1	7.3	3.6	25.0749	955.0	2.48	Outcome1	7.3	7.19	0.0	No	n/a	0.108720271800679	n/a	n/a	n/a	ShowResult	Gain
265.496	6.787	0.02	324.944	18.0	1	7.3	3.6	25.0749	955.0	2.48	Outcome1	7.3	7.19	0.0	No	n/a	0.108720271800679	n/a	n/a	n/a	ISITrial	Gain
272.316	3.0	0.033	331.764	19.0	1	8.1	4.0	26.0874	955.0	4.2	Outcome2	7.99	8.1	0.0	No	2.0	0.1121177802944509	0.929	273.245	n/a	GetAnswer	Gain
273.269	4.0	0.023	332.717	19.0	1	8.1	4.0	26.0874	955.0	4.2	Outcome2	7.99	8.1	0.0	No	n/a	0.1121177802944509	n/a	n/a	n/a	ShowChoice	Gain
277.281	1.0	0.012	336.729	19.0	1	8.1	4.0	26.0874	955.0	4.2	Outcome2	7.99	8.1	0.0	No	n/a	0.1121177802944509	n/a	n/a	n/a	ShowResult	Gain
278.301	2.0	0.02	337.749	19.0	1	8.1	4.0	26.0874	955.0	4.2	Outcome2	7.99	8.1	0.0	No	n/a	0.1121177802944509	n/a	n/a	n/a	ISITrial	Gain
280.324	3.0	0.023	339.772	20.0	1	9.7	4.79	27.2999	955.0	3.16	Outcome1	9.7	9.58	2.92125	Yes	2.0	0.1155152887882219	1.167	281.491	n/a	GetAnswer	Gain
281.511	4.0	0.02	340.959	20.0	1	9.7	4.79	27.2999	955.0	3.16	Outcome1	9.7	9.58	2.92125	Yes	n/a	0.1155152887882219	n/a	n/a	n/a	ShowChoice	Gain
285.539	1.0	0.028	344.987	20.0	1	9.7	4.79	27.2999	955.0	3.16	Outcome1	9.7	9.58	2.92125	Yes	n/a	0.1155152887882219	n/a	n/a	n/a	ShowResult	Gain
286.559	8.0	0.02	346.007	20.0	1	9.7	4.79	27.2999	955.0	3.16	Outcome1	9.7	9.58	2.92125	Yes	n/a	0.1155152887882219	n/a	n/a	n/a	ISITrial	Gain
294.583	2.921	0.024	354.031	20.0	1	9.7	4.79	27.2999	955.0	3.16	Outcome1	9.7	9.58	2.92125	Yes	n/a	0.1155152887882219	n/a	n/a	n/a	TrialHappPreview	Gain
297.525	4.029	0.021	356.973	20.0	1	9.7	4.79	27.2999	955.0	3.16	Outcome1	9.7	9.58	2.92125	Yes	n/a	0.1155152887882219	n/a	n/a	952.0	TrialHappiness	Gain
297.526	1.211	n/a	357.307	20.0	1	9.7	4.79	27.2999	955.0	3.16	Outcome1	9.7	9.58	2.92125	Yes	n/a	0.1155152887882219	n/a	n/a	952.0	TrialHappinessSliderResponse	Gain
301.554	3.685	4.029	361.002	20.0	1	9.7	4.79	27.2999	955.0	3.16	Outcome1	9.7	9.58	2.92125	Yes	n/a	0.1155152887882219	n/a	n/a	n/a	ISIRate	Gain
305.265	3.0	0.026	364.713	21.0	1	0.1	0.0	27.3124	955.0	1.5	Outcome1	0.1	-0.02	0.0	No	2.0	0.118912797281993	1.867	307.132	n/a	GetAnswer	Mixed
307.154	4.0	0.022	366.602	21.0	1	0.1	0.0	27.3124	955.0	1.5	Outcome1	0.1	-0.02	0.0	No	n/a	0.118912797281993	n/a	n/a	n/a	ShowChoice	Mixed
311.183	1.0	0.029	370.631	21.0	1	0.1	0.0	27.3124	955.0	1.5	Outcome1	0.1	-0.02	0.0	No	n/a	0.118912797281993	n/a	n/a	n/a	ShowResult	Mixed
312.203	3.555	0.02	371.651	21.0	1	0.1	0.0	27.3124	955.0	1.5	Outcome1	0.1	-0.02	0.0	No	n/a	0.118912797281993	n/a	n/a	n/a	ISITrial	Mixed
315.78	3.0	0.022	375.228	22.0	1	10.3	5.09	28.5999	955.0	5.0	Outcome1	10.3	10.18	3.2195	Yes	2.0	0.122310305775764	1.266	317.046	n/a	GetAnswer	Gain
317.067	4.0	0.021	376.515	22.0	1	10.3	5.09	28.5999	955.0	5.0	Outcome1	10.3	10.18	3.2195	Yes	n/a	0.122310305775764	n/a	n/a	n/a	ShowChoice	Gain
321.096	1.0	0.029	380.544	22.0	1	10.3	5.09	28.5999	955.0	5.0	Outcome1	10.3	10.18	3.2195	Yes	n/a	0.122310305775764	n/a	n/a	n/a	ShowResult	Gain
322.116	6.793	0.02	381.564	22.0	1	10.3	5.09	28.5999	955.0	5.0	Outcome1	10.3	10.18	3.2195	Yes	n/a	0.122310305775764	n/a	n/a	n/a	ISITrial	Gain
328.936	3.22	0.027	388.384	22.0	1	10.3	5.09	28.5999	955.0	5.0	Outcome1	10.3	10.18	3.2195	Yes	n/a	0.122310305775764	n/a	n/a	n/a	TrialHappPreview	Gain
332.179	4.029	0.023	391.627	22.0	1	10.3	5.09	28.5999	955.0	5.0	Outcome1	10.3	10.18	3.2195	Yes	n/a	0.122310305775764	n/a	n/a	952.0	TrialHappiness	Gain
332.18	1.222	n/a	391.967	22.0	1	10.3	5.09	28.5999	955.0	5.0	Outcome1	10.3	10.18	3.2195	Yes	n/a	0.122310305775764	n/a	n/a	952.0	TrialHappinessSliderResponse	Gain
336.208	4.878	4.029	395.656	22.0	1	10.3	5.09	28.5999	955.0	5.0	Outcome1	10.3	10.18	3.2195	Yes	n/a	0.122310305775764	n/a	n/a	n/a	ISIRate	Gain
341.106	3.0	0.02	400.554	23.0	1	8.9	4.38	29.7124	955.0	2.0	Outcome2	8.77	8.9	0.0	No	2.0	0.1257078142695359	1.085	342.191	n/a	GetAnswer	Gain
342.209	4.0	0.018	401.657	23.0	1	8.9	4.38	29.7124	955.0	2.0	Outcome2	8.77	8.9	0.0	No	n/a	0.1257078142695359	n/a	n/a	n/a	ShowChoice	Gain
346.238	1.0	0.029	405.686	23.0	1	8.9	4.38	29.7124	955.0	2.0	Outcome2	8.77	8.9	0.0	No	n/a	0.1257078142695359	n/a	n/a	n/a	ShowResult	Gain
347.258	8.0	0.02	406.706	23.0	1	8.9	4.38	29.7124	955.0	2.0	Outcome2	8.77	8.9	0.0	No	n/a	0.1257078142695359	n/a	n/a	n/a	ISITrial	Gain
355.282	3.0	0.024	414.73	24.0	1	13.3	6.58	31.3749	955.0	2.48	Outcome1	13.3	13.17	3.255	Yes	2.0	0.129105322763307	0.999	356.281	n/a	GetAnswer	Loss
356.301	4.0	0.02	415.749	24.0	1	13.3	6.58	31.3749	955.0	2.48	Outcome1	13.3	13.17	3.255	Yes	n/a	0.129105322763307	n/a	n/a	n/a	ShowChoice	Loss
360.33	1.0	0.029	419.778	24.0	1	13.3	6.58	31.3749	955.0	2.48	Outcome1	13.3	13.17	3.255	Yes	n/a	0.129105322763307	n/a	n/a	n/a	ShowResult	Loss
361.35	2.0	0.02	420.798	24.0	1	13.3	6.58	31.3749	955.0	2.48	Outcome1	13.3	13.17	3.255	Yes	n/a	0.129105322763307	n/a	n/a	n/a	ISITrial	Loss
363.373	3.255	0.023	422.821	24.0	1	13.3	6.58	31.3749	955.0	2.48	Outcome1	13.3	13.17	3.255	Yes	n/a	0.129105322763307	n/a	n/a	n/a	TrialHappPreview	Loss
366.649	4.029	0.021	426.097	24.0	1	13.3	6.58	31.3749	955.0	2.48	Outcome1	13.3	13.17	3.255	Yes	n/a	0.129105322763307	n/a	n/a	952.0	TrialHappiness	Loss
366.65	1.225	n/a	426.818	24.0	1	13.3	6.58	31.3749	955.0	2.48	Outcome1	13.3	13.17	3.255	Yes	n/a	0.129105322763307	n/a	n/a	952.0	TrialHappinessSliderResponse	Loss
370.678	5.02	4.029	430.126	24.0	1	13.3	6.58	31.3749	955.0	2.48	Outcome1	13.3	13.17	3.255	Yes	n/a	0.129105322763307	n/a	n/a	n/a	ISIRate	Loss
375.726	3.0	0.028	435.174	25.0	1	1.0	1.0	31.4999	955.0	0.4	Certain	0.77	0.9	0.0	No	4.0	0.1325028312570779	2.097	377.823	n/a	GetAnswer	Mixed
377.849	4.0	0.026	437.297	25.0	1	1.0	1.0	31.4999	955.0	0.4	Certain	0.77	0.9	0.0	No	n/a	0.1325028312570779	n/a	n/a	n/a	ShowChoice	Mixed
381.878	1.0	0.029	441.326	25.0	1	1.0	1.0	31.4999	955.0	0.4	Certain	0.77	0.9	0.0	No	n/a	0.1325028312570779	n/a	n/a	n/a	ShowResult	Mixed
382.898	3.749	0.02	442.346	25.0	1	1.0	1.0	31.4999	955.0	0.4	Certain	0.77	0.9	0.0	No	n/a	0.1325028312570779	n/a	n/a	n/a	ISITrial	Mixed
386.676	3.0	0.029	446.124	26.0	1	-0.7	-1.0	31.4124	955.0	0.66	Outcome1	-0.7	-0.84	0.0	No	2.0	0.135900339750849	1.854	388.53	n/a	GetAnswer	Mixed
388.548	4.0	0.018	447.996	26.0	1	-0.7	-1.0	31.4124	955.0	0.66	Outcome1	-0.7	-0.84	0.0	No	n/a	0.135900339750849	n/a	n/a	n/a	ShowChoice	Mixed
392.577	1.0	0.029	452.025	26.0	1	-0.7	-1.0	31.4124	955.0	0.66	Outcome1	-0.7	-0.84	0.0	No	n/a	0.135900339750849	n/a	n/a	n/a	ShowResult	Mixed
393.596	7.834	0.019	453.044	26.0	1	-0.7	-1.0	31.4124	955.0	0.66	Outcome1	-0.7	-0.84	0.0	No	n/a	0.135900339750849	n/a	n/a	n/a	ISITrial	Mixed
401.453	3.0	0.023	460.901	27.0	1	7.5	3.68	32.3499	955.0	2.8	Outcome1	7.5	7.36	2.54975	Yes	2.0	0.139297848244621	0.893	402.346	n/a	GetAnswer	Gain
402.373	4.0	0.027	461.821	27.0	1	7.5	3.68	32.3499	955.0	2.8	Outcome1	7.5	7.36	2.54975	Yes	n/a	0.139297848244621	n/a	n/a	n/a	ShowChoice	Gain
406.402	1.0	0.029	465.85	27.0	1	7.5	3.68	32.3499	955.0	2.8	Outcome1	7.5	7.36	2.54975	Yes	n/a	0.139297848244621	n/a	n/a	n/a	ShowResult	Gain
407.421	4.225	0.019	466.869	27.0	1	7.5	3.68	32.3499	955.0	2.8	Outcome1	7.5	7.36	2.54975	Yes	n/a	0.139297848244621	n/a	n/a	n/a	ISITrial	Gain
411.667	2.55	0.021	471.115	27.0	1	7.5	3.68	32.3499	955.0	2.8	Outcome1	7.5	7.36	2.54975	Yes	n/a	0.139297848244621	n/a	n/a	n/a	TrialHappPreview	Gain
414.242	4.028	0.025	473.69	27.0	1	7.5	3.68	32.3499	955.0	2.8	Outcome1	7.5	7.36	2.54975	Yes	n/a	0.139297848244621	n/a	n/a	952.0	TrialHappiness	Gain
414.242	1.187	n/a	474.33	27.0	1	7.5	3.68	32.3499	955.0	2.8	Outcome1	7.5	7.36	2.54975	Yes	n/a	0.139297848244621	n/a	n/a	952.0	TrialHappinessSliderResponse	Gain
418.27	2.199	4.028	477.718	27.0	1	7.5	3.68	32.3499	955.0	2.8	Outcome1	7.5	7.36	2.54975	Yes	n/a	0.139297848244621	n/a	n/a	n/a	ISIRate	Gain
504.329	1.607	n/a	564.1	n/a	1	n/a	n/a	n/a	n/a	n/a	n/a	n/a	n/a	n/a	n/a	n/a	n/a	n/a	n/a	952.0	BlockStartHappinessSliderResponse	n/a
-91.674	-0.001	0.025	479.942	n/a	2	n/a	n/a	n/a	n/a	n/a	n/a	n/a	n/a	n/a	n/a	{SPACE}	n/a	79.8	-11.874	n/a	Rest	n/a
-11.852	4.0	0.022	559.764	n/a	2	n/a	n/a	n/a	n/a	n/a	n/a	n/a	n/a	n/a	n/a	n/a	n/a	n/a	n/a	n/a	BlockHappyPreview	n/a
-7.84	1.93	0.012	563.776	n/a	2	n/a	n/a	n/a	n/a	n/a	n/a	n/a	n/a	n/a	n/a	n/a	n/a	n/a	n/a	952.0	BlockStartHappiness	n/a
-2.407	-0.001	0.027	569.209	n/a	2	n/a	n/a	n/a	n/a	n/a	n/a	n/a	n/a	n/a	n/a	5.0	n/a	2.381	-0.026	n/a	ScanWait	n/a
0.0	10.0	0.025	571.616	n/a	2	n/a	n/a	n/a	n/a	n/a	n/a	n/a	n/a	n/a	n/a	n/a	n/a	n/a	n/a	n/a	GetReady	n/a
10.031	3.0	0.031	581.647	28.0	2	-9.0	-9.0	31.2249	70.0	0.2	Certain	-16.5	-1.5	0.0	No	4.0	-15.0	2.957	12.988	n/a	GetAnswer	Mixed
13.006	4.0	0.018	584.622	28.0	2	-9.0	-9.0	31.2249	70.0	0.2	Certain	-16.5	-1.5	0.0	No	n/a	-15.0	n/a	n/a	n/a	ShowChoice	Mixed
17.035	1.0	0.029	588.651	28.0	2	-9.0	-9.0	31.2249	70.0	0.2	Certain	-16.5	-1.5	0.0	No	n/a	-15.0	n/a	n/a	n/a	ShowResult	Mixed
18.055	3.575	0.02	589.671	28.0	2	-9.0	-9.0	31.2249	70.0	0.2	Certain	-16.5	-1.5	0.0	No	n/a	-15.0	n/a	n/a	n/a	ISITrial	Mixed
21.649	3.0	0.019	593.265	29.0	2	-10.9	-3.0	29.8624	70.0	2.22	Outcome1	-10.9	5.1	3.529	Yes	2.0	-16.0	2.01	23.659	n/a	GetAnswer	Gain
23.688	4.0	0.029	595.304	29.0	2	-10.9	-3.0	29.8624	70.0	2.22	Outcome1	-10.9	5.1	3.529	Yes	n/a	-16.0	n/a	n/a	n/a	ShowChoice	Gain
27.7	1.0	0.012	599.316	29.0	2	-10.9	-3.0	29.8624	70.0	2.22	Outcome1	-10.9	5.1	3.529	Yes	n/a	-16.0	n/a	n/a	n/a	ShowResult	Gain
28.72	3.955	0.02	600.336	29.0	2	-10.9	-3.0	29.8624	70.0	2.22	Outcome1	-10.9	5.1	3.529	Yes	n/a	-16.0	n/a	n/a	n/a	ISITrial	Gain
32.698	3.529	0.023	604.314	29.0	2	-10.9	-3.0	29.8624	70.0	2.22	Outcome1	-10.9	5.1	3.529	Yes	n/a	-16.0	n/a	n/a	n/a	TrialHappPreview	Gain
36.259	4.029	0.032	607.875	29.0	2	-10.9	-3.0	29.8624	70.0	2.22	Outcome1	-10.9	5.1	3.529	Yes	n/a	-16.0	n/a	n/a	924.0	TrialHappiness	Gain
36.26	2.02	n/a	608.295	29.0	2	-10.9	-3.0	29.8624	70.0	2.22	Outcome1	-10.9	5.1	3.529	Yes	n/a	-16.0	n/a	n/a	924.0	TrialHappinessSliderResponse	Gain
40.288	6.116	4.029	611.904	29.0	2	-10.9	-3.0	29.8624	70.0	2.22	Outcome1	-10.9	5.1	3.529	Yes	n/a	-16.0	n/a	n/a	n/a	ISIRate	Gain
46.423	3.0	0.019	618.039	30.0	2	-17.02	-9.0	27.7349	70.0	0.82	Outcome2	-0.5	-17.02	0.0	No	n/a	-16.5238095238095	n/a	n/a	n/a	GetAnswer	Mixed
49.449	4.0	0.026	621.065	30.0	2	-17.02	-9.0	27.7349	70.0	0.82	Outcome2	-0.5	-17.02	0.0	No	n/a	-16.5238095238095	n/a	n/a	n/a	ShowChoice	Mixed
53.477	1.0	0.028	625.093	30.0	2	-17.02	-9.0	27.7349	70.0	0.82	Outcome2	-0.5	-17.02	0.0	No	n/a	-16.5238095238095	n/a	n/a	n/a	ShowResult	Mixed
54.497	4.453	0.02	626.113	30.0	2	-17.02	-9.0	27.7349	70.0	0.82	Outcome2	-0.5	-17.02	0.0	No	n/a	-16.5238095238095	n/a	n/a	n/a	ISITrial	Mixed
58.977	3.0	0.027	630.593	31.0	2	0.0	0.0	27.7349	70.0	2.0	Certain	-2.49	1.23	2.50325	Yes	4.0	3.71693121693122	1.763	60.74	n/a	GetAnswer	Gain
60.766	4.0	0.026	632.382	31.0	2	0.0	0.0	27.7349	70.0	2.0	Certain	-2.49	1.23	2.50325	Yes	n/a	3.71693121693122	n/a	n/a	n/a	ShowChoice	Gain
64.795	1.0	0.029	636.411	31.0	2	0.0	0.0	27.7349	70.0	2.0	Certain	-2.49	1.23	2.50325	Yes	n/a	3.71693121693122	n/a	n/a	n/a	ShowResult	Gain
65.814	4.786	0.019	637.43	31.0	2	0.0	0.0	27.7349	70.0	2.0	Certain	-2.49	1.23	2.50325	Yes	n/a	3.71693121693122	n/a	n/a	n/a	ISITrial	Gain
70.629	2.503	0.029	642.245	31.0	2	0.0	0.0	27.7349	70.0	2.0	Certain	-2.49	1.23	2.50325	Yes	n/a	3.71693121693122	n/a	n/a	n/a	TrialHappPreview	Gain
73.153	4.012	0.021	644.769	31.0	2	0.0	0.0	27.7349	70.0	2.0	Certain	-2.49	1.23	2.50325	Yes	n/a	3.71693121693122	n/a	n/a	912.0	TrialHappiness	Gain
73.154	0.975	n/a	645.49	31.0	2	0.0	0.0	27.7349	70.0	2.0	Certain	-2.49	1.23	2.50325	Yes	n/a	3.71693121693122	n/a	n/a	912.0	TrialHappinessSliderResponse	Gain
77.165	2.013	4.012	648.781	31.0	2	0.0	0.0	27.7349	70.0	2.0	Certain	-2.49	1.23	2.50325	Yes	n/a	3.71693121693122	n/a	n/a	n/a	ISIRate	Gain
79.204	3.0	0.026	650.82	32.0	2	-8.96	0.0	26.6149	70.0	2.48	Outcome2	9.3	-8.96	0.0	No	n/a	-18.2562358276644	n/a	n/a	n/a	GetAnswer	Gain
82.23	4.0	0.026	653.846	32.0	2	-8.96	0.0	26.6149	70.0	2.48	Outcome2	9.3	-8.96	0.0	No	n/a	-18.2562358276644	n/a	n/a	n/a	ShowChoice	Gain
86.242	1.0	0.012	657.858	32.0	2	-8.96	0.0	26.6149	70.0	2.48	Outcome2	9.3	-8.96	0.0	No	n/a	-18.2562358276644	n/a	n/a	n/a	ShowResult	Gain
87.262	2.0	0.02	658.878	32.0	2	-8.96	0.0	26.6149	70.0	2.48	Outcome2	9.3	-8.96	0.0	No	n/a	-18.2562358276644	n/a	n/a	n/a	ISITrial	Gain
89.285	3.0	0.023	660.901	33.0	2	-7.0	-7.0	25.7399	70.0	0.3	Certain	2.7	-16.51	0.0	No	4.0	-19.210884353741505	1.641	90.926	n/a	GetAnswer	Mixed
90.94	4.0	0.014	662.556	33.0	2	-7.0	-7.0	25.7399	70.0	0.3	Certain	2.7	-16.51	0.0	No	n/a	-19.210884353741505	n/a	n/a	n/a	ShowChoice	Mixed
94.952	1.0	0.012	666.568	33.0	2	-7.0	-7.0	25.7399	70.0	0.3	Certain	2.7	-16.51	0.0	No	n/a	-19.210884353741505	n/a	n/a	n/a	ShowResult	Mixed
95.971	5.099	0.019	667.587	33.0	2	-7.0	-7.0	25.7399	70.0	0.3	Certain	2.7	-16.51	0.0	No	n/a	-19.210884353741505	n/a	n/a	n/a	ISITrial	Mixed
101.087	3.0	0.017	672.703	34.0	2	-4.0	-4.0	25.2399	70.0	4.2	Certain	6.1	-14.07	3.2315	Yes	4.0	-20.165532879818603	2.196	103.283	n/a	GetAnswer	Gain
103.293	4.0	0.01	674.909	34.0	2	-4.0	-4.0	25.2399	70.0	4.2	Certain	6.1	-14.07	3.2315	Yes	n/a	-20.165532879818603	n/a	n/a	n/a	ShowChoice	Gain
107.305	1.0	0.012	678.921	34.0	2	-4.0	-4.0	25.2399	70.0	4.2	Certain	6.1	-14.07	3.2315	Yes	n/a	-20.165532879818603	n/a	n/a	n/a	ShowResult	Gain
108.325	4.784	0.02	679.941	34.0	2	-4.0	-4.0	25.2399	70.0	4.2	Certain	6.1	-14.07	3.2315	Yes	n/a	-20.165532879818603	n/a	n/a	n/a	ISITrial	Gain
113.123	3.232	0.014	684.739	34.0	2	-4.0	-4.0	25.2399	70.0	4.2	Certain	6.1	-14.07	3.2315	Yes	n/a	-20.165532879818603	n/a	n/a	n/a	TrialHappPreview	Gain
116.383	4.012	0.028	687.999	34.0	2	-4.0	-4.0	25.2399	70.0	4.2	Certain	6.1	-14.07	3.2315	Yes	n/a	-20.165532879818603	n/a	n/a	912.0	TrialHappiness	Gain
116.383	1.751	n/a	688.636	34.0	2	-4.0	-4.0	25.2399	70.0	4.2	Certain	6.1	-14.07	3.2315	Yes	n/a	-20.165532879818603	n/a	n/a	912.0	TrialHappinessSliderResponse	Gain
120.395	4.926	4.012	692.011	34.0	2	-4.0	-4.0	25.2399	70.0	4.2	Certain	6.1	-14.07	3.2315	Yes	n/a	-20.165532879818603	n/a	n/a	n/a	ISIRate	Gain
125.343	3.0	0.022	696.959	35.0	2	2.98	1.0	25.6124	70.0	3.6	Outcome1	2.98	-1.01	0.0	No	2.0	3.9875283446712	2.048	127.391	n/a	GetAnswer	Loss
127.416	4.0	0.025	699.032	35.0	2	2.98	1.0	25.6124	70.0	3.6	Outcome1	2.98	-1.01	0.0	No	n/a	3.9875283446712	n/a	n/a	n/a	ShowChoice	Loss
131.428	1.0	0.012	703.044	35.0	2	2.98	1.0	25.6124	70.0	3.6	Outcome1	2.98	-1.01	0.0	No	n/a	3.9875283446712	n/a	n/a	n/a	ShowResult	Loss
132.447	2.098	0.019	704.063	35.0	2	2.98	1.0	25.6124	70.0	3.6	Outcome1	2.98	-1.01	0.0	No	n/a	3.9875283446712	n/a	n/a	n/a	ISITrial	Loss
134.57	3.0	0.025	706.186	36.0	2	2.12	0.0	25.8774	70.0	1.68	Outcome2	-1.95	2.12	3.33575	Yes	2.0	4.06708238851096	2.959	137.529	n/a	GetAnswer	Gain
137.546	4.0	0.017	709.162	36.0	2	2.12	0.0	25.8774	70.0	1.68	Outcome2	-1.95	2.12	3.33575	Yes	n/a	4.06708238851096	n/a	n/a	n/a	ShowChoice	Gain
141.558	1.0	0.012	713.174	36.0	2	2.12	0.0	25.8774	70.0	1.68	Outcome2	-1.95	2.12	3.33575	Yes	n/a	4.06708238851096	n/a	n/a	n/a	ShowResult	Gain
142.578	5.156	0.02	714.194	36.0	2	2.12	0.0	25.8774	70.0	1.68	Outcome2	-1.95	2.12	3.33575	Yes	n/a	4.06708238851096	n/a	n/a	n/a	ISITrial	Gain
147.76	3.336	0.026	719.376	36.0	2	2.12	0.0	25.8774	70.0	1.68	Outcome2	-1.95	2.12	3.33575	Yes	n/a	4.06708238851096	n/a	n/a	n/a	TrialHappPreview	Gain
151.12	4.012	0.024	722.736	36.0	2	2.12	0.0	25.8774	70.0	1.68	Outcome2	-1.95	2.12	3.33575	Yes	n/a	4.06708238851096	n/a	n/a	940.0	TrialHappiness	Gain
151.121	1.482	n/a	723.002	36.0	2	2.12	0.0	25.8774	70.0	1.68	Outcome2	-1.95	2.12	3.33575	Yes	n/a	4.06708238851096	n/a	n/a	940.0	TrialHappinessSliderResponse	Gain
155.132	5.343	4.012	726.748	36.0	2	2.12	0.0	25.8774	70.0	1.68	Outcome2	-1.95	2.12	3.33575	Yes	n/a	4.06708238851096	n/a	n/a	n/a	ISIRate	Gain
160.498	3.0	0.023	732.114	37.0	2	-4.0	-4.0	25.3774	70.0	2.22	Certain	-16.41	7.1	0.0	No	4.0	-23.5056689342404	1.905	162.403	n/a	GetAnswer	Gain
162.42	4.0	0.017	734.036	37.0	2	-4.0	-4.0	25.3774	70.0	2.22	Certain	-16.41	7.1	0.0	No	n/a	-23.5056689342404	n/a	n/a	n/a	ShowChoice	Gain
166.432	1.0	0.012	738.048	37.0	2	-4.0	-4.0	25.3774	70.0	2.22	Certain	-16.41	7.1	0.0	No	n/a	-23.5056689342404	n/a	n/a	n/a	ShowResult	Gain
167.452	3.598	0.02	739.068	37.0	2	-4.0	-4.0	25.3774	70.0	2.22	Certain	-16.41	7.1	0.0	No	n/a	-23.5056689342404	n/a	n/a	n/a	ISITrial	Gain
171.08	3.0	0.03	742.696	38.0	2	-10.0	-10.0	24.1274	70.0	1.5	Certain	2.1	-22.39	0.0	No	4.0	-24.492063492063497	1.612	172.692	n/a	GetAnswer	Mixed
172.718	4.0	0.026	744.334	38.0	2	-10.0	-10.0	24.1274	70.0	1.5	Certain	2.1	-22.39	0.0	No	n/a	-24.492063492063497	n/a	n/a	n/a	ShowChoice	Mixed
176.73	1.0	0.012	748.346	38.0	2	-10.0	-10.0	24.1274	70.0	1.5	Certain	2.1	-22.39	0.0	No	n/a	-24.492063492063497	n/a	n/a	n/a	ShowResult	Mixed
177.75	4.787	0.02	749.366	38.0	2	-10.0	-10.0	24.1274	70.0	1.5	Certain	2.1	-22.39	0.0	No	n/a	-24.492063492063497	n/a	n/a	n/a	ISITrial	Mixed
182.564	3.0	0.027	754.18	39.0	2	2.48	0.0	24.4374	70.0	3.6	Outcome1	2.48	-1.94	2.86425	Yes	2.0	4.42479213907785	1.877	184.441	n/a	GetAnswer	Gain
184.453	4.0	0.012	756.069	39.0	2	2.48	0.0	24.4374	70.0	3.6	Outcome1	2.48	-1.94	2.86425	Yes	n/a	4.42479213907785	n/a	n/a	n/a	ShowChoice	Gain
188.465	1.0	0.012	760.081	39.0	2	2.48	0.0	24.4374	70.0	3.6	Outcome1	2.48	-1.94	2.86425	Yes	n/a	4.42479213907785	n/a	n/a	n/a	ShowResult	Gain
189.485	2.348	0.02	761.101	39.0	2	2.48	0.0	24.4374	70.0	3.6	Outcome1	2.48	-1.94	2.86425	Yes	n/a	4.42479213907785	n/a	n/a	n/a	ISITrial	Gain
191.859	2.864	0.026	763.475	39.0	2	2.48	0.0	24.4374	70.0	3.6	Outcome1	2.48	-1.94	2.86425	Yes	n/a	4.42479213907785	n/a	n/a	n/a	TrialHappPreview	Gain
194.751	4.012	0.028	766.367	39.0	2	2.48	0.0	24.4374	70.0	3.6	Outcome1	2.48	-1.94	2.86425	Yes	n/a	4.42479213907785	n/a	n/a	952.0	TrialHappiness	Gain
194.751	1.965	n/a	766.789	39.0	2	2.48	0.0	24.4374	70.0	3.6	Outcome1	2.48	-1.94	2.86425	Yes	n/a	4.42479213907785	n/a	n/a	952.0	TrialHappinessSliderResponse	Gain
198.763	3.457	4.012	770.379	39.0	2	2.48	0.0	24.4374	70.0	3.6	Outcome1	2.48	-1.94	2.86425	Yes	n/a	4.42479213907785	n/a	n/a	n/a	ISIRate	Gain
202.24	3.0	0.02	773.856	40.0	2	-14.0	-14.0	22.6874	70.0	0.3	Certain	-27.97	-1.3	0.0	No	4.0	-26.6689342403628	1.68	203.92	n/a	GetAnswer	Mixed
203.945	4.0	0.025	775.561	40.0	2	-14.0	-14.0	22.6874	70.0	0.3	Certain	-27.97	-1.3	0.0	No	n/a	-26.6689342403628	n/a	n/a	n/a	ShowChoice	Mixed
207.957	1.0	0.012	779.573	40.0	2	-14.0	-14.0	22.6874	70.0	0.3	Certain	-27.97	-1.3	0.0	No	n/a	-26.6689342403628	n/a	n/a	n/a	ShowResult	Mixed
208.977	3.158	0.02	780.593	40.0	2	-14.0	-14.0	22.6874	70.0	0.3	Certain	-27.97	-1.3	0.0	No	n/a	-26.6689342403628	n/a	n/a	n/a	ISITrial	Mixed
212.153	3.0	0.018	783.769	41.0	2	-7.0	-7.0	21.8124	70.0	1.82	Certain	6.7	-20.97	4.0	Yes	4.0	-27.6689342403628	2.679	214.832	n/a	GetAnswer	Gain
214.844	4.0	0.012	786.46	41.0	2	-7.0	-7.0	21.8124	70.0	1.82	Certain	6.7	-20.97	4.0	Yes	n/a	-27.6689342403628	n/a	n/a	n/a	ShowChoice	Gain
218.856	1.0	0.012	790.472	41.0	2	-7.0	-7.0	21.8124	70.0	1.82	Certain	6.7	-20.97	4.0	Yes	n/a	-27.6689342403628	n/a	n/a	n/a	ShowResult	Gain
219.876	4.506	0.02	791.492	41.0	2	-7.0	-7.0	21.8124	70.0	1.82	Certain	6.7	-20.97	4.0	Yes	n/a	-27.6689342403628	n/a	n/a	n/a	ISITrial	Gain
224.406	4.0	0.024	796.022	41.0	2	-7.0	-7.0	21.8124	70.0	1.82	Certain	6.7	-20.97	4.0	Yes	n/a	-27.6689342403628	n/a	n/a	n/a	TrialHappPreview	Gain
228.435	4.012	0.029	800.051	41.0	2	-7.0	-7.0	21.8124	70.0	1.82	Certain	6.7	-20.97	4.0	Yes	n/a	-27.6689342403628	n/a	n/a	952.0	TrialHappiness	Gain
228.436	2.579	n/a	800.332	41.0	2	-7.0	-7.0	21.8124	70.0	1.82	Certain	6.7	-20.97	4.0	Yes	n/a	-27.6689342403628	n/a	n/a	952.0	TrialHappinessSliderResponse	Gain
232.447	8.0	4.012	804.063	41.0	2	-7.0	-7.0	21.8124	70.0	1.82	Certain	6.7	-20.97	4.0	Yes	n/a	-27.6689342403628	n/a	n/a	n/a	ISIRate	Gain
240.471	3.0	0.024	812.087	42.0	2	-18.17	-4.0	19.5411	70.0	1.68	Outcome1	-18.17	10.5	0.0	No	2.0	-28.6689342403628	2.524	242.995	n/a	GetAnswer	Loss
243.012	4.0	0.017	814.628	42.0	2	-18.17	-4.0	19.5411	70.0	1.68	Outcome1	-18.17	10.5	0.0	No	n/a	-28.6689342403628	n/a	n/a	n/a	ShowChoice	Loss
247.024	1.0	0.012	818.64	42.0	2	-18.17	-4.0	19.5411	70.0	1.68	Outcome1	-18.17	10.5	0.0	No	n/a	-28.6689342403628	n/a	n/a	n/a	ShowResult	Loss
248.044	6.248	0.02	819.66	42.0	2	-18.17	-4.0	19.5411	70.0	1.68	Outcome1	-18.17	10.5	0.0	No	n/a	-28.6689342403628	n/a	n/a	n/a	ISITrial	Loss
254.312	3.0	0.02	825.928	43.0	2	-4.0	-4.0	19.0411	70.0	2.0	Certain	-18.77	10.9	2.77575	Yes	4.0	-29.6689342403628	2.222	256.534	n/a	GetAnswer	Loss
256.553	4.0	0.019	828.169	43.0	2	-4.0	-4.0	19.0411	70.0	2.0	Certain	-18.77	10.9	2.77575	Yes	n/a	-29.6689342403628	n/a	n/a	n/a	ShowChoice	Loss
260.565	1.0	0.012	832.181	43.0	2	-4.0	-4.0	19.0411	70.0	2.0	Certain	-18.77	10.9	2.77575	Yes	n/a	-29.6689342403628	n/a	n/a	n/a	ShowResult	Loss
261.584	4.596	0.019	833.2	43.0	2	-4.0	-4.0	19.0411	70.0	2.0	Certain	-18.77	10.9	2.77575	Yes	n/a	-29.6689342403628	n/a	n/a	n/a	ISITrial	Loss
266.198	2.776	0.018	837.814	43.0	2	-4.0	-4.0	19.0411	70.0	2.0	Certain	-18.77	10.9	2.77575	Yes	n/a	-29.6689342403628	n/a	n/a	n/a	TrialHappPreview	Loss
268.99	4.012	0.016	840.606	43.0	2	-4.0	-4.0	19.0411	70.0	2.0	Certain	-18.77	10.9	2.77575	Yes	n/a	-29.6689342403628	n/a	n/a	948.0	TrialHappiness	Loss
268.99	2.936	n/a	841.023	43.0	2	-4.0	-4.0	19.0411	70.0	2.0	Certain	-18.77	10.9	2.77575	Yes	n/a	-29.6689342403628	n/a	n/a	948.0	TrialHappinessSliderResponse	Loss
273.002	3.103	4.012	844.618	43.0	2	-4.0	-4.0	19.0411	70.0	2.0	Certain	-18.77	10.9	2.77575	Yes	n/a	-29.6689342403628	n/a	n/a	n/a	ISIRate	Loss
276.128	3.0	0.023	847.744	44.0	2	-9.0	-9.0	17.9161	70.0	3.16	Certain	5.7	-24.9	0.0	No	4.0	-30.600907029478503	2.141	278.269	n/a	GetAnswer	Gain
278.284	4.0	0.015	849.9	44.0	2	-9.0	-9.0	17.9161	70.0	3.16	Certain	5.7	-24.9	0.0	No	n/a	-30.600907029478503	n/a	n/a	n/a	ShowChoice	Gain
282.296	1.0	0.012	853.912	44.0	2	-9.0	-9.0	17.9161	70.0	3.16	Certain	5.7	-24.9	0.0	No	n/a	-30.600907029478503	n/a	n/a	n/a	ShowResult	Gain
283.316	2.42	0.02	854.932	44.0	2	-9.0	-9.0	17.9161	70.0	3.16	Certain	5.7	-24.9	0.0	No	n/a	-30.600907029478503	n/a	n/a	n/a	ISITrial	Gain
285.757	3.0	0.021	857.373	45.0	2	-17.0	-17.0	15.7911	70.0	0.4	Certain	-1.1	-32.7	0.0	No	4.0	-31.5963718820862	2.663	288.42	n/a	GetAnswer	Mixed
288.431	4.0	0.011	860.047	45.0	2	-17.0	-17.0	15.7911	70.0	0.4	Certain	-1.1	-32.7	0.0	No	n/a	-31.5963718820862	n/a	n/a	n/a	ShowChoice	Mixed
292.443	1.0	0.012	864.059	45.0	2	-17.0	-17.0	15.7911	70.0	0.4	Certain	-1.1	-32.7	0.0	No	n/a	-31.5963718820862	n/a	n/a	n/a	ShowResult	Mixed
293.463	3.144	0.02	865.079	45.0	2	-17.0	-17.0	15.7911	70.0	0.4	Certain	-1.1	-32.7	0.0	No	n/a	-31.5963718820862	n/a	n/a	n/a	ISITrial	Mixed
296.623	3.0	0.016	868.239	46.0	2	-12.0	-12.0	14.2911	70.0	1.68	Certain	4.5	-28.09	3.84125	Yes	4.0	-32.5918367346939	1.946	298.569	n/a	GetAnswer	Gain
298.595	4.0	0.025	870.211	46.0	2	-12.0	-12.0	14.2911	70.0	1.68	Certain	4.5	-28.09	3.84125	Yes	n/a	-32.5918367346939	n/a	n/a	n/a	ShowChoice	Gain
302.607	1.0	0.012	874.223	46.0	2	-12.0	-12.0	14.2911	70.0	1.68	Certain	4.5	-28.09	3.84125	Yes	n/a	-32.5918367346939	n/a	n/a	n/a	ShowResult	Gain
303.627	2.246	0.02	875.243	46.0	2	-12.0	-12.0	14.2911	70.0	1.68	Certain	4.5	-28.09	3.84125	Yes	n/a	-32.5918367346939	n/a	n/a	n/a	ISITrial	Gain
305.884	3.841	0.011	877.5	46.0	2	-12.0	-12.0	14.2911	70.0	1.68	Certain	4.5	-28.09	3.84125	Yes	n/a	-32.5918367346939	n/a	n/a	n/a	TrialHappPreview	Gain
309.745	4.012	0.02	881.361	46.0	2	-12.0	-12.0	14.2911	70.0	1.68	Certain	4.5	-28.09	3.84125	Yes	2{-2}	-32.5918367346939	1.21	310.955	912.0	TrialHappiness	Gain
309.746	0.979	n/a	881.593	46.0	2	-12.0	-12.0	14.2911	70.0	1.68	Certain	4.5	-28.09	3.84125	Yes	n/a	-32.5918367346939	n/a	n/a	912.0	TrialHappinessSliderResponse	Gain
313.757	7.365	4.012	885.373	46.0	2	-12.0	-12.0	14.2911	70.0	1.68	Certain	4.5	-28.09	3.84125	Yes	n/a	-32.5918367346939	n/a	n/a	n/a	ISIRate	Gain
321.146	3.0	0.024	892.762	47.0	2	-32.48	-16.0	10.2311	70.0	0.2	Outcome1	-32.48	0.5	0.0	No	2.0	-32.9750566893424	1.965	323.111	n/a	GetAnswer	Mixed
323.135	4.0	0.024	894.751	47.0	2	-32.48	-16.0	10.2311	70.0	0.2	Outcome1	-32.48	0.5	0.0	No	n/a	-32.9750566893424	n/a	n/a	n/a	ShowChoice	Mixed
327.147	1.0	0.012	898.763	47.0	2	-32.48	-16.0	10.2311	70.0	0.2	Outcome1	-32.48	0.5	0.0	No	n/a	-32.9750566893424	n/a	n/a	n/a	ShowResult	Mixed
328.167	2.0	0.02	899.783	47.0	2	-32.48	-16.0	10.2311	70.0	0.2	Outcome1	-32.48	0.5	0.0	No	n/a	-32.9750566893424	n/a	n/a	n/a	ISITrial	Mixed
330.19	3.0	0.023	901.806	48.0	2	-21.03	-4.0	7.6023	70.0	2.0	Outcome2	12.9	-21.03	2.83175	Yes	2.0	-33.9297052154195	1.673	331.863	n/a	GetAnswer	Loss
331.878	4.0	0.015	903.494	48.0	2	-21.03	-4.0	7.6023	70.0	2.0	Outcome2	12.9	-21.03	2.83175	Yes	n/a	-33.9297052154195	n/a	n/a	n/a	ShowChoice	Loss
335.89	1.0	0.012	907.506	48.0	2	-21.03	-4.0	7.6023	70.0	2.0	Outcome2	12.9	-21.03	2.83175	Yes	n/a	-33.9297052154195	n/a	n/a	n/a	ShowResult	Loss
336.91	3.692	0.02	908.526	48.0	2	-21.03	-4.0	7.6023	70.0	2.0	Outcome2	12.9	-21.03	2.83175	Yes	n/a	-33.9297052154195	n/a	n/a	n/a	ISITrial	Loss
340.621	2.832	0.019	912.237	48.0	2	-21.03	-4.0	7.6023	70.0	2.0	Outcome2	12.9	-21.03	2.83175	Yes	n/a	-33.9297052154195	n/a	n/a	n/a	TrialHappPreview	Loss
343.48	4.012	0.027	915.096	48.0	2	-21.03	-4.0	7.6023	70.0	2.0	Outcome2	12.9	-21.03	2.83175	Yes	n/a	-33.9297052154195	n/a	n/a	904.0	TrialHappiness	Loss
343.48	1.669	n/a	915.55	48.0	2	-21.03	-4.0	7.6023	70.0	2.0	Outcome2	12.9	-21.03	2.83175	Yes	n/a	-33.9297052154195	n/a	n/a	904.0	TrialHappinessSliderResponse	Loss
347.492	3.327	4.012	919.108	48.0	2	-21.03	-4.0	7.6023	70.0	2.0	Outcome2	12.9	-21.03	2.83175	Yes	n/a	-33.9297052154195	n/a	n/a	n/a	ISIRate	Loss
350.835	3.0	0.016	922.451	49.0	2	-12.0	-12.0	6.1023	70.0	2.8	Certain	-29.25	5.5	0.0	No	4.0	-34.7482993197279	1.364	352.199	n/a	GetAnswer	Gain
352.223	4.0	0.024	923.839	49.0	2	-12.0	-12.0	6.1023	70.0	2.8	Certain	-29.25	5.5	0.0	No	n/a	-34.7482993197279	n/a	n/a	n/a	ShowChoice	Gain
356.235	1.0	0.012	927.851	49.0	2	-12.0	-12.0	6.1023	70.0	2.8	Certain	-29.25	5.5	0.0	No	n/a	-34.7482993197279	n/a	n/a	n/a	ShowResult	Gain
357.254	8.0	0.019	928.87	49.0	2	-12.0	-12.0	6.1023	70.0	2.8	Certain	-29.25	5.5	0.0	No	n/a	-34.7482993197279	n/a	n/a	n/a	ISITrial	Gain
365.278	3.0	0.024	936.894	50.0	2	3.12	0.0	6.4923	70.0	1.68	Outcome2	-2.06	3.12	3.54725	Yes	2.0	5.180839002267571	1.642	366.92	n/a	GetAnswer	Loss
366.933	4.0	0.013	938.549	50.0	2	3.12	0.0	6.4923	70.0	1.68	Outcome2	-2.06	3.12	3.54725	Yes	n/a	5.180839002267571	n/a	n/a	n/a	ShowChoice	Loss
370.945	1.0	0.012	942.561	50.0	2	3.12	0.0	6.4923	70.0	1.68	Outcome2	-2.06	3.12	3.54725	Yes	n/a	5.180839002267571	n/a	n/a	n/a	ShowResult	Loss
371.965	7.537	0.02	943.581	50.0	2	3.12	0.0	6.4923	70.0	1.68	Outcome2	-2.06	3.12	3.54725	Yes	n/a	5.180839002267571	n/a	n/a	n/a	ISITrial	Loss
379.521	3.547	0.019	951.137	50.0	2	3.12	0.0	6.4923	70.0	1.68	Outcome2	-2.06	3.12	3.54725	Yes	n/a	5.180839002267571	n/a	n/a	n/a	TrialHappPreview	Loss
383.098	4.012	0.03	954.714	50.0	2	3.12	0.0	6.4923	70.0	1.68	Outcome2	-2.06	3.12	3.54725	Yes	n/a	5.180839002267571	n/a	n/a	928.0	TrialHappiness	Loss
383.099	2.172	n/a	955.204	50.0	2	3.12	0.0	6.4923	70.0	1.68	Outcome2	-2.06	3.12	3.54725	Yes	n/a	5.180839002267571	n/a	n/a	928.0	TrialHappinessSliderResponse	Loss
387.11	6.189	4.012	958.726	50.0	2	3.12	0.0	6.4923	70.0	1.68	Outcome2	-2.06	3.12	3.54725	Yes	n/a	5.180839002267571	n/a	n/a	n/a	ISIRate	Loss
393.329	3.0	0.03	964.945	51.0	2	-25.55	-7.0	3.2985	70.0	2.8	Outcome1	-25.55	11.5	0.0	No	2.0	-37.0476190476191	2.294	395.623	n/a	GetAnswer	Loss
395.636	4.0	0.013	967.252	51.0	2	-25.55	-7.0	3.2985	70.0	2.8	Outcome1	-25.55	11.5	0.0	No	n/a	-37.0476190476191	n/a	n/a	n/a	ShowChoice	Loss
399.648	1.0	0.012	971.264	51.0	2	-25.55	-7.0	3.2985	70.0	2.8	Outcome1	-25.55	11.5	0.0	No	n/a	-37.0476190476191	n/a	n/a	n/a	ShowResult	Loss
400.668	5.508	0.02	972.284	51.0	2	-25.55	-7.0	3.2985	70.0	2.8	Outcome1	-25.55	11.5	0.0	No	n/a	-37.0476190476191	n/a	n/a	n/a	ISITrial	Loss
406.201	3.0	0.025	977.817	52.0	2	-31.72	-12.0	-0.6665	70.0	5.0	Outcome1	-31.72	6.3	0.0	No	2.0	-38.020408163265294	2.034	408.235	n/a	GetAnswer	Gain
408.257	4.0	0.022	979.873	52.0	2	-31.72	-12.0	-0.6665	70.0	5.0	Outcome1	-31.72	6.3	0.0	No	n/a	-38.020408163265294	n/a	n/a	n/a	ShowChoice	Gain
412.269	1.0	0.012	983.885	52.0	2	-31.72	-12.0	-0.6665	70.0	5.0	Outcome1	-31.72	6.3	0.0	No	n/a	-38.020408163265294	n/a	n/a	n/a	ShowResult	Gain
413.289	5.913	0.02	984.905	52.0	2	-31.72	-12.0	-0.6665	70.0	5.0	Outcome1	-31.72	6.3	0.0	No	n/a	-38.020408163265294	n/a	n/a	n/a	ISITrial	Gain
419.223	3.0	0.021	990.839	53.0	2	-26.69	-7.0	-4.0027	70.0	5.0	Outcome2	12.3	-26.69	2.99675	Yes	2.0	-38.9931972789116	1.907	421.13	n/a	GetAnswer	Loss
421.146	4.0	0.016	992.762	53.0	2	-26.69	-7.0	-4.0027	70.0	5.0	Outcome2	12.3	-26.69	2.99675	Yes	n/a	-38.9931972789116	n/a	n/a	n/a	ShowChoice	Loss
425.158	1.0	0.012	996.774	53.0	2	-26.69	-7.0	-4.0027	70.0	5.0	Outcome2	12.3	-26.69	2.99675	Yes	n/a	-38.9931972789116	n/a	n/a	n/a	ShowResult	Loss
426.177	3.66	0.019	997.793	53.0	2	-26.69	-7.0	-4.0027	70.0	5.0	Outcome2	12.3	-26.69	2.99675	Yes	n/a	-38.9931972789116	n/a	n/a	n/a	ISITrial	Loss
429.855	2.997	0.018	1001.471	53.0	2	-26.69	-7.0	-4.0027	70.0	5.0	Outcome2	12.3	-26.69	2.99675	Yes	n/a	-38.9931972789116	n/a	n/a	n/a	TrialHappPreview	Loss
432.881	4.012	0.029	1004.497	53.0	2	-26.69	-7.0	-4.0027	70.0	5.0	Outcome2	12.3	-26.69	2.99675	Yes	n/a	-38.9931972789116	n/a	n/a	896.0	TrialHappiness	Loss
432.881	2.789	n/a	1004.992	53.0	2	-26.69	-7.0	-4.0027	70.0	5.0	Outcome2	12.3	-26.69	2.99675	Yes	n/a	-38.9931972789116	n/a	n/a	896.0	TrialHappinessSliderResponse	Loss
436.893	3.987	4.012	1008.509	53.0	2	-26.69	-7.0	-4.0027	70.0	5.0	Outcome2	12.3	-26.69	2.99675	Yes	n/a	-38.9931972789116	n/a	n/a	n/a	ISIRate	Loss
440.905	3.0	0.025	1012.521	54.0	2	-37.52	-18.0	-8.6927	70.0	1.2	Outcome1	-37.52	1.9	0.0	No	2.0	-39.42176870748301	1.518	442.423	n/a	GetAnswer	Mixed
442.443	4.0	0.02	1014.059	54.0	2	-37.52	-18.0	-8.6927	70.0	1.2	Outcome1	-37.52	1.9	0.0	No	n/a	-39.42176870748301	n/a	n/a	n/a	ShowChoice	Mixed
446.455	1.0	0.012	1018.071	54.0	2	-37.52	-18.0	-8.6927	70.0	1.2	Outcome1	-37.52	1.9	0.0	No	n/a	-39.42176870748301	n/a	n/a	n/a	ShowResult	Mixed
447.475	8.0	0.02	1019.091	54.0	2	-37.52	-18.0	-8.6927	70.0	1.2	Outcome1	-37.52	1.9	0.0	No	n/a	-39.42176870748301	n/a	n/a	n/a	ISITrial	Mixed
503.443	0.994	n/a	1075.994	n/a	2	n/a	n/a	n/a	n/a	n/a	n/a	n/a	n/a	n/a	n/a	n/a	n/a	n/a	n/a	920.0	BlockStartHappinessSliderResponse	n/a
-55.432	-0.001	0.024	1027.115	n/a	3	n/a	n/a	n/a	n/a	n/a	n/a	n/a	n/a	n/a	n/a	{SPACE}	n/a	43.914	-11.518	n/a	Rest	n/a
-11.501	4.0	0.017	1071.046	n/a	3	n/a	n/a	n/a	n/a	n/a	n/a	n/a	n/a	n/a	n/a	n/a	n/a	n/a	n/a	n/a	BlockHappyPreview	n/a
-7.489	1.929	0.012	1075.058	n/a	3	n/a	n/a	n/a	n/a	n/a	n/a	n/a	n/a	n/a	n/a	2{-2}	n/a	1.929	-5.56	920.0	BlockStartHappiness	n/a
-2.022	-0.001	0.024	1080.525	n/a	3	n/a	n/a	n/a	n/a	n/a	n/a	n/a	n/a	n/a	n/a	5.0	n/a	1.998	-0.024	n/a	ScanWait	n/a
0.0	10.0	0.024	1082.547	n/a	3	n/a	n/a	n/a	n/a	n/a	n/a	n/a	n/a	n/a	n/a	n/a	n/a	n/a	n/a	n/a	GetReady	n/a
10.014	3.0	0.014	1092.561	55.0	3	1.5	1.0	-8.5052	955.0	0.82	Outcome1	1.5	0.91	2.53325	Yes	2.0	0.5945639864099661	1.132	11.146	n/a	GetAnswer	Mixed
11.167	4.0	0.021	1093.714	55.0	3	1.5	1.0	-8.5052	955.0	0.82	Outcome1	1.5	0.91	2.53325	Yes	n/a	0.5945639864099661	n/a	n/a	n/a	ShowChoice	Mixed
15.179	1.0	0.012	1097.726	55.0	3	1.5	1.0	-8.5052	955.0	0.82	Outcome1	1.5	0.91	2.53325	Yes	n/a	0.5945639864099661	n/a	n/a	n/a	ShowResult	Mixed
16.199	7.709	0.02	1098.746	55.0	3	1.5	1.0	-8.5052	955.0	0.82	Outcome1	1.5	0.91	2.53325	Yes	n/a	0.5945639864099661	n/a	n/a	n/a	ISITrial	Mixed
23.922	2.533	0.014	1106.469	55.0	3	1.5	1.0	-8.5052	955.0	0.82	Outcome1	1.5	0.91	2.53325	Yes	n/a	0.5945639864099661	n/a	n/a	n/a	TrialHappPreview	Mixed
26.48	4.012	0.025	1109.027	55.0	3	1.5	1.0	-8.5052	955.0	0.82	Outcome1	1.5	0.91	2.53325	Yes	n/a	0.5945639864099661	n/a	n/a	932.0	TrialHappiness	Mixed
26.48	1.881	n/a	1109.727	55.0	3	1.5	1.0	-8.5052	955.0	0.82	Outcome1	1.5	0.91	2.53325	Yes	n/a	0.5945639864099661	n/a	n/a	932.0	TrialHappinessSliderResponse	Mixed
30.492	2.133	4.012	1113.039	55.0	3	1.5	1.0	-8.5052	955.0	0.82	Outcome1	1.5	0.91	2.53325	Yes	n/a	0.5945639864099661	n/a	n/a	n/a	ISIRate	Mixed
32.648	3.0	0.023	1115.195	56.0	3	5.9	2.74	-7.7677	955.0	3.6	Outcome1	5.9	5.47	0.0	No	2.0	0.43035107587769	1.014	33.662	n/a	GetAnswer	Gain
33.685	4.0	0.023	1116.232	56.0	3	5.9	2.74	-7.7677	955.0	3.6	Outcome1	5.9	5.47	0.0	No	n/a	0.43035107587769	n/a	n/a	n/a	ShowChoice	Gain
37.697	1.0	0.012	1120.244	56.0	3	5.9	2.74	-7.7677	955.0	3.6	Outcome1	5.9	5.47	0.0	No	n/a	0.43035107587769	n/a	n/a	n/a	ShowResult	Gain
38.716	4.697	0.019	1121.263	56.0	3	5.9	2.74	-7.7677	955.0	3.6	Outcome1	5.9	5.47	0.0	No	n/a	0.43035107587769	n/a	n/a	n/a	ISITrial	Gain
43.431	3.0	0.018	1125.978	57.0	3	0.3	0.0	-7.7302	955.0	2.0	Outcome1	0.3	-0.16	0.0	No	2.0	0.456398640996603	1.511	44.942	n/a	GetAnswer	Mixed
44.968	4.0	0.026	1127.515	57.0	3	0.3	0.0	-7.7302	955.0	2.0	Outcome1	0.3	-0.16	0.0	No	n/a	0.456398640996603	n/a	n/a	n/a	ShowChoice	Mixed
48.98	1.0	0.012	1131.527	57.0	3	0.3	0.0	-7.7302	955.0	2.0	Outcome1	0.3	-0.16	0.0	No	n/a	0.456398640996603	n/a	n/a	n/a	ShowResult	Mixed
50.0	4.291	0.02	1132.547	57.0	3	0.3	0.0	-7.7302	955.0	2.0	Outcome1	0.3	-0.16	0.0	No	n/a	0.456398640996603	n/a	n/a	n/a	ISITrial	Mixed
54.313	3.0	0.022	1136.86	58.0	3	1.0	1.0	-7.6052	955.0	0.66	Certain	0.82	1.3	3.04575	Yes	4.0	0.482446206115515	1.527	55.84	n/a	GetAnswer	Mixed
55.851	4.0	0.011	1138.398	58.0	3	1.0	1.0	-7.6052	955.0	0.66	Certain	0.82	1.3	3.04575	Yes	n/a	0.482446206115515	n/a	n/a	n/a	ShowChoice	Mixed
59.863	1.0	0.012	1142.41	58.0	3	1.0	1.0	-7.6052	955.0	0.66	Certain	0.82	1.3	3.04575	Yes	n/a	0.482446206115515	n/a	n/a	n/a	ShowResult	Mixed
60.883	2.037	0.02	1143.43	58.0	3	1.0	1.0	-7.6052	955.0	0.66	Certain	0.82	1.3	3.04575	Yes	n/a	0.482446206115515	n/a	n/a	n/a	ISITrial	Mixed
62.939	3.046	0.019	1145.486	58.0	3	1.0	1.0	-7.6052	955.0	0.66	Certain	0.82	1.3	3.04575	Yes	n/a	0.482446206115515	n/a	n/a	n/a	TrialHappPreview	Mixed
66.015	4.012	0.03	1148.562	58.0	3	1.0	1.0	-7.6052	955.0	0.66	Certain	0.82	1.3	3.04575	Yes	n/a	0.482446206115515	n/a	n/a	952.0	TrialHappiness	Mixed
66.015	1.25	n/a	1148.99	58.0	3	1.0	1.0	-7.6052	955.0	0.66	Certain	0.82	1.3	3.04575	Yes	n/a	0.482446206115515	n/a	n/a	952.0	TrialHappinessSliderResponse	Mixed
70.027	4.183	4.012	1152.574	58.0	3	1.0	1.0	-7.6052	955.0	0.66	Certain	0.82	1.3	3.04575	Yes	n/a	0.482446206115515	n/a	n/a	n/a	ISIRate	Mixed
74.24	3.0	0.03	1156.787	59.0	3	0.68	0.0	-7.5202	955.0	0.3	Outcome2	0.7	0.68	0.0	No	2.0	-0.0219894299735749	1.046	75.286	n/a	GetAnswer	Mixed
75.309	4.0	0.023	1157.856	59.0	3	0.68	0.0	-7.5202	955.0	0.3	Outcome2	0.7	0.68	0.0	No	n/a	-0.0219894299735749	n/a	n/a	n/a	ShowChoice	Mixed
79.321	1.0	0.012	1161.868	59.0	3	0.68	0.0	-7.5202	955.0	0.3	Outcome2	0.7	0.68	0.0	No	n/a	-0.0219894299735749	n/a	n/a	n/a	ShowResult	Mixed
80.341	5.064	0.02	1162.888	59.0	3	0.68	0.0	-7.5202	955.0	0.3	Outcome2	0.7	0.68	0.0	No	n/a	-0.0219894299735749	n/a	n/a	n/a	ISITrial	Mixed
85.423	3.0	0.018	1167.97	60.0	3	8.7	4.26	-6.4327	955.0	1.82	Outcome1	8.7	8.53	3.5625	Yes	2.0	0.1721404303510759	0.97	86.393	n/a	GetAnswer	Gain
86.409	4.0	0.016	1168.956	60.0	3	8.7	4.26	-6.4327	955.0	1.82	Outcome1	8.7	8.53	3.5625	Yes	n/a	0.1721404303510759	n/a	n/a	n/a	ShowChoice	Gain
90.421	1.0	0.012	1172.968	60.0	3	8.7	4.26	-6.4327	955.0	1.82	Outcome1	8.7	8.53	3.5625	Yes	n/a	0.1721404303510759	n/a	n/a	n/a	ShowResult	Gain
91.441	8.0	0.02	1173.988	60.0	3	8.7	4.26	-6.4327	955.0	1.82	Outcome1	8.7	8.53	3.5625	Yes	n/a	0.1721404303510759	n/a	n/a	n/a	ISITrial	Gain
99.465	3.562	0.024	1182.012	60.0	3	8.7	4.26	-6.4327	955.0	1.82	Outcome1	8.7	8.53	3.5625	Yes	n/a	0.1721404303510759	n/a	n/a	n/a	TrialHappPreview	Gain
103.042	4.013	0.015	1185.589	60.0	3	8.7	4.26	-6.4327	955.0	1.82	Outcome1	8.7	8.53	3.5625	Yes	n/a	0.1721404303510759	n/a	n/a	952.0	TrialHappiness	Gain
103.043	1.25	n/a	1185.968	60.0	3	8.7	4.26	-6.4327	955.0	1.82	Outcome1	8.7	8.53	3.5625	Yes	n/a	0.1721404303510759	n/a	n/a	952.0	TrialHappinessSliderResponse	Gain
107.055	6.25	4.013	1189.602	60.0	3	8.7	4.26	-6.4327	955.0	1.82	Outcome1	8.7	8.53	3.5625	Yes	n/a	0.1721404303510759	n/a	n/a	n/a	ISIRate	Gain
113.323	3.0	0.018	1195.87	61.0	3	6.88	3.44	-5.5727	955.0	2.0	Outcome1	6.88	6.9	0.0	No	2.0	-0.0225556813892035	0.928	114.251	n/a	GetAnswer	Gain
114.276	4.0	0.025	1196.823	61.0	3	6.88	3.44	-5.5727	955.0	2.0	Outcome1	6.88	6.9	0.0	No	n/a	-0.0225556813892035	n/a	n/a	n/a	ShowChoice	Gain
118.288	1.0	0.012	1200.835	61.0	3	6.88	3.44	-5.5727	955.0	2.0	Outcome1	6.88	6.9	0.0	No	n/a	-0.0225556813892035	n/a	n/a	n/a	ShowResult	Gain
119.308	4.586	0.02	1201.855	61.0	3	6.88	3.44	-5.5727	955.0	2.0	Outcome1	6.88	6.9	0.0	No	n/a	-0.0225556813892035	n/a	n/a	n/a	ISITrial	Gain
123.922	3.0	0.028	1206.469	62.0	3	2.9	1.36	-5.2102	955.0	0.4	Outcome1	2.9	2.72	3.74875	Yes	2.0	0.178935447338618	0.701	124.623	n/a	GetAnswer	Mixed
124.641	4.0	0.018	1207.188	62.0	3	2.9	1.36	-5.2102	955.0	0.4	Outcome1	2.9	2.72	3.74875	Yes	n/a	0.178935447338618	n/a	n/a	n/a	ShowChoice	Mixed
128.653	1.0	0.012	1211.2	62.0	3	2.9	1.36	-5.2102	955.0	0.4	Outcome1	2.9	2.72	3.74875	Yes	n/a	0.178935447338618	n/a	n/a	n/a	ShowResult	Mixed
129.672	5.212	0.019	1212.219	62.0	3	2.9	1.36	-5.2102	955.0	0.4	Outcome1	2.9	2.72	3.74875	Yes	n/a	0.178935447338618	n/a	n/a	n/a	ISITrial	Mixed
134.905	3.749	0.021	1217.452	62.0	3	2.9	1.36	-5.2102	955.0	0.4	Outcome1	2.9	2.72	3.74875	Yes	n/a	0.178935447338618	n/a	n/a	n/a	TrialHappPreview	Mixed
138.683	4.012	0.029	1221.23	62.0	3	2.9	1.36	-5.2102	955.0	0.4	Outcome1	2.9	2.72	3.74875	Yes	n/a	0.178935447338618	n/a	n/a	952.0	TrialHappiness	Mixed
138.683	1.201	n/a	1221.64	62.0	3	2.9	1.36	-5.2102	955.0	0.4	Outcome1	2.9	2.72	3.74875	Yes	n/a	0.178935447338618	n/a	n/a	952.0	TrialHappinessSliderResponse	Mixed
142.695	6.995	4.012	1225.242	62.0	3	2.9	1.36	-5.2102	955.0	0.4	Outcome1	2.9	2.72	3.74875	Yes	n/a	0.178935447338618	n/a	n/a	n/a	ISIRate	Mixed
149.716	3.0	0.026	1232.263	63.0	3	4.28	2.14	-4.6752	955.0	2.0	Outcome2	4.3	4.28	0.0	No	2.0	-0.023121932804832	0.906	150.622	n/a	GetAnswer	Mixed
150.635	4.0	0.013	1233.182	63.0	3	4.28	2.14	-4.6752	955.0	2.0	Outcome2	4.3	4.28	0.0	No	n/a	-0.023121932804832	n/a	n/a	n/a	ShowChoice	Mixed
154.647	1.0	0.012	1237.194	63.0	3	4.28	2.14	-4.6752	955.0	2.0	Outcome2	4.3	4.28	0.0	No	n/a	-0.023121932804832	n/a	n/a	n/a	ShowResult	Mixed
155.667	5.595	0.02	1238.214	63.0	3	4.28	2.14	-4.6752	955.0	2.0	Outcome2	4.3	4.28	0.0	No	n/a	-0.023121932804832	n/a	n/a	n/a	ISITrial	Mixed
161.284	3.0	0.022	1243.831	64.0	3	11.28	5.64	-3.2652	955.0	2.48	Outcome1	11.28	11.3	0.0	No	2.0	-0.0234050585126463	0.821	162.105	n/a	GetAnswer	Loss
162.12	4.0	0.015	1244.667	64.0	3	11.28	5.64	-3.2652	955.0	2.48	Outcome1	11.28	11.3	0.0	No	n/a	-0.0234050585126463	n/a	n/a	n/a	ShowChoice	Loss
166.132	1.0	0.012	1248.679	64.0	3	11.28	5.64	-3.2652	955.0	2.48	Outcome1	11.28	11.3	0.0	No	n/a	-0.0234050585126463	n/a	n/a	n/a	ShowResult	Loss
167.151	5.47	0.019	1249.698	64.0	3	11.28	5.64	-3.2652	955.0	2.48	Outcome1	11.28	11.3	0.0	No	n/a	-0.0234050585126463	n/a	n/a	n/a	ISITrial	Loss
172.651	3.0	0.03	1255.198	65.0	3	8.3	4.06	-2.2277	955.0	5.0	Outcome1	8.3	8.11	2.99675	Yes	2.0	0.189127972819932	0.827	173.478	n/a	GetAnswer	Gain
173.504	4.0	0.026	1256.051	65.0	3	8.3	4.06	-2.2277	955.0	5.0	Outcome1	8.3	8.11	2.99675	Yes	n/a	0.189127972819932	n/a	n/a	n/a	ShowChoice	Gain
177.516	1.0	0.012	1260.063	65.0	3	8.3	4.06	-2.2277	955.0	5.0	Outcome1	8.3	8.11	2.99675	Yes	n/a	0.189127972819932	n/a	n/a	n/a	ShowResult	Gain
178.535	3.344	0.019	1261.082	65.0	3	8.3	4.06	-2.2277	955.0	5.0	Outcome1	8.3	8.11	2.99675	Yes	n/a	0.189127972819932	n/a	n/a	n/a	ISITrial	Gain
181.895	2.997	0.016	1264.442	65.0	3	8.3	4.06	-2.2277	955.0	5.0	Outcome1	8.3	8.11	2.99675	Yes	n/a	0.189127972819932	n/a	n/a	n/a	TrialHappPreview	Gain
184.921	4.012	0.029	1267.468	65.0	3	8.3	4.06	-2.2277	955.0	5.0	Outcome1	8.3	8.11	2.99675	Yes	n/a	0.189127972819932	n/a	n/a	952.0	TrialHappiness	Gain
184.922	1.27	n/a	1267.979	65.0	3	8.3	4.06	-2.2277	955.0	5.0	Outcome1	8.3	8.11	2.99675	Yes	n/a	0.189127972819932	n/a	n/a	952.0	TrialHappinessSliderResponse	Gain
188.933	3.987	4.012	1271.48	65.0	3	8.3	4.06	-2.2277	955.0	5.0	Outcome1	8.3	8.11	2.99675	Yes	n/a	0.189127972819932	n/a	n/a	n/a	ISIRate	Gain
192.945	3.0	0.025	1275.492	66.0	3	0.0	0.0	-2.2277	955.0	1.2	Certain	-0.29	-0.1	0.0	No	4.0	0.1925254813137029	1.254	194.199	n/a	GetAnswer	Mixed
194.216	4.0	0.017	1276.763	66.0	3	0.0	0.0	-2.2277	955.0	1.2	Certain	-0.29	-0.1	0.0	No	n/a	0.1925254813137029	n/a	n/a	n/a	ShowChoice	Mixed
198.228	1.0	0.012	1280.775	66.0	3	0.0	0.0	-2.2277	955.0	1.2	Certain	-0.29	-0.1	0.0	No	n/a	0.1925254813137029	n/a	n/a	n/a	ShowResult	Mixed
199.247	3.959	0.019	1281.794	66.0	3	0.0	0.0	-2.2277	955.0	1.2	Certain	-0.29	-0.1	0.0	No	n/a	0.1925254813137029	n/a	n/a	n/a	ISITrial	Mixed
203.226	3.0	0.02	1285.773	67.0	3	-0.92	-1.0	-2.3427	955.0	0.52	Outcome2	-0.9	-0.92	2.9185	Yes	2.0	-0.0242544356360891	1.905	205.131	n/a	GetAnswer	Mixed
205.148	4.0	0.017	1287.695	67.0	3	-0.92	-1.0	-2.3427	955.0	0.52	Outcome2	-0.9	-0.92	2.9185	Yes	n/a	-0.0242544356360891	n/a	n/a	n/a	ShowChoice	Mixed
209.16	1.0	0.012	1291.707	67.0	3	-0.92	-1.0	-2.3427	955.0	0.52	Outcome2	-0.9	-0.92	2.9185	Yes	n/a	-0.0242544356360891	n/a	n/a	n/a	ShowResult	Mixed
210.18	4.199	0.02	1292.727	67.0	3	-0.92	-1.0	-2.3427	955.0	0.52	Outcome2	-0.9	-0.92	2.9185	Yes	n/a	-0.0242544356360891	n/a	n/a	n/a	ISITrial	Mixed
214.393	2.918	0.014	1296.94	67.0	3	-0.92	-1.0	-2.3427	955.0	0.52	Outcome2	-0.9	-0.92	2.9185	Yes	n/a	-0.0242544356360891	n/a	n/a	n/a	TrialHappPreview	Mixed
217.335	4.012	0.024	1299.882	67.0	3	-0.92	-1.0	-2.3427	955.0	0.52	Outcome2	-0.9	-0.92	2.9185	Yes	n/a	-0.0242544356360891	n/a	n/a	952.0	TrialHappiness	Mixed
217.336	1.14	n/a	1300.505	67.0	3	-0.92	-1.0	-2.3427	955.0	0.52	Outcome2	-0.9	-0.92	2.9185	Yes	n/a	-0.0242544356360891	n/a	n/a	952.0	TrialHappinessSliderResponse	Mixed
221.347	3.674	4.012	1303.894	67.0	3	-0.92	-1.0	-2.3427	955.0	0.52	Outcome2	-0.9	-0.92	2.9185	Yes	n/a	-0.0242544356360891	n/a	n/a	n/a	ISIRate	Mixed
225.041	3.0	0.02	1307.588	68.0	3	13.48	6.74	-0.6577	955.0	2.8	Outcome2	13.5	13.48	0.0	No	2.0	-0.0245375613439034	0.965	226.006	n/a	GetAnswer	Loss
226.028	4.0	0.022	1308.575	68.0	3	13.48	6.74	-0.6577	955.0	2.8	Outcome2	13.5	13.48	0.0	No	n/a	-0.0245375613439034	n/a	n/a	n/a	ShowChoice	Loss
230.04	1.0	0.012	1312.587	68.0	3	13.48	6.74	-0.6577	955.0	2.8	Outcome2	13.5	13.48	0.0	No	n/a	-0.0245375613439034	n/a	n/a	n/a	ShowResult	Loss
231.059	2.185	0.019	1313.606	68.0	3	13.48	6.74	-0.6577	955.0	2.8	Outcome2	13.5	13.48	0.0	No	n/a	-0.0245375613439034	n/a	n/a	n/a	ISITrial	Loss
233.266	3.0	0.022	1315.813	69.0	3	4.7	2.25	-0.0702	955.0	1.82	Outcome2	4.5	4.7	0.0	No	2.0	0.202718006795017	1.044	234.31	n/a	GetAnswer	Gain
234.336	4.0	0.026	1316.883	69.0	3	4.7	2.25	-0.0702	955.0	1.82	Outcome2	4.5	4.7	0.0	No	n/a	0.202718006795017	n/a	n/a	n/a	ShowChoice	Gain
238.348	1.0	0.012	1320.895	69.0	3	4.7	2.25	-0.0702	955.0	1.82	Outcome2	4.5	4.7	0.0	No	n/a	0.202718006795017	n/a	n/a	n/a	ShowResult	Gain
239.368	2.0	0.02	1321.915	69.0	3	4.7	2.25	-0.0702	955.0	1.82	Outcome2	4.5	4.7	0.0	No	n/a	0.202718006795017	n/a	n/a	n/a	ISITrial	Gain
241.39	3.0	0.022	1323.937	70.0	3	9.1	4.44	1.0673	955.0	2.22	Outcome2	8.89	9.1	3.65125	Yes	2.0	0.206115515288788	0.765	242.155	n/a	GetAnswer	Gain
242.176	4.0	0.021	1324.723	70.0	3	9.1	4.44	1.0673	955.0	2.22	Outcome2	8.89	9.1	3.65125	Yes	n/a	0.206115515288788	n/a	n/a	n/a	ShowChoice	Gain
246.188	1.0	0.012	1328.735	70.0	3	9.1	4.44	1.0673	955.0	2.22	Outcome2	8.89	9.1	3.65125	Yes	n/a	0.206115515288788	n/a	n/a	n/a	ShowResult	Gain
247.208	2.623	0.02	1329.755	70.0	3	9.1	4.44	1.0673	955.0	2.22	Outcome2	8.89	9.1	3.65125	Yes	n/a	0.206115515288788	n/a	n/a	n/a	ISITrial	Gain
249.849	3.651	0.018	1332.396	70.0	3	9.1	4.44	1.0673	955.0	2.22	Outcome2	8.89	9.1	3.65125	Yes	n/a	0.206115515288788	n/a	n/a	n/a	TrialHappPreview	Gain
253.527	4.012	0.027	1336.074	70.0	3	9.1	4.44	1.0673	955.0	2.22	Outcome2	8.89	9.1	3.65125	Yes	2{-2}2{-2}	0.206115515288788	2.33	255.857	952.0	TrialHappiness	Gain
253.527	1.812	n/a	1336.592	70.0	3	9.1	4.44	1.0673	955.0	2.22	Outcome2	8.89	9.1	3.65125	Yes	n/a	0.206115515288788	n/a	n/a	952.0	TrialHappinessSliderResponse	Gain
257.539	6.605	4.012	1340.086	70.0	3	9.1	4.44	1.0673	955.0	2.22	Outcome2	8.89	9.1	3.65125	Yes	n/a	0.206115515288788	n/a	n/a	n/a	ISIRate	Gain
264.175	3.0	0.031	1346.722	71.0	3	11.7	5.74	2.5298	955.0	3.16	Outcome1	11.7	11.49	0.0	No	2.0	0.20951302378256	0.977	265.152	n/a	GetAnswer	Loss
265.178	4.0	0.026	1347.725	71.0	3	11.7	5.74	2.5298	955.0	3.16	Outcome1	11.7	11.49	0.0	No	n/a	0.20951302378256	n/a	n/a	n/a	ShowChoice	Loss
269.19	1.0	0.012	1351.737	71.0	3	11.7	5.74	2.5298	955.0	3.16	Outcome1	11.7	11.49	0.0	No	n/a	0.20951302378256	n/a	n/a	n/a	ShowResult	Loss
270.21	5.499	0.02	1352.757	71.0	3	11.7	5.74	2.5298	955.0	3.16	Outcome1	11.7	11.49	0.0	No	n/a	0.20951302378256	n/a	n/a	n/a	ISITrial	Loss
275.727	3.0	0.018	1358.274	72.0	3	10.07	5.04	3.7886	955.0	4.2	Outcome2	10.1	10.07	3.0805	Yes	2.0	-0.0256700641751604	0.878	276.605	n/a	GetAnswer	Gain
276.629	4.0	0.024	1359.176	72.0	3	10.07	5.04	3.7886	955.0	4.2	Outcome2	10.1	10.07	3.0805	Yes	n/a	-0.0256700641751604	n/a	n/a	n/a	ShowChoice	Gain
280.641	1.0	0.012	1363.188	72.0	3	10.07	5.04	3.7886	955.0	4.2	Outcome2	10.1	10.07	3.0805	Yes	n/a	-0.0256700641751604	n/a	n/a	n/a	ShowResult	Gain
281.661	5.672	0.02	1364.208	72.0	3	10.07	5.04	3.7886	955.0	4.2	Outcome2	10.1	10.07	3.0805	Yes	n/a	-0.0256700641751604	n/a	n/a	n/a	ISITrial	Gain
287.345	3.08	0.012	1369.892	72.0	3	10.07	5.04	3.7886	955.0	4.2	Outcome2	10.1	10.07	3.0805	Yes	n/a	-0.0256700641751604	n/a	n/a	n/a	TrialHappPreview	Gain
290.454	4.012	0.029	1373.001	72.0	3	10.07	5.04	3.7886	955.0	4.2	Outcome2	10.1	10.07	3.0805	Yes	n/a	-0.0256700641751604	n/a	n/a	952.0	TrialHappiness	Gain
290.455	1.097	n/a	1373.4	72.0	3	10.07	5.04	3.7886	955.0	4.2	Outcome2	10.1	10.07	3.0805	Yes	n/a	-0.0256700641751604	n/a	n/a	952.0	TrialHappinessSliderResponse	Gain
294.466	4.322	4.012	1377.013	72.0	3	10.07	5.04	3.7886	955.0	4.2	Outcome2	10.1	10.07	3.0805	Yes	n/a	-0.0256700641751604	n/a	n/a	n/a	ISIRate	Gain
298.812	3.0	0.024	1381.359	73.0	3	1.07	1.0	3.9224	955.0	0.52	Outcome2	1.1	1.07	0.0	No	2.0	-0.0259531898829747	1.467	300.279	n/a	GetAnswer	Mixed
300.3	4.0	0.021	1382.847	73.0	3	1.07	1.0	3.9224	955.0	0.52	Outcome2	1.1	1.07	0.0	No	n/a	-0.0259531898829747	n/a	n/a	n/a	ShowChoice	Mixed
304.312	1.0	0.012	1386.859	73.0	3	1.07	1.0	3.9224	955.0	0.52	Outcome2	1.1	1.07	0.0	No	n/a	-0.0259531898829747	n/a	n/a	n/a	ShowResult	Mixed
305.332	4.616	0.02	1387.879	73.0	3	1.07	1.0	3.9224	955.0	0.52	Outcome2	1.1	1.07	0.0	No	n/a	-0.0259531898829747	n/a	n/a	n/a	ISITrial	Mixed
309.979	3.0	0.031	1392.526	74.0	3	3.3	1.54	4.3349	955.0	0.66	Outcome2	3.08	3.3	3.05625	Yes	2.0	0.219705549263873	1.112	311.091	n/a	GetAnswer	Mixed
311.116	4.0	0.025	1393.663	74.0	3	3.3	1.54	4.3349	955.0	0.66	Outcome2	3.08	3.3	3.05625	Yes	n/a	0.219705549263873	n/a	n/a	n/a	ShowChoice	Mixed
315.128	1.0	0.012	1397.675	74.0	3	3.3	1.54	4.3349	955.0	0.66	Outcome2	3.08	3.3	3.05625	Yes	n/a	0.219705549263873	n/a	n/a	n/a	ShowResult	Mixed
316.148	3.909	0.02	1398.695	74.0	3	3.3	1.54	4.3349	955.0	0.66	Outcome2	3.08	3.3	3.05625	Yes	n/a	0.219705549263873	n/a	n/a	n/a	ISITrial	Mixed
320.076	3.056	0.019	1402.623	74.0	3	3.3	1.54	4.3349	955.0	0.66	Outcome2	3.08	3.3	3.05625	Yes	n/a	0.219705549263873	n/a	n/a	n/a	TrialHappPreview	Mixed
323.152	4.012	0.02	1405.699	74.0	3	3.3	1.54	4.3349	955.0	0.66	Outcome2	3.08	3.3	3.05625	Yes	n/a	0.219705549263873	n/a	n/a	952.0	TrialHappiness	Mixed
323.153	1.191	n/a	1406.907	74.0	3	3.3	1.54	4.3349	955.0	0.66	Outcome2	3.08	3.3	3.05625	Yes	n/a	0.219705549263873	n/a	n/a	952.0	TrialHappinessSliderResponse	Mixed
327.164	4.225	4.012	1409.711	74.0	3	3.3	1.54	4.3349	955.0	0.66	Outcome2	3.08	3.3	3.05625	Yes	n/a	0.219705549263873	n/a	n/a	n/a	ISIRate	Mixed
331.41	3.0	0.021	1413.957	75.0	3	10.7	5.24	5.6724	955.0	1.82	Outcome1	10.7	10.48	0.0	No	2.0	0.223103057757645	0.847	332.257	n/a	GetAnswer	Loss
332.279	4.0	0.022	1414.826	75.0	3	10.7	5.24	5.6724	955.0	1.82	Outcome1	10.7	10.48	0.0	No	n/a	0.223103057757645	n/a	n/a	n/a	ShowChoice	Loss
336.291	1.0	0.012	1418.838	75.0	3	10.7	5.24	5.6724	955.0	1.82	Outcome1	10.7	10.48	0.0	No	n/a	0.223103057757645	n/a	n/a	n/a	ShowResult	Loss
337.311	4.979	0.02	1419.858	75.0	3	10.7	5.24	5.6724	955.0	1.82	Outcome1	10.7	10.48	0.0	No	n/a	0.223103057757645	n/a	n/a	n/a	ISITrial	Loss
342.309	3.0	0.019	1424.856	76.0	3	3.1	1.44	6.0599	955.0	0.52	Outcome2	2.87	3.1	0.0	No	2.0	0.226500566251416	1.109	343.418	n/a	GetAnswer	Mixed
343.429	4.0	0.011	1425.976	76.0	3	3.1	1.44	6.0599	955.0	0.52	Outcome2	2.87	3.1	0.0	No	n/a	0.226500566251416	n/a	n/a	n/a	ShowChoice	Mixed
347.441	1.0	0.012	1429.988	76.0	3	3.1	1.44	6.0599	955.0	0.52	Outcome2	2.87	3.1	0.0	No	n/a	0.226500566251416	n/a	n/a	n/a	ShowResult	Mixed
348.461	3.931	0.02	1431.008	76.0	3	3.1	1.44	6.0599	955.0	0.52	Outcome2	2.87	3.1	0.0	No	n/a	0.226500566251416	n/a	n/a	n/a	ISITrial	Mixed
352.423	3.0	0.031	1434.97	77.0	3	7.9	3.84	7.0474	955.0	3.6	Outcome2	7.67	7.9	4.0	Yes	2.0	0.2298980747451869	1.013	353.436	n/a	GetAnswer	Gain
353.459	4.0	0.023	1436.006	77.0	3	7.9	3.84	7.0474	955.0	3.6	Outcome2	7.67	7.9	4.0	Yes	n/a	0.2298980747451869	n/a	n/a	n/a	ShowChoice	Gain
357.472	1.0	0.013	1440.019	77.0	3	7.9	3.84	7.0474	955.0	3.6	Outcome2	7.67	7.9	4.0	Yes	n/a	0.2298980747451869	n/a	n/a	n/a	ShowResult	Gain
358.491	7.022	0.019	1441.038	77.0	3	7.9	3.84	7.0474	955.0	3.6	Outcome2	7.67	7.9	4.0	Yes	n/a	0.2298980747451869	n/a	n/a	n/a	ISITrial	Gain
365.529	4.0	0.016	1448.076	77.0	3	7.9	3.84	7.0474	955.0	3.6	Outcome2	7.67	7.9	4.0	Yes	n/a	0.2298980747451869	n/a	n/a	n/a	TrialHappPreview	Gain
369.558	4.012	0.029	1452.105	77.0	3	7.9	3.84	7.0474	955.0	3.6	Outcome2	7.67	7.9	4.0	Yes	n/a	0.2298980747451869	n/a	n/a	952.0	TrialHappiness	Gain
369.558	1.183	n/a	1452.366	77.0	3	7.9	3.84	7.0474	955.0	3.6	Outcome2	7.67	7.9	4.0	Yes	n/a	0.2298980747451869	n/a	n/a	952.0	TrialHappinessSliderResponse	Gain
373.57	8.0	4.012	1456.117	77.0	3	7.9	3.84	7.0474	955.0	3.6	Outcome2	7.67	7.9	4.0	Yes	n/a	0.2298980747451869	n/a	n/a	n/a	ISIRate	Gain
381.594	3.0	0.024	1464.141	78.0	3	13.87	6.94	8.7812	955.0	3.6	Outcome2	13.9	13.87	0.0	No	2.0	-0.0273688184220461	0.694	382.288	n/a	GetAnswer	Loss
382.313	4.0	0.024	1464.86	78.0	3	13.87	6.94	8.7812	955.0	3.6	Outcome2	13.9	13.87	0.0	No	n/a	-0.0273688184220461	n/a	n/a	n/a	ShowChoice	Loss
386.325	1.0	0.012	1468.872	78.0	3	13.87	6.94	8.7812	955.0	3.6	Outcome2	13.9	13.87	0.0	No	n/a	-0.0273688184220461	n/a	n/a	n/a	ShowResult	Loss
387.344	2.078	0.019	1469.891	78.0	3	13.87	6.94	8.7812	955.0	3.6	Outcome2	13.9	13.87	0.0	No	n/a	-0.0273688184220461	n/a	n/a	n/a	ISITrial	Loss
389.451	3.0	0.029	1471.998	79.0	3	3.47	1.74	9.215	955.0	0.82	Outcome1	3.47	3.5	2.7295	Yes	2.0	-0.0276519441298603	1.172	390.623	n/a	GetAnswer	Mixed
390.638	4.0	0.015	1473.185	79.0	3	3.47	1.74	9.215	955.0	0.82	Outcome1	3.47	3.5	2.7295	Yes	n/a	-0.0276519441298603	n/a	n/a	n/a	ShowChoice	Mixed
394.65	1.0	0.012	1477.197	79.0	3	3.47	1.74	9.215	955.0	0.82	Outcome1	3.47	3.5	2.7295	Yes	n/a	-0.0276519441298603	n/a	n/a	n/a	ShowResult	Mixed
395.669	3.829	0.019	1478.216	79.0	3	3.47	1.74	9.215	955.0	0.82	Outcome1	3.47	3.5	2.7295	Yes	n/a	-0.0276519441298603	n/a	n/a	n/a	ISITrial	Mixed
399.514	2.73	0.016	1482.061	79.0	3	3.47	1.74	9.215	955.0	0.82	Outcome1	3.47	3.5	2.7295	Yes	n/a	-0.0276519441298603	n/a	n/a	n/a	TrialHappPreview	Mixed
402.272	4.012	0.028	1484.819	79.0	3	3.47	1.74	9.215	955.0	0.82	Outcome1	3.47	3.5	2.7295	Yes	n/a	-0.0276519441298603	n/a	n/a	952.0	TrialHappiness	Mixed
402.273	1.129	n/a	1485.353	79.0	3	3.47	1.74	9.215	955.0	0.82	Outcome1	3.47	3.5	2.7295	Yes	n/a	-0.0276519441298603	n/a	n/a	952.0	TrialHappinessSliderResponse	Mixed
406.284	2.918	4.012	1488.831	79.0	3	3.47	1.74	9.215	955.0	0.82	Outcome1	3.47	3.5	2.7295	Yes	n/a	-0.0276519441298603	n/a	n/a	n/a	ISIRate	Mixed
409.227	3.0	0.025	1491.774	80.0	3	4.27	2.13	9.7488	955.0	2.0	Outcome2	4.3	4.27	0.0	No	2.0	-0.0279350698376746	0.799	410.026	n/a	GetAnswer	Mixed
410.046	4.0	0.02	1492.593	80.0	3	4.27	2.13	9.7488	955.0	2.0	Outcome2	4.3	4.27	0.0	No	n/a	-0.0279350698376746	n/a	n/a	n/a	ShowChoice	Mixed
414.058	1.0	0.012	1496.605	80.0	3	4.27	2.13	9.7488	955.0	2.0	Outcome2	4.3	4.27	0.0	No	n/a	-0.0279350698376746	n/a	n/a	n/a	ShowResult	Mixed
415.077	3.336	0.019	1497.624	80.0	3	4.27	2.13	9.7488	955.0	2.0	Outcome2	4.3	4.27	0.0	No	n/a	-0.0279350698376746	n/a	n/a	n/a	ISITrial	Mixed
418.438	3.0	0.025	1500.985	81.0	3	1.5	1.0	9.9363	955.0	0.82	Outcome1	1.5	1.26	3.92375	Yes	2.0	0.243488108720272	1.507	419.945	n/a	GetAnswer	Mixed
419.959	4.0	0.014	1502.506	81.0	3	1.5	1.0	9.9363	955.0	0.82	Outcome1	1.5	1.26	3.92375	Yes	n/a	0.243488108720272	n/a	n/a	n/a	ShowChoice	Mixed
423.971	1.0	0.012	1506.518	81.0	3	1.5	1.0	9.9363	955.0	0.82	Outcome1	1.5	1.26	3.92375	Yes	n/a	0.243488108720272	n/a	n/a	n/a	ShowResult	Mixed
424.99	3.919	0.019	1507.537	81.0	3	1.5	1.0	9.9363	955.0	0.82	Outcome1	1.5	1.26	3.92375	Yes	n/a	0.243488108720272	n/a	n/a	n/a	ISITrial	Mixed
428.919	3.924	0.01	1511.466	81.0	3	1.5	1.0	9.9363	955.0	0.82	Outcome1	1.5	1.26	3.92375	Yes	n/a	0.243488108720272	n/a	n/a	n/a	TrialHappPreview	Mixed
432.864	4.012	0.021	1515.411	81.0	3	1.5	1.0	9.9363	955.0	0.82	Outcome1	1.5	1.26	3.92375	Yes	n/a	0.243488108720272	n/a	n/a	952.0	TrialHappiness	Mixed
432.865	1.721	n/a	1515.721	81.0	3	1.5	1.0	9.9363	955.0	0.82	Outcome1	1.5	1.26	3.92375	Yes	n/a	0.243488108720272	n/a	n/a	952.0	TrialHappinessSliderResponse	Mixed
436.876	7.695	4.012	1519.423	81.0	3	1.5	1.0	9.9363	955.0	0.82	Outcome1	1.5	1.26	3.92375	Yes	n/a	0.243488108720272	n/a	n/a	n/a	ISIRate	Mixed
444.599	3.0	0.028	1527.146	n/a	3	n/a	n/a	n/a	n/a	n/a	n/a	n/a	n/a	n/a	n/a	n/a	n/a	n/a	n/a	n/a	CurrentEarnings	n/a
447.625	-0.001	0.026	1530.172	n/a	3	n/a	n/a	n/a	n/a	n/a	n/a	n/a	n/a	n/a	n/a	{SPACE}	n/a	46.273	493.898	n/a	Goodbye	n/a
