onset	duration	onset_delay	onset_unadjusted	trial_number	block	amount_change	certain_amount	current_amount	mood_target	multiplier	outcome	outcome1_amount	outcome2_amount	question_duration	rating	response	rpe	rt	rt_time	slider_response	trial_phase	trial_type
-45.351	-0.001	0.022	27.367	n/a	0	n/a	n/a	n/a	n/a	n/a	n/a	n/a	n/a	n/a	n/a	{SPACE}	n/a	3.295	-42.056	n/a	Welcome	n/a
-42.035	5.0	0.021	30.683	n/a	0	n/a	n/a	n/a	n/a	n/a	n/a	n/a	n/a	n/a	n/a	n/a	n/a	n/a	n/a	n/a	LifeHappyPreview	n/a
-37.004	3.087	0.031	35.714	n/a	0	n/a	n/a	n/a	n/a	n/a	n/a	n/a	n/a	n/a	n/a	2{-2}2{-2}2{-2}2{-2}2{-2}2{-2}2{-2}2{-2}2{-2}	n/a	3.087	-33.917	840.0	LifeHappiness	n/a
-37.003	2.679	n/a	36.123	n/a	0	n/a	n/a	n/a	n/a	n/a	n/a	n/a	n/a	n/a	n/a	n/a	n/a	n/a	n/a	840.0	LifeHappinessSliderResponse	n/a
-19.626	4.0	0.014	53.092	n/a	0	n/a	n/a	n/a	n/a	n/a	n/a	n/a	n/a	n/a	n/a	n/a	n/a	n/a	n/a	n/a	BlockHappyPreview	n/a
-15.611	2.665	0.015	57.107	n/a	0	n/a	n/a	n/a	n/a	n/a	n/a	n/a	n/a	n/a	n/a	n/a	n/a	n/a	n/a	784.0	BlockStartHappiness	n/a
-15.61	2.161	n/a	57.612	n/a	0	n/a	n/a	n/a	n/a	n/a	n/a	n/a	n/a	n/a	n/a	n/a	n/a	n/a	n/a	784.0	BlockStartHappinessSliderResponse	n/a
-5.964	-0.001	0.013	66.754	n/a	0	n/a	n/a	n/a	n/a	n/a	n/a	n/a	n/a	n/a	n/a	5.0	n/a	5.938	-0.026	n/a	ScanWait	n/a
0.0	10.0	0.026	72.718	n/a	1	n/a	n/a	n/a	n/a	n/a	n/a	n/a	n/a	n/a	n/a	n/a	n/a	n/a	n/a	n/a	GetReady	n/a
10.03	3.0	0.03	82.748	1.0	1	9.5	3.3	11.1875	955.0	2.8	Outcome1	9.5	6.6	0.0	No	2.0	2.9048697621744104	1.274	11.304	n/a	GetAnswer	Gain
11.33	4.0	0.026	84.048	1.0	1	9.5	3.3	11.1875	955.0	2.8	Outcome1	9.5	6.6	0.0	No	n/a	2.9048697621744104	n/a	n/a	n/a	ShowChoice	Gain
15.345	1.0	0.015	88.063	1.0	1	9.5	3.3	11.1875	955.0	2.8	Outcome1	9.5	6.6	0.0	No	n/a	2.9048697621744104	n/a	n/a	n/a	ShowResult	Gain
16.361	2.431	0.016	89.079	1.0	1	9.5	3.3	11.1875	955.0	2.8	Outcome1	9.5	6.6	0.0	No	n/a	2.9048697621744104	n/a	n/a	n/a	ISITrial	Gain
18.81	3.0	0.018	91.528	2.0	1	1.9	0.0	11.425	955.0	1.2	Outcome1	1.9	-1.2	0.0	No	2.0	3.09852774631937	0.909	19.719	n/a	GetAnswer	Mixed
19.743	4.0	0.024	92.461	2.0	1	1.9	0.0	11.425	955.0	1.2	Outcome1	1.9	-1.2	0.0	No	n/a	3.09852774631937	n/a	n/a	n/a	ShowChoice	Mixed
23.759	1.0	0.016	96.477	2.0	1	1.9	0.0	11.425	955.0	1.2	Outcome1	1.9	-1.2	0.0	No	n/a	3.09852774631937	n/a	n/a	n/a	ShowResult	Mixed
24.775	4.568	0.016	97.493	2.0	1	1.9	0.0	11.425	955.0	1.2	Outcome1	1.9	-1.2	0.0	No	n/a	3.09852774631937	n/a	n/a	n/a	ISITrial	Mixed
29.373	3.0	0.03	102.091	3.0	1	4.3	2.0	11.9625	955.0	2.0	Outcome1	4.3	1.01	2.868	Yes	2.0	3.2921857304643303	1.236	30.609	n/a	GetAnswer	Mixed
30.623	4.0	0.014	103.341	3.0	1	4.3	2.0	11.9625	955.0	2.0	Outcome1	4.3	1.01	2.868	Yes	n/a	3.2921857304643303	n/a	n/a	n/a	ShowChoice	Mixed
34.638	1.0	0.015	107.356	3.0	1	4.3	2.0	11.9625	955.0	2.0	Outcome1	4.3	1.01	2.868	Yes	n/a	3.2921857304643303	n/a	n/a	n/a	ShowResult	Mixed
35.654	3.243	0.016	108.372	3.0	1	4.3	2.0	11.9625	955.0	2.0	Outcome1	4.3	1.01	2.868	Yes	n/a	3.2921857304643303	n/a	n/a	n/a	ISITrial	Mixed
38.92	2.868	0.023	111.638	3.0	1	4.3	2.0	11.9625	955.0	2.0	Outcome1	4.3	1.01	2.868	Yes	n/a	3.2921857304643303	n/a	n/a	n/a	TrialHappPreview	Mixed
41.802	4.016	0.014	114.52	3.0	1	4.3	2.0	11.9625	955.0	2.0	Outcome1	4.3	1.01	2.868	Yes	n/a	3.2921857304643303	n/a	n/a	808.0	TrialHappiness	Mixed
41.803	1.978	n/a	114.913	3.0	1	4.3	2.0	11.9625	955.0	2.0	Outcome1	4.3	1.01	2.868	Yes	n/a	3.2921857304643303	n/a	n/a	808.0	TrialHappinessSliderResponse	Mixed
45.818	3.472	4.016	118.536	3.0	1	4.3	2.0	11.9625	955.0	2.0	Outcome1	4.3	1.01	2.868	Yes	n/a	3.2921857304643303	n/a	n/a	n/a	ISIRate	Mixed
49.316	3.0	0.026	122.034	4.0	1	3.06	1.53	12.345	955.0	1.0	Outcome1	3.06	3.7	0.0	No	2.0	-0.644960362400906	1.28	50.596	n/a	GetAnswer	Mixed
50.616	4.0	0.02	123.334	4.0	1	3.06	1.53	12.345	955.0	1.0	Outcome1	3.06	3.7	0.0	No	n/a	-0.644960362400906	n/a	n/a	n/a	ShowChoice	Mixed
54.631	1.0	0.015	127.349	4.0	1	3.06	1.53	12.345	955.0	1.0	Outcome1	3.06	3.7	0.0	No	n/a	-0.644960362400906	n/a	n/a	n/a	ShowResult	Mixed
55.647	2.011	0.016	128.365	4.0	1	3.06	1.53	12.345	955.0	1.0	Outcome1	3.06	3.7	0.0	No	n/a	-0.644960362400906	n/a	n/a	n/a	ISITrial	Mixed
57.68	3.0	0.022	130.398	5.0	1	5.84	2.92	13.075	955.0	1.68	Outcome1	5.84	6.5	2.5825	Yes	2.0	-0.6588335220838051	1.027	58.707	n/a	GetAnswer	Gain
58.73	4.0	0.023	131.448	5.0	1	5.84	2.92	13.075	955.0	1.68	Outcome1	5.84	6.5	2.5825	Yes	n/a	-0.6588335220838051	n/a	n/a	n/a	ShowChoice	Gain
62.745	1.0	0.015	135.463	5.0	1	5.84	2.92	13.075	955.0	1.68	Outcome1	5.84	6.5	2.5825	Yes	n/a	-0.6588335220838051	n/a	n/a	n/a	ShowResult	Gain
63.761	5.129	0.016	136.479	5.0	1	5.84	2.92	13.075	955.0	1.68	Outcome1	5.84	6.5	2.5825	Yes	n/a	-0.6588335220838051	n/a	n/a	n/a	ISITrial	Gain
68.91	2.582	0.02	141.628	5.0	1	5.84	2.92	13.075	955.0	1.68	Outcome1	5.84	6.5	2.5825	Yes	n/a	-0.6588335220838051	n/a	n/a	n/a	TrialHappPreview	Gain
71.509	4.015	0.017	144.227	5.0	1	5.84	2.92	13.075	955.0	1.68	Outcome1	5.84	6.5	2.5825	Yes	n/a	-0.6588335220838051	n/a	n/a	848.0	TrialHappiness	Gain
71.509	1.092	n/a	144.673	5.0	1	5.84	2.92	13.075	955.0	1.68	Outcome1	5.84	6.5	2.5825	Yes	n/a	-0.6588335220838051	n/a	n/a	848.0	TrialHappinessSliderResponse	Gain
75.524	2.33	4.015	148.242	5.0	1	5.84	2.92	13.075	955.0	1.68	Outcome1	5.84	6.5	2.5825	Yes	n/a	-0.6588335220838051	n/a	n/a	n/a	ISIRate	Gain
77.873	3.0	0.019	150.591	6.0	1	0.19	0.0	13.0988	955.0	0.3	Outcome1	0.19	0.7	0.0	No	2.0	-0.51038127595319	1.371	79.244	n/a	GetAnswer	Mixed
79.273	4.0	0.029	151.991	6.0	1	0.19	0.0	13.0988	955.0	0.3	Outcome1	0.19	0.7	0.0	No	n/a	-0.51038127595319	n/a	n/a	n/a	ShowChoice	Mixed
83.288	1.0	0.015	156.006	6.0	1	0.19	0.0	13.0988	955.0	0.3	Outcome1	0.19	0.7	0.0	No	n/a	-0.51038127595319	n/a	n/a	n/a	ShowResult	Mixed
84.304	6.232	0.016	157.022	6.0	1	0.19	0.0	13.0988	955.0	0.3	Outcome1	0.19	0.7	0.0	No	n/a	-0.51038127595319	n/a	n/a	n/a	ISITrial	Mixed
90.569	3.0	0.033	163.287	7.0	1	11.9	4.53	14.5863	955.0	3.6	Outcome2	9.05	11.9	0.0	No	2.0	2.85277463193658	1.196	91.765	n/a	GetAnswer	Loss
91.785	4.0	0.02	164.503	7.0	1	11.9	4.53	14.5863	955.0	3.6	Outcome2	9.05	11.9	0.0	No	n/a	2.85277463193658	n/a	n/a	n/a	ShowChoice	Loss
95.8	1.0	0.015	168.518	7.0	1	11.9	4.53	14.5863	955.0	3.6	Outcome2	9.05	11.9	0.0	No	n/a	2.85277463193658	n/a	n/a	n/a	ShowResult	Loss
96.816	2.305	0.016	169.534	7.0	1	11.9	4.53	14.5863	955.0	3.6	Outcome2	9.05	11.9	0.0	No	n/a	2.85277463193658	n/a	n/a	n/a	ISITrial	Loss
99.149	3.0	0.028	171.867	8.0	1	-1.0	-1.0	14.4613	955.0	1.2	Certain	-3.07	-0.1	3.1125	Yes	4.0	2.97395243488109	2.266	101.415	n/a	GetAnswer	Mixed
101.431	4.0	0.016	174.149	8.0	1	-1.0	-1.0	14.4613	955.0	1.2	Certain	-3.07	-0.1	3.1125	Yes	n/a	2.97395243488109	n/a	n/a	n/a	ShowChoice	Mixed
105.447	1.0	0.016	178.165	8.0	1	-1.0	-1.0	14.4613	955.0	1.2	Certain	-3.07	-0.1	3.1125	Yes	n/a	2.97395243488109	n/a	n/a	n/a	ShowResult	Mixed
106.463	3.506	0.016	179.181	8.0	1	-1.0	-1.0	14.4613	955.0	1.2	Certain	-3.07	-0.1	3.1125	Yes	n/a	2.97395243488109	n/a	n/a	n/a	ISITrial	Mixed
109.995	3.112	0.026	182.713	8.0	1	-1.0	-1.0	14.4613	955.0	1.2	Certain	-3.07	-0.1	3.1125	Yes	n/a	2.97395243488109	n/a	n/a	n/a	TrialHappPreview	Mixed
113.127	4.016	0.02	185.845	8.0	1	-1.0	-1.0	14.4613	955.0	1.2	Certain	-3.07	-0.1	3.1125	Yes	n/a	2.97395243488109	n/a	n/a	800.0	TrialHappiness	Mixed
113.128	1.688	n/a	187.13	8.0	1	-1.0	-1.0	14.4613	955.0	1.2	Certain	-3.07	-0.1	3.1125	Yes	n/a	2.97395243488109	n/a	n/a	800.0	TrialHappinessSliderResponse	Mixed
117.143	4.45	4.016	189.861	8.0	1	-1.0	-1.0	14.4613	955.0	1.2	Certain	-3.07	-0.1	3.1125	Yes	n/a	2.97395243488109	n/a	n/a	n/a	ISIRate	Mixed
121.624	3.0	0.031	194.342	9.0	1	1.7	0.0	14.6738	955.0	1.0	Outcome1	1.7	-2.21	0.0	No	2.0	3.91053227633069	2.479	124.103	n/a	GetAnswer	Mixed
124.124	4.0	0.021	196.842	9.0	1	1.7	0.0	14.6738	955.0	1.0	Outcome1	1.7	-2.21	0.0	No	n/a	3.91053227633069	n/a	n/a	n/a	ShowChoice	Mixed
128.139	1.0	0.015	200.857	9.0	1	1.7	0.0	14.6738	955.0	1.0	Outcome1	1.7	-2.21	0.0	No	n/a	3.91053227633069	n/a	n/a	n/a	ShowResult	Mixed
129.155	2.0	0.016	201.873	9.0	1	1.7	0.0	14.6738	955.0	1.0	Outcome1	1.7	-2.21	0.0	No	n/a	3.91053227633069	n/a	n/a	n/a	ISITrial	Mixed
131.188	3.0	0.033	203.906	10.0	1	0.5	-1.0	14.7363	955.0	0.2	Outcome2	-3.59	0.5	4.0	Yes	2.0	4.08607021517554	1.55	132.738	n/a	GetAnswer	Mixed
132.754	4.0	0.016	205.472	10.0	1	0.5	-1.0	14.7363	955.0	0.2	Outcome2	-3.59	0.5	4.0	Yes	n/a	4.08607021517554	n/a	n/a	n/a	ShowChoice	Mixed
136.769	1.0	0.015	209.487	10.0	1	0.5	-1.0	14.7363	955.0	0.2	Outcome2	-3.59	0.5	4.0	Yes	n/a	4.08607021517554	n/a	n/a	n/a	ShowResult	Mixed
137.785	2.0	0.016	210.503	10.0	1	0.5	-1.0	14.7363	955.0	0.2	Outcome2	-3.59	0.5	4.0	Yes	n/a	4.08607021517554	n/a	n/a	n/a	ISITrial	Mixed
139.801	4.0	0.016	212.519	10.0	1	0.5	-1.0	14.7363	955.0	0.2	Outcome2	-3.59	0.5	4.0	Yes	n/a	4.08607021517554	n/a	n/a	n/a	TrialHappPreview	Mixed
143.833	4.016	0.032	216.551	10.0	1	0.5	-1.0	14.7363	955.0	0.2	Outcome2	-3.59	0.5	4.0	Yes	n/a	4.08607021517554	n/a	n/a	852.0	TrialHappiness	Mixed
143.834	1.609	n/a	216.999	10.0	1	0.5	-1.0	14.7363	955.0	0.2	Outcome2	-3.59	0.5	4.0	Yes	n/a	4.08607021517554	n/a	n/a	852.0	TrialHappinessSliderResponse	Mixed
147.849	8.0	4.016	220.567	10.0	1	0.5	-1.0	14.7363	955.0	0.2	Outcome2	-3.59	0.5	4.0	Yes	n/a	4.08607021517554	n/a	n/a	n/a	ISIRate	Mixed
155.879	3.0	0.03	228.597	11.0	1	4.95	2.48	15.3551	955.0	2.8	Outcome1	4.95	5.5	0.0	No	2.0	-0.553699509248773	1.716	157.595	n/a	GetAnswer	Gain
157.612	4.0	0.017	230.33	11.0	1	4.95	2.48	15.3551	955.0	2.8	Outcome1	4.95	5.5	0.0	No	n/a	-0.553699509248773	n/a	n/a	n/a	ShowChoice	Gain
161.627	1.0	0.015	234.345	11.0	1	4.95	2.48	15.3551	955.0	2.8	Outcome1	4.95	5.5	0.0	No	n/a	-0.553699509248773	n/a	n/a	n/a	ShowResult	Gain
162.643	3.324	0.016	235.361	11.0	1	4.95	2.48	15.3551	955.0	2.8	Outcome1	4.95	5.5	0.0	No	n/a	-0.553699509248773	n/a	n/a	n/a	ISITrial	Gain
165.992	3.0	0.025	238.71	12.0	1	4.74	2.37	15.9476	955.0	2.48	Outcome1	4.74	5.3	2.61875	Yes	2.0	-0.563420158550396	1.644	167.636	n/a	GetAnswer	Gain
167.658	4.0	0.022	240.376	12.0	1	4.74	2.37	15.9476	955.0	2.48	Outcome1	4.74	5.3	2.61875	Yes	n/a	-0.563420158550396	n/a	n/a	n/a	ShowChoice	Gain
171.674	1.0	0.016	244.392	12.0	1	4.74	2.37	15.9476	955.0	2.48	Outcome1	4.74	5.3	2.61875	Yes	n/a	-0.563420158550396	n/a	n/a	n/a	ShowResult	Gain
172.69	6.642	0.016	245.408	12.0	1	4.74	2.37	15.9476	955.0	2.48	Outcome1	4.74	5.3	2.61875	Yes	n/a	-0.563420158550396	n/a	n/a	n/a	ISITrial	Gain
179.354	2.619	0.022	252.072	12.0	1	4.74	2.37	15.9476	955.0	2.48	Outcome1	4.74	5.3	2.61875	Yes	n/a	-0.563420158550396	n/a	n/a	n/a	TrialHappPreview	Gain
182.003	4.016	0.03	254.721	12.0	1	4.74	2.37	15.9476	955.0	2.48	Outcome1	4.74	5.3	2.61875	Yes	n/a	-0.563420158550396	n/a	n/a	904.0	TrialHappiness	Gain
182.004	3.363	n/a	255.082	12.0	1	4.74	2.37	15.9476	955.0	2.48	Outcome1	4.74	5.3	2.61875	Yes	n/a	-0.563420158550396	n/a	n/a	904.0	TrialHappinessSliderResponse	Gain
186.019	2.475	4.016	258.737	12.0	1	4.74	2.37	15.9476	955.0	2.48	Outcome1	4.74	5.3	2.61875	Yes	n/a	-0.563420158550396	n/a	n/a	n/a	ISIRate	Gain
188.518	3.0	0.024	261.236	13.0	1	1.94	2.0	16.1901	955.0	2.0	Outcome2	2.3	1.94	0.0	No	2.0	-0.3621177802944509	1.252	189.77	n/a	GetAnswer	Mixed
189.801	4.0	0.03	262.519	13.0	1	1.94	2.0	16.1901	955.0	2.0	Outcome2	2.3	1.94	0.0	No	n/a	-0.3621177802944509	n/a	n/a	n/a	ShowChoice	Mixed
193.816	1.0	0.015	266.534	13.0	1	1.94	2.0	16.1901	955.0	2.0	Outcome2	2.3	1.94	0.0	No	n/a	-0.3621177802944509	n/a	n/a	n/a	ShowResult	Mixed
194.832	3.48	0.016	267.55	13.0	1	1.94	2.0	16.1901	955.0	2.0	Outcome2	2.3	1.94	0.0	No	n/a	-0.3621177802944509	n/a	n/a	n/a	ISITrial	Mixed
198.331	3.0	0.019	271.049	14.0	1	12.1	4.66	17.7026	955.0	4.2	Outcome1	12.1	9.31	0.0	No	2.0	2.78595696489241	0.798	199.129	n/a	GetAnswer	Loss
199.147	4.0	0.018	271.865	14.0	1	12.1	4.66	17.7026	955.0	4.2	Outcome1	12.1	9.31	0.0	No	n/a	2.78595696489241	n/a	n/a	n/a	ShowChoice	Loss
203.163	1.0	0.016	275.881	14.0	1	12.1	4.66	17.7026	955.0	4.2	Outcome1	12.1	9.31	0.0	No	n/a	2.78595696489241	n/a	n/a	n/a	ShowResult	Loss
204.179	5.019	0.016	276.897	14.0	1	12.1	4.66	17.7026	955.0	4.2	Outcome1	12.1	9.31	0.0	No	n/a	2.78595696489241	n/a	n/a	n/a	ISITrial	Loss
209.227	3.0	0.029	281.945	15.0	1	0.0	0.0	17.7026	955.0	0.82	Certain	-1.34	1.5	3.3485	Yes	4.0	2.84371460928652	1.635	210.862	n/a	GetAnswer	Mixed
210.877	4.0	0.015	283.595	15.0	1	0.0	0.0	17.7026	955.0	0.82	Certain	-1.34	1.5	3.3485	Yes	n/a	2.84371460928652	n/a	n/a	n/a	ShowChoice	Mixed
214.892	1.0	0.015	287.61	15.0	1	0.0	0.0	17.7026	955.0	0.82	Certain	-1.34	1.5	3.3485	Yes	n/a	2.84371460928652	n/a	n/a	n/a	ShowResult	Mixed
215.908	7.614	0.016	288.626	15.0	1	0.0	0.0	17.7026	955.0	0.82	Certain	-1.34	1.5	3.3485	Yes	n/a	2.84371460928652	n/a	n/a	n/a	ISITrial	Mixed
223.539	3.348	0.017	296.257	15.0	1	0.0	0.0	17.7026	955.0	0.82	Certain	-1.34	1.5	3.3485	Yes	n/a	2.84371460928652	n/a	n/a	n/a	TrialHappPreview	Mixed
226.904	4.016	0.017	299.622	15.0	1	0.0	0.0	17.7026	955.0	0.82	Certain	-1.34	1.5	3.3485	Yes	n/a	2.84371460928652	n/a	n/a	784.0	TrialHappiness	Mixed
226.905	0.71	n/a	300.036	15.0	1	0.0	0.0	17.7026	955.0	0.82	Certain	-1.34	1.5	3.3485	Yes	n/a	2.84371460928652	n/a	n/a	784.0	TrialHappinessSliderResponse	Mixed
230.92	5.394	4.016	303.638	15.0	1	0.0	0.0	17.7026	955.0	0.82	Certain	-1.34	1.5	3.3485	Yes	n/a	2.84371460928652	n/a	n/a	n/a	ISIRate	Mixed
236.334	3.0	0.02	309.052	16.0	1	7.44	3.72	18.6326	955.0	5.0	Outcome1	7.44	8.3	0.0	No	2.0	-0.8635334088335219	1.099	237.433	n/a	GetAnswer	Gain
237.451	4.0	0.018	310.169	16.0	1	7.44	3.72	18.6326	955.0	5.0	Outcome1	7.44	8.3	0.0	No	n/a	-0.8635334088335219	n/a	n/a	n/a	ShowChoice	Gain
241.466	1.0	0.015	314.184	16.0	1	7.44	3.72	18.6326	955.0	5.0	Outcome1	7.44	8.3	0.0	No	n/a	-0.8635334088335219	n/a	n/a	n/a	ShowResult	Gain
242.482	3.008	0.016	315.2	16.0	1	7.44	3.72	18.6326	955.0	5.0	Outcome1	7.44	8.3	0.0	No	n/a	-0.8635334088335219	n/a	n/a	n/a	ISITrial	Gain
245.515	3.0	0.025	318.233	17.0	1	2.0	2.0	18.8826	955.0	1.68	Certain	-0.63	4.5	3.0415	Yes	4.0	5.13363533408833	1.186	246.701	n/a	GetAnswer	Gain
246.714	4.0	0.013	319.432	17.0	1	2.0	2.0	18.8826	955.0	1.68	Certain	-0.63	4.5	3.0415	Yes	n/a	5.13363533408833	n/a	n/a	n/a	ShowChoice	Gain
250.729	1.0	0.015	323.447	17.0	1	2.0	2.0	18.8826	955.0	1.68	Certain	-0.63	4.5	3.0415	Yes	n/a	5.13363533408833	n/a	n/a	n/a	ShowResult	Gain
251.746	3.566	0.017	324.464	17.0	1	2.0	2.0	18.8826	955.0	1.68	Certain	-0.63	4.5	3.0415	Yes	n/a	5.13363533408833	n/a	n/a	n/a	ISITrial	Gain
255.328	3.042	0.016	328.046	17.0	1	2.0	2.0	18.8826	955.0	1.68	Certain	-0.63	4.5	3.0415	Yes	n/a	5.13363533408833	n/a	n/a	n/a	TrialHappPreview	Gain
258.393	4.016	0.023	331.111	17.0	1	2.0	2.0	18.8826	955.0	1.68	Certain	-0.63	4.5	3.0415	Yes	n/a	5.13363533408833	n/a	n/a	832.0	TrialHappiness	Gain
258.394	0.807	n/a	331.761	17.0	1	2.0	2.0	18.8826	955.0	1.68	Certain	-0.63	4.5	3.0415	Yes	n/a	5.13363533408833	n/a	n/a	832.0	TrialHappinessSliderResponse	Gain
262.409	4.166	4.016	335.127	17.0	1	2.0	2.0	18.8826	955.0	1.68	Certain	-0.63	4.5	3.0415	Yes	n/a	5.13363533408833	n/a	n/a	n/a	ISIRate	Gain
266.607	3.0	0.032	339.325	18.0	1	11.1	3.3	20.2701	955.0	2.22	Outcome2	6.59	11.1	0.0	No	2.0	4.5118912797282	1.375	267.982	n/a	GetAnswer	Loss
268.007	4.0	0.025	340.725	18.0	1	11.1	3.3	20.2701	955.0	2.22	Outcome2	6.59	11.1	0.0	No	n/a	4.5118912797282	n/a	n/a	n/a	ShowChoice	Loss
272.022	1.0	0.015	344.74	18.0	1	11.1	3.3	20.2701	955.0	2.22	Outcome2	6.59	11.1	0.0	No	n/a	4.5118912797282	n/a	n/a	n/a	ShowResult	Loss
273.038	6.787	0.016	345.756	18.0	1	11.1	3.3	20.2701	955.0	2.22	Outcome2	6.59	11.1	0.0	No	n/a	4.5118912797282	n/a	n/a	n/a	ISITrial	Loss
279.853	3.0	0.028	352.571	19.0	1	12.5	3.92	21.8326	955.0	1.68	Outcome2	7.85	12.5	0.0	No	2.0	4.65118912797282	1.303	281.156	n/a	GetAnswer	Loss
281.169	4.0	0.013	353.887	19.0	1	12.5	3.92	21.8326	955.0	1.68	Outcome2	7.85	12.5	0.0	No	n/a	4.65118912797282	n/a	n/a	n/a	ShowChoice	Loss
285.184	1.0	0.015	357.902	19.0	1	12.5	3.92	21.8326	955.0	1.68	Outcome2	7.85	12.5	0.0	No	n/a	4.65118912797282	n/a	n/a	n/a	ShowResult	Loss
286.2	2.0	0.016	358.918	19.0	1	12.5	3.92	21.8326	955.0	1.68	Outcome2	7.85	12.5	0.0	No	n/a	4.65118912797282	n/a	n/a	n/a	ISITrial	Loss
288.216	3.0	0.016	360.934	20.0	1	2.58	1.29	22.1551	955.0	0.66	Outcome2	3.3	2.58	2.92125	Yes	2.0	-0.7242355605889009	1.322	289.538	n/a	GetAnswer	Mixed
289.549	4.0	0.011	362.267	20.0	1	2.58	1.29	22.1551	955.0	0.66	Outcome2	3.3	2.58	2.92125	Yes	n/a	-0.7242355605889009	n/a	n/a	n/a	ShowChoice	Mixed
293.564	1.0	0.015	366.282	20.0	1	2.58	1.29	22.1551	955.0	0.66	Outcome2	3.3	2.58	2.92125	Yes	n/a	-0.7242355605889009	n/a	n/a	n/a	ShowResult	Mixed
294.581	8.0	0.017	367.299	20.0	1	2.58	1.29	22.1551	955.0	0.66	Outcome2	3.3	2.58	2.92125	Yes	n/a	-0.7242355605889009	n/a	n/a	n/a	ISITrial	Mixed
302.595	2.921	0.014	375.313	20.0	1	2.58	1.29	22.1551	955.0	0.66	Outcome2	3.3	2.58	2.92125	Yes	n/a	-0.7242355605889009	n/a	n/a	n/a	TrialHappPreview	Mixed
305.544	4.015	0.028	378.262	20.0	1	2.58	1.29	22.1551	955.0	0.66	Outcome2	3.3	2.58	2.92125	Yes	n/a	-0.7242355605889009	n/a	n/a	800.0	TrialHappiness	Mixed
305.544	1.383	n/a	378.745	20.0	1	2.58	1.29	22.1551	955.0	0.66	Outcome2	3.3	2.58	2.92125	Yes	n/a	-0.7242355605889009	n/a	n/a	800.0	TrialHappinessSliderResponse	Mixed
309.559	3.685	4.015	382.277	20.0	1	2.58	1.29	22.1551	955.0	0.66	Outcome2	3.3	2.58	2.92125	Yes	n/a	-0.7242355605889009	n/a	n/a	n/a	ISIRate	Mixed
313.274	3.0	0.03	385.992	21.0	1	2.5	0.0	22.4676	955.0	0.2	Outcome1	2.5	-2.97	0.0	No	2.0	5.47338618346546	1.886	315.16	n/a	GetAnswer	Mixed
315.174	4.0	0.014	387.892	21.0	1	2.5	0.0	22.4676	955.0	0.2	Outcome1	2.5	-2.97	0.0	No	n/a	5.47338618346546	n/a	n/a	n/a	ShowChoice	Mixed
319.189	1.0	0.015	391.907	21.0	1	2.5	0.0	22.4676	955.0	0.2	Outcome1	2.5	-2.97	0.0	No	n/a	5.47338618346546	n/a	n/a	n/a	ShowResult	Mixed
320.205	3.555	0.016	392.923	21.0	1	2.5	0.0	22.4676	955.0	0.2	Outcome1	2.5	-2.97	0.0	No	n/a	5.47338618346546	n/a	n/a	n/a	ISITrial	Mixed
323.787	3.0	0.027	396.505	22.0	1	-0.3	-3.0	22.4301	955.0	1.0	Outcome2	-5.95	-0.3	3.2195	Yes	2.0	5.6489241223103095	2.788	326.575	n/a	GetAnswer	Mixed
326.586	4.0	0.011	399.304	22.0	1	-0.3	-3.0	22.4301	955.0	1.0	Outcome2	-5.95	-0.3	3.2195	Yes	n/a	5.6489241223103095	n/a	n/a	n/a	ShowChoice	Mixed
330.602	1.0	0.016	403.32	22.0	1	-0.3	-3.0	22.4301	955.0	1.0	Outcome2	-5.95	-0.3	3.2195	Yes	n/a	5.6489241223103095	n/a	n/a	n/a	ShowResult	Mixed
331.618	6.793	0.016	404.336	22.0	1	-0.3	-3.0	22.4301	955.0	1.0	Outcome2	-5.95	-0.3	3.2195	Yes	n/a	5.6489241223103095	n/a	n/a	n/a	ISITrial	Mixed
338.432	3.22	0.021	411.15	22.0	1	-0.3	-3.0	22.4301	955.0	1.0	Outcome2	-5.95	-0.3	3.2195	Yes	n/a	5.6489241223103095	n/a	n/a	n/a	TrialHappPreview	Mixed
341.681	4.015	0.029	414.399	22.0	1	-0.3	-3.0	22.4301	955.0	1.0	Outcome2	-5.95	-0.3	3.2195	Yes	n/a	5.6489241223103095	n/a	n/a	800.0	TrialHappiness	Mixed
341.682	0.741	n/a	415.098	22.0	1	-0.3	-3.0	22.4301	955.0	1.0	Outcome2	-5.95	-0.3	3.2195	Yes	n/a	5.6489241223103095	n/a	n/a	800.0	TrialHappinessSliderResponse	Mixed
345.696	4.878	4.015	418.414	22.0	1	-0.3	-3.0	22.4301	955.0	1.0	Outcome2	-5.95	-0.3	3.2195	Yes	n/a	5.6489241223103095	n/a	n/a	n/a	ISIRate	Mixed
350.595	3.0	0.021	423.313	23.0	1	10.5	2.34	23.7426	955.0	1.68	Outcome2	4.68	10.5	0.0	No	2.0	5.82446206115515	1.278	351.873	n/a	GetAnswer	Loss
351.894	4.0	0.021	424.612	23.0	1	10.5	2.34	23.7426	955.0	1.68	Outcome2	4.68	10.5	0.0	No	n/a	5.82446206115515	n/a	n/a	n/a	ShowChoice	Loss
355.909	1.0	0.015	428.627	23.0	1	10.5	2.34	23.7426	955.0	1.68	Outcome2	4.68	10.5	0.0	No	n/a	5.82446206115515	n/a	n/a	n/a	ShowResult	Loss
356.926	8.0	0.017	429.644	23.0	1	10.5	2.34	23.7426	955.0	1.68	Outcome2	4.68	10.5	0.0	No	n/a	5.82446206115515	n/a	n/a	n/a	ISITrial	Loss
364.956	3.0	0.03	437.674	24.0	1	6.1	0.05	24.5051	955.0	4.2	Outcome1	6.1	0.1	3.255	Yes	2.0	6.0	1.263	366.219	n/a	GetAnswer	Gain
366.239	4.0	0.02	438.957	24.0	1	6.1	0.05	24.5051	955.0	4.2	Outcome1	6.1	0.1	3.255	Yes	n/a	6.0	n/a	n/a	n/a	ShowChoice	Gain
370.254	1.0	0.015	442.972	24.0	1	6.1	0.05	24.5051	955.0	4.2	Outcome1	6.1	0.1	3.255	Yes	n/a	6.0	n/a	n/a	n/a	ShowResult	Gain
371.271	2.0	0.017	443.989	24.0	1	6.1	0.05	24.5051	955.0	4.2	Outcome1	6.1	0.1	3.255	Yes	n/a	6.0	n/a	n/a	n/a	ISITrial	Gain
373.287	3.255	0.016	446.005	24.0	1	6.1	0.05	24.5051	955.0	4.2	Outcome1	6.1	0.1	3.255	Yes	n/a	6.0	n/a	n/a	n/a	TrialHappPreview	Gain
376.569	4.015	0.027	449.287	24.0	1	6.1	0.05	24.5051	955.0	4.2	Outcome1	6.1	0.1	3.255	Yes	n/a	6.0	n/a	n/a	896.0	TrialHappiness	Gain
376.569	1.4	n/a	449.91	24.0	1	6.1	0.05	24.5051	955.0	4.2	Outcome1	6.1	0.1	3.255	Yes	n/a	6.0	n/a	n/a	896.0	TrialHappinessSliderResponse	Gain
380.584	5.02	4.015	453.302	24.0	1	6.1	0.05	24.5051	955.0	4.2	Outcome1	6.1	0.1	3.255	Yes	n/a	6.0	n/a	n/a	n/a	ISIRate	Gain
385.632	3.0	0.028	458.35	25.0	1	9.7	2.58	25.7176	955.0	3.16	Outcome2	5.16	9.7	0.0	No	2.0	4.544733861834651	1.441	387.073	n/a	GetAnswer	Gain
387.098	4.0	0.025	459.816	25.0	1	9.7	2.58	25.7176	955.0	3.16	Outcome2	5.16	9.7	0.0	No	n/a	4.544733861834651	n/a	n/a	n/a	ShowChoice	Gain
391.114	1.0	0.016	463.832	25.0	1	9.7	2.58	25.7176	955.0	3.16	Outcome2	5.16	9.7	0.0	No	n/a	4.544733861834651	n/a	n/a	n/a	ShowResult	Gain
392.13	3.749	0.016	464.848	25.0	1	9.7	2.58	25.7176	955.0	3.16	Outcome2	5.16	9.7	0.0	No	n/a	4.544733861834651	n/a	n/a	n/a	ISITrial	Gain
395.895	3.0	0.016	468.613	26.0	1	8.1	1.74	26.7301	955.0	4.2	Outcome1	8.1	3.49	0.0	No	2.0	4.61155152887882	1.516	397.411	n/a	GetAnswer	Gain
397.428	4.0	0.017	470.146	26.0	1	8.1	1.74	26.7301	955.0	4.2	Outcome1	8.1	3.49	0.0	No	n/a	4.61155152887882	n/a	n/a	n/a	ShowChoice	Gain
401.444	1.0	0.016	474.162	26.0	1	8.1	1.74	26.7301	955.0	4.2	Outcome1	8.1	3.49	0.0	No	n/a	4.61155152887882	n/a	n/a	n/a	ShowResult	Gain
402.46	7.834	0.016	475.178	26.0	1	8.1	1.74	26.7301	955.0	4.2	Outcome1	8.1	3.49	0.0	No	n/a	4.61155152887882	n/a	n/a	n/a	ISITrial	Gain
410.324	3.0	0.03	483.042	27.0	1	8.35	4.18	27.7739	955.0	2.0	Outcome1	8.35	8.9	2.54975	Yes	2.0	-0.5457719894299741	1.262	411.586	n/a	GetAnswer	Gain
411.607	4.0	0.021	484.325	27.0	1	8.35	4.18	27.7739	955.0	2.0	Outcome1	8.35	8.9	2.54975	Yes	n/a	-0.5457719894299741	n/a	n/a	n/a	ShowChoice	Gain
415.622	1.0	0.015	488.34	27.0	1	8.35	4.18	27.7739	955.0	2.0	Outcome1	8.35	8.9	2.54975	Yes	n/a	-0.5457719894299741	n/a	n/a	n/a	ShowResult	Gain
416.638	4.225	0.016	489.356	27.0	1	8.35	4.18	27.7739	955.0	2.0	Outcome1	8.35	8.9	2.54975	Yes	n/a	-0.5457719894299741	n/a	n/a	n/a	ISITrial	Gain
420.887	2.55	0.024	493.605	27.0	1	8.35	4.18	27.7739	955.0	2.0	Outcome1	8.35	8.9	2.54975	Yes	n/a	-0.5457719894299741	n/a	n/a	n/a	TrialHappPreview	Gain
423.452	4.016	0.015	496.17	27.0	1	8.35	4.18	27.7739	955.0	2.0	Outcome1	8.35	8.9	2.54975	Yes	n/a	-0.5457719894299741	n/a	n/a	952.0	TrialHappiness	Gain
423.453	1.311	n/a	496.916	27.0	1	8.35	4.18	27.7739	955.0	2.0	Outcome1	8.35	8.9	2.54975	Yes	n/a	-0.5457719894299741	n/a	n/a	952.0	TrialHappinessSliderResponse	Gain
427.468	2.199	4.016	500.186	27.0	1	8.35	4.18	27.7739	955.0	2.0	Outcome1	8.35	8.9	2.54975	Yes	n/a	-0.5457719894299741	n/a	n/a	n/a	ISIRate	Gain
507.074	1.425	n/a	580.24	n/a	1	n/a	n/a	n/a	n/a	n/a	n/a	n/a	n/a	n/a	n/a	n/a	n/a	n/a	n/a	872.0	BlockStartHappinessSliderResponse	n/a
-87.602	-0.001	0.017	502.402	n/a	2	n/a	n/a	n/a	n/a	n/a	n/a	n/a	n/a	n/a	n/a	{SPACE}	n/a	73.353	-14.249	n/a	Rest	n/a
-14.228	4.0	0.021	575.776	n/a	2	n/a	n/a	n/a	n/a	n/a	n/a	n/a	n/a	n/a	n/a	n/a	n/a	n/a	n/a	n/a	BlockHappyPreview	n/a
-10.213	1.873	0.015	579.791	n/a	2	n/a	n/a	n/a	n/a	n/a	n/a	n/a	n/a	n/a	n/a	n/a	n/a	n/a	n/a	872.0	BlockStartHappiness	n/a
-4.381	-0.001	0.012	585.623	n/a	2	n/a	n/a	n/a	n/a	n/a	n/a	n/a	n/a	n/a	n/a	5.0	n/a	4.361	-0.02	n/a	ScanWait	n/a
0.0	10.0	0.02	590.004	n/a	2	n/a	n/a	n/a	n/a	n/a	n/a	n/a	n/a	n/a	n/a	n/a	n/a	n/a	n/a	n/a	GetReady	n/a
10.014	3.0	0.014	600.018	28.0	2	-1.34	-0.67	27.6064	70.0	5.0	Outcome1	-1.34	12.3	0.0	No	2.0	-13.6394557823129	1.518	11.532	n/a	GetAnswer	Loss
11.546	4.0	0.014	601.55	28.0	2	-1.34	-0.67	27.6064	70.0	5.0	Outcome1	-1.34	12.3	0.0	No	n/a	-13.6394557823129	n/a	n/a	n/a	ShowChoice	Loss
15.562	1.0	0.016	605.566	28.0	2	-1.34	-0.67	27.6064	70.0	5.0	Outcome1	-1.34	12.3	0.0	No	n/a	-13.6394557823129	n/a	n/a	n/a	ShowResult	Loss
16.578	3.575	0.016	606.582	28.0	2	-1.34	-0.67	27.6064	70.0	5.0	Outcome1	-1.34	12.3	0.0	No	n/a	-13.6394557823129	n/a	n/a	n/a	ISITrial	Loss
20.177	3.0	0.024	610.181	29.0	2	-13.45	-6.0	25.9252	70.0	0.52	Outcome1	-13.45	1.1	3.529	Yes	2.0	-14.548752834467098	2.317	22.494	n/a	GetAnswer	Mixed
22.509	4.0	0.015	612.513	29.0	2	-13.45	-6.0	25.9252	70.0	0.52	Outcome1	-13.45	1.1	3.529	Yes	n/a	-14.548752834467098	n/a	n/a	n/a	ShowChoice	Mixed
26.524	1.0	0.015	616.528	29.0	2	-13.45	-6.0	25.9252	70.0	0.52	Outcome1	-13.45	1.1	3.529	Yes	n/a	-14.548752834467098	n/a	n/a	n/a	ShowResult	Mixed
27.541	3.955	0.017	617.545	29.0	2	-13.45	-6.0	25.9252	70.0	0.52	Outcome1	-13.45	1.1	3.529	Yes	n/a	-14.548752834467098	n/a	n/a	n/a	ISITrial	Mixed
31.506	3.529	0.01	621.51	29.0	2	-13.45	-6.0	25.9252	70.0	0.52	Outcome1	-13.45	1.1	3.529	Yes	n/a	-14.548752834467098	n/a	n/a	n/a	TrialHappPreview	Mixed
35.055	4.015	0.02	625.059	29.0	2	-13.45	-6.0	25.9252	70.0	0.52	Outcome1	-13.45	1.1	3.529	Yes	n/a	-14.548752834467098	n/a	n/a	328.0	TrialHappiness	Mixed
35.056	0.522	n/a	625.51	29.0	2	-13.45	-6.0	25.9252	70.0	0.52	Outcome1	-13.45	1.1	3.529	Yes	n/a	-14.548752834467098	n/a	n/a	328.0	TrialHappinessSliderResponse	Mixed
39.07	6.116	4.015	629.074	29.0	2	-13.45	-6.0	25.9252	70.0	0.52	Outcome1	-13.45	1.1	3.529	Yes	n/a	-14.548752834467098	n/a	n/a	n/a	ISIRate	Mixed
45.218	3.0	0.032	635.222	30.0	2	-2.0	-2.0	25.6752	70.0	0.4	Certain	-5.31	0.9	0.0	No	4.0	-6.206349206349209	2.677	47.895	n/a	GetAnswer	Mixed
47.917	4.0	0.022	637.921	30.0	2	-2.0	-2.0	25.6752	70.0	0.4	Certain	-5.31	0.9	0.0	No	n/a	-6.206349206349209	n/a	n/a	n/a	ShowChoice	Mixed
51.932	1.0	0.015	641.936	30.0	2	-2.0	-2.0	25.6752	70.0	0.4	Certain	-5.31	0.9	0.0	No	n/a	-6.206349206349209	n/a	n/a	n/a	ShowResult	Mixed
52.949	4.453	0.017	642.953	30.0	2	-2.0	-2.0	25.6752	70.0	0.4	Certain	-5.31	0.9	0.0	No	n/a	-6.206349206349209	n/a	n/a	n/a	ISITrial	Mixed
57.43	3.0	0.028	647.434	31.0	2	-4.0	-4.0	25.1752	70.0	0.66	Certain	-7.2	-0.7	2.50325	Yes	4.0	-6.4988662131519295	2.495	59.925	n/a	GetAnswer	Mixed
59.946	4.0	0.021	649.95	31.0	2	-4.0	-4.0	25.1752	70.0	0.66	Certain	-7.2	-0.7	2.50325	Yes	n/a	-6.4988662131519295	n/a	n/a	n/a	ShowChoice	Mixed
63.961	1.0	0.015	653.965	31.0	2	-4.0	-4.0	25.1752	70.0	0.66	Certain	-7.2	-0.7	2.50325	Yes	n/a	-6.4988662131519295	n/a	n/a	n/a	ShowResult	Mixed
64.978	4.786	0.017	654.982	31.0	2	-4.0	-4.0	25.1752	70.0	0.66	Certain	-7.2	-0.7	2.50325	Yes	n/a	-6.4988662131519295	n/a	n/a	n/a	ISITrial	Mixed
69.776	2.503	0.012	659.78	31.0	2	-4.0	-4.0	25.1752	70.0	0.66	Certain	-7.2	-0.7	2.50325	Yes	n/a	-6.4988662131519295	n/a	n/a	n/a	TrialHappPreview	Mixed
72.309	4.015	0.03	662.313	31.0	2	-4.0	-4.0	25.1752	70.0	0.66	Certain	-7.2	-0.7	2.50325	Yes	n/a	-6.4988662131519295	n/a	n/a	280.0	TrialHappiness	Mixed
72.309	2.491	n/a	662.697	31.0	2	-4.0	-4.0	25.1752	70.0	0.66	Certain	-7.2	-0.7	2.50325	Yes	n/a	-6.4988662131519295	n/a	n/a	280.0	TrialHappinessSliderResponse	Mixed
76.324	2.013	4.015	666.328	31.0	2	-4.0	-4.0	25.1752	70.0	0.66	Certain	-7.2	-0.7	2.50325	Yes	n/a	-6.4988662131519295	n/a	n/a	n/a	ISIRate	Mixed
78.356	3.0	0.019	668.36	32.0	2	1.92	1.0	25.4152	70.0	3.16	Outcome1	1.92	0.87	0.0	No	2.0	1.0534769463340898	1.643	79.999	n/a	GetAnswer	Gain
80.022	4.0	0.023	670.026	32.0	2	1.92	1.0	25.4152	70.0	3.16	Outcome1	1.92	0.87	0.0	No	n/a	1.0534769463340898	n/a	n/a	n/a	ShowChoice	Gain
84.038	1.0	0.016	674.042	32.0	2	1.92	1.0	25.4152	70.0	3.16	Outcome1	1.92	0.87	0.0	No	n/a	1.0534769463340898	n/a	n/a	n/a	ShowResult	Gain
85.054	2.0	0.016	675.058	32.0	2	1.92	1.0	25.4152	70.0	3.16	Outcome1	1.92	0.87	0.0	No	n/a	1.0534769463340898	n/a	n/a	n/a	ISITrial	Gain
87.087	3.0	0.033	677.091	33.0	2	-7.71	-4.0	24.4514	70.0	0.2	Outcome2	-1.5	-7.71	0.0	No	2.0	-6.213151927437639	1.884	88.971	n/a	GetAnswer	Mixed
88.986	4.0	0.015	678.99	33.0	2	-7.71	-4.0	24.4514	70.0	0.2	Outcome2	-1.5	-7.71	0.0	No	n/a	-6.213151927437639	n/a	n/a	n/a	ShowChoice	Mixed
93.001	1.0	0.015	683.005	33.0	2	-7.71	-4.0	24.4514	70.0	0.2	Outcome2	-1.5	-7.71	0.0	No	n/a	-6.213151927437639	n/a	n/a	n/a	ShowResult	Mixed
94.018	5.099	0.017	684.022	33.0	2	-7.71	-4.0	24.4514	70.0	0.2	Outcome2	-1.5	-7.71	0.0	No	n/a	-6.213151927437639	n/a	n/a	n/a	ISITrial	Mixed
99.132	3.0	0.015	689.136	34.0	2	-1.75	1.0	24.2326	70.0	1.82	Outcome1	-1.75	4.7	3.2315	Yes	2.0	-6.45124716553288	2.302	101.434	n/a	GetAnswer	Gain
101.448	4.0	0.014	691.452	34.0	2	-1.75	1.0	24.2326	70.0	1.82	Outcome1	-1.75	4.7	3.2315	Yes	n/a	-6.45124716553288	n/a	n/a	n/a	ShowChoice	Gain
105.464	1.0	0.016	695.468	34.0	2	-1.75	1.0	24.2326	70.0	1.82	Outcome1	-1.75	4.7	3.2315	Yes	n/a	-6.45124716553288	n/a	n/a	n/a	ShowResult	Gain
106.48	4.784	0.016	696.484	34.0	2	-1.75	1.0	24.2326	70.0	1.82	Outcome1	-1.75	4.7	3.2315	Yes	n/a	-6.45124716553288	n/a	n/a	n/a	ISITrial	Gain
111.278	3.232	0.014	701.282	34.0	2	-1.75	1.0	24.2326	70.0	1.82	Outcome1	-1.75	4.7	3.2315	Yes	n/a	-6.45124716553288	n/a	n/a	n/a	TrialHappPreview	Gain
114.527	4.015	0.017	704.531	34.0	2	-1.75	1.0	24.2326	70.0	1.82	Outcome1	-1.75	4.7	3.2315	Yes	n/a	-6.45124716553288	n/a	n/a	240.0	TrialHappiness	Gain
114.528	0.715	n/a	704.872	34.0	2	-1.75	1.0	24.2326	70.0	1.82	Outcome1	-1.75	4.7	3.2315	Yes	n/a	-6.45124716553288	n/a	n/a	240.0	TrialHappinessSliderResponse	Gain
118.542	4.926	4.015	708.546	34.0	2	-1.75	1.0	24.2326	70.0	1.82	Outcome1	-1.75	4.7	3.2315	Yes	n/a	-6.45124716553288	n/a	n/a	n/a	ISIRate	Gain
123.491	3.0	0.023	713.495	35.0	2	-3.0	-3.0	23.8576	70.0	1.5	Certain	-5.91	0.1	0.0	No	4.0	-6.00907029478458	2.168	125.659	n/a	GetAnswer	Mixed
125.673	4.0	0.014	715.677	35.0	2	-3.0	-3.0	23.8576	70.0	1.5	Certain	-5.91	0.1	0.0	No	n/a	-6.00907029478458	n/a	n/a	n/a	ShowChoice	Mixed
129.689	1.0	0.016	719.693	35.0	2	-3.0	-3.0	23.8576	70.0	1.5	Certain	-5.91	0.1	0.0	No	n/a	-6.00907029478458	n/a	n/a	n/a	ShowResult	Mixed
130.705	2.098	0.016	720.709	35.0	2	-3.0	-3.0	23.8576	70.0	1.5	Certain	-5.91	0.1	0.0	No	n/a	-6.00907029478458	n/a	n/a	n/a	ISITrial	Mixed
132.821	3.0	0.018	722.825	36.0	2	-7.1	-4.0	22.9701	70.0	0.52	Outcome1	-7.1	-0.9	3.33575	Yes	2.0	-6.20181405895692	2.472	135.293	n/a	GetAnswer	Mixed
135.32	4.0	0.027	725.324	36.0	2	-7.1	-4.0	22.9701	70.0	0.52	Outcome1	-7.1	-0.9	3.33575	Yes	n/a	-6.20181405895692	n/a	n/a	n/a	ShowChoice	Mixed
139.335	1.0	0.015	729.339	36.0	2	-7.1	-4.0	22.9701	70.0	0.52	Outcome1	-7.1	-0.9	3.33575	Yes	n/a	-6.20181405895692	n/a	n/a	n/a	ShowResult	Mixed
140.351	5.156	0.016	730.355	36.0	2	-7.1	-4.0	22.9701	70.0	0.52	Outcome1	-7.1	-0.9	3.33575	Yes	n/a	-6.20181405895692	n/a	n/a	n/a	ISITrial	Mixed
145.533	3.336	0.026	735.537	36.0	2	-7.1	-4.0	22.9701	70.0	0.52	Outcome1	-7.1	-0.9	3.33575	Yes	n/a	-6.20181405895692	n/a	n/a	n/a	TrialHappPreview	Mixed
148.898	4.016	0.029	738.902	36.0	2	-7.1	-4.0	22.9701	70.0	0.52	Outcome1	-7.1	-0.9	3.33575	Yes	n/a	-6.20181405895692	n/a	n/a	208.0	TrialHappiness	Mixed
148.899	1.342	n/a	739.551	36.0	2	-7.1	-4.0	22.9701	70.0	0.52	Outcome1	-7.1	-0.9	3.33575	Yes	n/a	-6.20181405895692	n/a	n/a	208.0	TrialHappinessSliderResponse	Mixed
152.914	5.343	4.016	742.918	36.0	2	-7.1	-4.0	22.9701	70.0	0.52	Outcome1	-7.1	-0.9	3.33575	Yes	n/a	-6.20181405895692	n/a	n/a	n/a	ISIRate	Mixed
158.279	3.0	0.022	748.283	37.0	2	1.0	1.0	23.0951	70.0	1.2	Certain	-1.95	3.9	0.0	No	4.0	-5.85034013605442	1.465	159.744	n/a	GetAnswer	Mixed
159.761	4.0	0.017	749.765	37.0	2	1.0	1.0	23.0951	70.0	1.2	Certain	-1.95	3.9	0.0	No	n/a	-5.85034013605442	n/a	n/a	n/a	ShowChoice	Mixed
163.777	1.0	0.016	753.781	37.0	2	1.0	1.0	23.0951	70.0	1.2	Certain	-1.95	3.9	0.0	No	n/a	-5.85034013605442	n/a	n/a	n/a	ShowResult	Mixed
164.793	3.598	0.016	754.797	37.0	2	1.0	1.0	23.0951	70.0	1.2	Certain	-1.95	3.9	0.0	No	n/a	-5.85034013605442	n/a	n/a	n/a	ISITrial	Mixed
168.408	3.0	0.017	758.412	38.0	2	-3.91	-1.0	22.6063	70.0	1.5	Outcome1	-3.91	2.1	0.0	No	2.0	-6.00680272108844	1.412	169.82	n/a	GetAnswer	Mixed
169.841	4.0	0.021	759.845	38.0	2	-3.91	-1.0	22.6063	70.0	1.5	Outcome1	-3.91	2.1	0.0	No	n/a	-6.00680272108844	n/a	n/a	n/a	ShowChoice	Mixed
173.856	1.0	0.015	763.86	38.0	2	-3.91	-1.0	22.6063	70.0	1.5	Outcome1	-3.91	2.1	0.0	No	n/a	-6.00680272108844	n/a	n/a	n/a	ShowResult	Mixed
174.873	4.787	0.017	764.877	38.0	2	-3.91	-1.0	22.6063	70.0	1.5	Outcome1	-3.91	2.1	0.0	No	n/a	-6.00680272108844	n/a	n/a	n/a	ISITrial	Mixed
179.688	3.0	0.028	769.692	39.0	2	0.94	0.47	22.7238	70.0	2.22	Outcome1	0.94	7.1	2.86425	Yes	2.0	-6.16326530612245	1.497	181.185	n/a	GetAnswer	Gain
181.204	4.0	0.019	771.208	39.0	2	0.94	0.47	22.7238	70.0	2.22	Outcome1	0.94	7.1	2.86425	Yes	n/a	-6.16326530612245	n/a	n/a	n/a	ShowChoice	Gain
185.219	1.0	0.015	775.223	39.0	2	0.94	0.47	22.7238	70.0	2.22	Outcome1	0.94	7.1	2.86425	Yes	n/a	-6.16326530612245	n/a	n/a	n/a	ShowResult	Gain
186.235	2.348	0.016	776.239	39.0	2	0.94	0.47	22.7238	70.0	2.22	Outcome1	0.94	7.1	2.86425	Yes	n/a	-6.16326530612245	n/a	n/a	n/a	ISITrial	Gain
188.601	2.864	0.018	778.605	39.0	2	0.94	0.47	22.7238	70.0	2.22	Outcome1	0.94	7.1	2.86425	Yes	n/a	-6.16326530612245	n/a	n/a	n/a	TrialHappPreview	Gain
191.484	4.015	0.019	781.488	39.0	2	0.94	0.47	22.7238	70.0	2.22	Outcome1	0.94	7.1	2.86425	Yes	n/a	-6.16326530612245	n/a	n/a	360.0	TrialHappiness	Gain
191.484	0.461	n/a	782.265	39.0	2	0.94	0.47	22.7238	70.0	2.22	Outcome1	0.94	7.1	2.86425	Yes	n/a	-6.16326530612245	n/a	n/a	360.0	TrialHappinessSliderResponse	Gain
195.499	3.457	4.015	785.503	39.0	2	0.94	0.47	22.7238	70.0	2.22	Outcome1	0.94	7.1	2.86425	Yes	n/a	-6.16326530612245	n/a	n/a	n/a	ISIRate	Gain
198.981	3.0	0.025	788.985	40.0	2	2.0	2.0	22.9738	70.0	1.82	Certain	2.68	1.17	0.0	No	4.0	1.50925925925926	2.56	201.541	n/a	GetAnswer	Loss
201.563	4.0	0.022	791.567	40.0	2	2.0	2.0	22.9738	70.0	1.82	Certain	2.68	1.17	0.0	No	n/a	1.50925925925926	n/a	n/a	n/a	ShowChoice	Loss
205.579	1.0	0.016	795.583	40.0	2	2.0	2.0	22.9738	70.0	1.82	Certain	2.68	1.17	0.0	No	n/a	1.50925925925926	n/a	n/a	n/a	ShowResult	Loss
206.595	3.158	0.016	796.599	40.0	2	2.0	2.0	22.9738	70.0	1.82	Certain	2.68	1.17	0.0	No	n/a	1.50925925925926	n/a	n/a	n/a	ISITrial	Loss
209.777	3.0	0.024	799.781	41.0	2	2.0	2.0	23.2238	70.0	2.0	Certain	6.9	-2.33	4.0	Yes	4.0	-9.23356009070295	2.179	211.956	n/a	GetAnswer	Gain
211.976	4.0	0.02	801.98	41.0	2	2.0	2.0	23.2238	70.0	2.0	Certain	6.9	-2.33	4.0	Yes	n/a	-9.23356009070295	n/a	n/a	n/a	ShowChoice	Gain
215.992	1.0	0.016	805.996	41.0	2	2.0	2.0	23.2238	70.0	2.0	Certain	6.9	-2.33	4.0	Yes	n/a	-9.23356009070295	n/a	n/a	n/a	ShowResult	Gain
217.008	4.506	0.016	807.012	41.0	2	2.0	2.0	23.2238	70.0	2.0	Certain	6.9	-2.33	4.0	Yes	n/a	-9.23356009070295	n/a	n/a	n/a	ISITrial	Gain
221.54	4.0	0.026	811.544	41.0	2	2.0	2.0	23.2238	70.0	2.0	Certain	6.9	-2.33	4.0	Yes	n/a	-9.23356009070295	n/a	n/a	n/a	TrialHappPreview	Gain
225.555	4.015	0.015	815.559	41.0	2	2.0	2.0	23.2238	70.0	2.0	Certain	6.9	-2.33	4.0	Yes	n/a	-9.23356009070295	n/a	n/a	436.0	TrialHappiness	Gain
225.556	1.65	n/a	817.233	41.0	2	2.0	2.0	23.2238	70.0	2.0	Certain	6.9	-2.33	4.0	Yes	n/a	-9.23356009070295	n/a	n/a	436.0	TrialHappinessSliderResponse	Gain
229.57	8.0	4.015	819.574	41.0	2	2.0	2.0	23.2238	70.0	2.0	Certain	6.9	-2.33	4.0	Yes	n/a	-9.23356009070295	n/a	n/a	n/a	ISIRate	Gain
237.601	3.0	0.031	827.605	42.0	2	-7.95	-2.0	22.23	70.0	0.4	Outcome1	-7.95	2.9	0.0	No	2.0	-10.8548752834467	1.617	239.218	n/a	GetAnswer	Mixed
239.234	4.0	0.016	829.238	42.0	2	-7.95	-2.0	22.23	70.0	0.4	Outcome1	-7.95	2.9	0.0	No	n/a	-10.8548752834467	n/a	n/a	n/a	ShowChoice	Mixed
243.249	1.0	0.015	833.253	42.0	2	-7.95	-2.0	22.23	70.0	0.4	Outcome1	-7.95	2.9	0.0	No	n/a	-10.8548752834467	n/a	n/a	n/a	ShowResult	Mixed
244.265	6.248	0.016	834.269	42.0	2	-7.95	-2.0	22.23	70.0	0.4	Outcome1	-7.95	2.9	0.0	No	n/a	-10.8548752834467	n/a	n/a	n/a	ISITrial	Mixed
250.53	3.0	0.017	840.534	43.0	2	-6.37	0.0	21.4338	70.0	2.0	Outcome2	4.9	-6.37	2.77575	Yes	2.0	-11.2698412698413	2.186	252.716	n/a	GetAnswer	Gain
252.729	4.0	0.013	842.733	43.0	2	-6.37	0.0	21.4338	70.0	2.0	Outcome2	4.9	-6.37	2.77575	Yes	n/a	-11.2698412698413	n/a	n/a	n/a	ShowChoice	Gain
256.744	1.0	0.015	846.748	43.0	2	-6.37	0.0	21.4338	70.0	2.0	Outcome2	4.9	-6.37	2.77575	Yes	n/a	-11.2698412698413	n/a	n/a	n/a	ShowResult	Gain
257.76	4.596	0.016	847.764	43.0	2	-6.37	0.0	21.4338	70.0	2.0	Outcome2	4.9	-6.37	2.77575	Yes	n/a	-11.2698412698413	n/a	n/a	n/a	ISITrial	Gain
262.376	2.776	0.02	852.38	43.0	2	-6.37	0.0	21.4338	70.0	2.0	Outcome2	4.9	-6.37	2.77575	Yes	n/a	-11.2698412698413	n/a	n/a	n/a	TrialHappPreview	Gain
265.175	4.015	0.023	855.179	43.0	2	-6.37	0.0	21.4338	70.0	2.0	Outcome2	4.9	-6.37	2.77575	Yes	n/a	-11.2698412698413	n/a	n/a	288.0	TrialHappiness	Gain
265.175	0.614	n/a	855.504	43.0	2	-6.37	0.0	21.4338	70.0	2.0	Outcome2	4.9	-6.37	2.77575	Yes	n/a	-11.2698412698413	n/a	n/a	288.0	TrialHappinessSliderResponse	Gain
269.19	3.103	4.015	859.194	43.0	2	-6.37	0.0	21.4338	70.0	2.0	Outcome2	4.9	-6.37	2.77575	Yes	n/a	-11.2698412698413	n/a	n/a	n/a	ISIRate	Gain
272.322	3.0	0.029	862.326	44.0	2	4.53	2.26	22.0	70.0	3.16	Outcome2	13.7	4.53	0.0	No	2.0	-9.16780045351474	1.916	274.238	n/a	GetAnswer	Loss
274.255	4.0	0.017	864.259	44.0	2	4.53	2.26	22.0	70.0	3.16	Outcome2	13.7	4.53	0.0	No	n/a	-9.16780045351474	n/a	n/a	n/a	ShowChoice	Loss
278.27	1.0	0.015	868.274	44.0	2	4.53	2.26	22.0	70.0	3.16	Outcome2	13.7	4.53	0.0	No	n/a	-9.16780045351474	n/a	n/a	n/a	ShowResult	Loss
279.286	2.42	0.016	869.29	44.0	2	4.53	2.26	22.0	70.0	3.16	Outcome2	13.7	4.53	0.0	No	n/a	-9.16780045351474	n/a	n/a	n/a	ISITrial	Loss
281.735	3.0	0.029	871.739	45.0	2	0.0	0.0	22.0	70.0	2.0	Certain	0.08	-1.28	0.0	No	4.0	1.36130007558579	2.397	284.132	n/a	GetAnswer	Mixed
284.151	4.0	0.019	874.155	45.0	2	0.0	0.0	22.0	70.0	2.0	Certain	0.08	-1.28	0.0	No	n/a	1.36130007558579	n/a	n/a	n/a	ShowChoice	Mixed
288.167	1.0	0.016	878.171	45.0	2	0.0	0.0	22.0	70.0	2.0	Certain	0.08	-1.28	0.0	No	n/a	1.36130007558579	n/a	n/a	n/a	ShowResult	Mixed
289.183	3.144	0.016	879.187	45.0	2	0.0	0.0	22.0	70.0	2.0	Certain	0.08	-1.28	0.0	No	n/a	1.36130007558579	n/a	n/a	n/a	ISITrial	Mixed
292.348	3.0	0.021	882.352	46.0	2	2.82	2.0	22.3525	70.0	2.48	Outcome2	1.44	2.82	3.84125	Yes	2.0	1.38189720332577	1.834	294.182	n/a	GetAnswer	Loss
294.198	4.0	0.016	884.202	46.0	2	2.82	2.0	22.3525	70.0	2.48	Outcome2	1.44	2.82	3.84125	Yes	n/a	1.38189720332577	n/a	n/a	n/a	ShowChoice	Loss
298.213	1.0	0.015	888.217	46.0	2	2.82	2.0	22.3525	70.0	2.48	Outcome2	1.44	2.82	3.84125	Yes	n/a	1.38189720332577	n/a	n/a	n/a	ShowResult	Loss
299.229	2.246	0.016	889.233	46.0	2	2.82	2.0	22.3525	70.0	2.48	Outcome2	1.44	2.82	3.84125	Yes	n/a	1.38189720332577	n/a	n/a	n/a	ISITrial	Loss
301.495	3.841	0.02	891.499	46.0	2	2.82	2.0	22.3525	70.0	2.48	Outcome2	1.44	2.82	3.84125	Yes	n/a	1.38189720332577	n/a	n/a	n/a	TrialHappPreview	Loss
305.361	4.015	0.025	895.365	46.0	2	2.82	2.0	22.3525	70.0	2.48	Outcome2	1.44	2.82	3.84125	Yes	n/a	1.38189720332577	n/a	n/a	584.0	TrialHappiness	Loss
305.361	2.145	n/a	896.509	46.0	2	2.82	2.0	22.3525	70.0	2.48	Outcome2	1.44	2.82	3.84125	Yes	n/a	1.38189720332577	n/a	n/a	584.0	TrialHappinessSliderResponse	Loss
309.376	7.365	4.015	899.38	46.0	2	2.82	2.0	22.3525	70.0	2.48	Outcome2	1.44	2.82	3.84125	Yes	n/a	1.38189720332577	n/a	n/a	n/a	ISIRate	Loss
316.773	3.0	0.032	906.777	47.0	2	-8.24	-1.0	21.3225	70.0	1.82	Outcome2	6.7	-8.24	0.0	No	2.0	-14.9433106575964	2.02	318.793	n/a	GetAnswer	Gain
318.806	4.0	0.013	908.81	47.0	2	-8.24	-1.0	21.3225	70.0	1.82	Outcome2	6.7	-8.24	0.0	No	n/a	-14.9433106575964	n/a	n/a	n/a	ShowChoice	Gain
322.821	1.0	0.015	912.825	47.0	2	-8.24	-1.0	21.3225	70.0	1.82	Outcome2	6.7	-8.24	0.0	No	n/a	-14.9433106575964	n/a	n/a	n/a	ShowResult	Gain
323.837	2.0	0.016	913.841	47.0	2	-8.24	-1.0	21.3225	70.0	1.82	Outcome2	6.7	-8.24	0.0	No	n/a	-14.9433106575964	n/a	n/a	n/a	ISITrial	Gain
325.87	3.0	0.033	915.874	48.0	2	-12.03	-4.0	19.8187	70.0	0.82	Outcome1	-12.03	3.5	2.83175	Yes	2.0	-15.5260770975057	2.78	328.65	n/a	GetAnswer	Mixed
328.669	4.0	0.019	918.673	48.0	2	-12.03	-4.0	19.8187	70.0	0.82	Outcome1	-12.03	3.5	2.83175	Yes	n/a	-15.5260770975057	n/a	n/a	n/a	ShowChoice	Mixed
332.684	1.0	0.015	922.688	48.0	2	-12.03	-4.0	19.8187	70.0	0.82	Outcome1	-12.03	3.5	2.83175	Yes	n/a	-15.5260770975057	n/a	n/a	n/a	ShowResult	Mixed
333.701	3.692	0.017	923.705	48.0	2	-12.03	-4.0	19.8187	70.0	0.82	Outcome1	-12.03	3.5	2.83175	Yes	n/a	-15.5260770975057	n/a	n/a	n/a	ISITrial	Mixed
337.416	2.832	0.023	927.42	48.0	2	-12.03	-4.0	19.8187	70.0	0.82	Outcome1	-12.03	3.5	2.83175	Yes	n/a	-15.5260770975057	n/a	n/a	n/a	TrialHappPreview	Mixed
340.265	4.015	0.017	930.269	48.0	2	-12.03	-4.0	19.8187	70.0	0.82	Outcome1	-12.03	3.5	2.83175	Yes	4{-4}4{-4}4{-4}4{-4}4{-4}4{-4}	-15.5260770975057	3.806	344.071	236.0	TrialHappiness	Mixed
340.266	3.495	n/a	930.581	48.0	2	-12.03	-4.0	19.8187	70.0	0.82	Outcome1	-12.03	3.5	2.83175	Yes	n/a	-15.5260770975057	n/a	n/a	236.0	TrialHappinessSliderResponse	Mixed
344.28	3.327	4.015	934.284	48.0	2	-12.03	-4.0	19.8187	70.0	0.82	Outcome1	-12.03	3.5	2.83175	Yes	n/a	-15.5260770975057	n/a	n/a	n/a	ISIRate	Mixed
347.629	3.0	0.022	937.633	49.0	2	1.48	1.0	20.0037	70.0	3.6	Outcome1	1.48	0.19	0.0	No	2.0	1.28835978835979	2.182	349.811	n/a	GetAnswer	Gain
349.828	4.0	0.017	939.832	49.0	2	1.48	1.0	20.0037	70.0	3.6	Outcome1	1.48	0.19	0.0	No	n/a	1.28835978835979	n/a	n/a	n/a	ShowChoice	Gain
353.844	1.0	0.016	943.848	49.0	2	1.48	1.0	20.0037	70.0	3.6	Outcome1	1.48	0.19	0.0	No	n/a	1.28835978835979	n/a	n/a	n/a	ShowResult	Gain
354.86	8.0	0.016	944.864	49.0	2	1.48	1.0	20.0037	70.0	3.6	Outcome1	1.48	0.19	0.0	No	n/a	1.28835978835979	n/a	n/a	n/a	ISITrial	Gain
362.89	3.0	0.03	952.894	50.0	2	3.12	1.56	20.3937	70.0	2.8	Outcome2	13.5	3.12	3.54725	Yes	2.0	-10.3786848072562	1.683	364.573	n/a	GetAnswer	Loss
364.59	4.0	0.017	954.594	50.0	2	3.12	1.56	20.3937	70.0	2.8	Outcome2	13.5	3.12	3.54725	Yes	n/a	-10.3786848072562	n/a	n/a	n/a	ShowChoice	Loss
368.605	1.0	0.015	958.609	50.0	2	3.12	1.56	20.3937	70.0	2.8	Outcome2	13.5	3.12	3.54725	Yes	n/a	-10.3786848072562	n/a	n/a	n/a	ShowResult	Loss
369.621	7.537	0.016	959.625	50.0	2	3.12	1.56	20.3937	70.0	2.8	Outcome2	13.5	3.12	3.54725	Yes	n/a	-10.3786848072562	n/a	n/a	n/a	ISITrial	Loss
377.169	3.547	0.011	967.173	50.0	2	3.12	1.56	20.3937	70.0	2.8	Outcome2	13.5	3.12	3.54725	Yes	n/a	-10.3786848072562	n/a	n/a	n/a	TrialHappPreview	Loss
380.734	4.016	0.018	970.738	50.0	2	3.12	1.56	20.3937	70.0	2.8	Outcome2	13.5	3.12	3.54725	Yes	{-2}2{-2}	-10.3786848072562	0.757	381.491	592.0	TrialHappiness	Loss
380.735	0.658	n/a	970.838	50.0	2	3.12	1.56	20.3937	70.0	2.8	Outcome2	13.5	3.12	3.54725	Yes	n/a	-10.3786848072562	n/a	n/a	592.0	TrialHappinessSliderResponse	Loss
384.75	6.189	4.016	974.754	50.0	2	3.12	1.56	20.3937	70.0	2.8	Outcome2	13.5	3.12	3.54725	Yes	n/a	-10.3786848072562	n/a	n/a	n/a	ISIRate	Loss
390.964	3.0	0.025	980.968	51.0	2	-1.0	-1.0	20.2687	70.0	0.3	Certain	-0.32	-3.09	0.0	No	4.0	2.76606198034769	2.721	393.685	n/a	GetAnswer	Mixed
393.696	4.0	0.011	983.7	51.0	2	-1.0	-1.0	20.2687	70.0	0.3	Certain	-0.32	-3.09	0.0	No	n/a	2.76606198034769	n/a	n/a	n/a	ShowChoice	Mixed
397.712	1.0	0.016	987.716	51.0	2	-1.0	-1.0	20.2687	70.0	0.3	Certain	-0.32	-3.09	0.0	No	n/a	2.76606198034769	n/a	n/a	n/a	ShowResult	Mixed
398.728	5.508	0.016	988.732	51.0	2	-1.0	-1.0	20.2687	70.0	0.3	Certain	-0.32	-3.09	0.0	No	n/a	2.76606198034769	n/a	n/a	n/a	ISITrial	Mixed
404.259	3.0	0.023	994.263	52.0	2	-4.51	-2.26	19.7049	70.0	1.82	Outcome2	12.7	-4.51	0.0	No	2.0	-17.2131519274376	1.672	405.931	n/a	GetAnswer	Loss
405.959	4.0	0.028	995.963	52.0	2	-4.51	-2.26	19.7049	70.0	1.82	Outcome2	12.7	-4.51	0.0	No	n/a	-17.2131519274376	n/a	n/a	n/a	ShowChoice	Loss
409.974	1.0	0.015	999.978	52.0	2	-4.51	-2.26	19.7049	70.0	1.82	Outcome2	12.7	-4.51	0.0	No	n/a	-17.2131519274376	n/a	n/a	n/a	ShowResult	Loss
410.99	5.913	0.016	1000.994	52.0	2	-4.51	-2.26	19.7049	70.0	1.82	Outcome2	12.7	-4.51	0.0	No	n/a	-17.2131519274376	n/a	n/a	n/a	ISITrial	Loss
416.922	3.0	0.019	1006.926	53.0	2	-3.9	-1.95	19.2174	70.0	3.6	Outcome2	13.9	-3.9	2.99675	Yes	2.0	-17.8049886621315	2.01	418.932	n/a	GetAnswer	Loss
418.954	4.0	0.022	1008.958	53.0	2	-3.9	-1.95	19.2174	70.0	3.6	Outcome2	13.9	-3.9	2.99675	Yes	n/a	-17.8049886621315	n/a	n/a	n/a	ShowChoice	Loss
422.97	1.0	0.016	1012.974	53.0	2	-3.9	-1.95	19.2174	70.0	3.6	Outcome2	13.9	-3.9	2.99675	Yes	n/a	-17.8049886621315	n/a	n/a	n/a	ShowResult	Loss
423.986	3.66	0.016	1013.99	53.0	2	-3.9	-1.95	19.2174	70.0	3.6	Outcome2	13.9	-3.9	2.99675	Yes	n/a	-17.8049886621315	n/a	n/a	n/a	ISITrial	Loss
427.668	2.997	0.022	1017.672	53.0	2	-3.9	-1.95	19.2174	70.0	3.6	Outcome2	13.9	-3.9	2.99675	Yes	n/a	-17.8049886621315	n/a	n/a	n/a	TrialHappPreview	Loss
430.684	4.015	0.019	1020.688	53.0	2	-3.9	-1.95	19.2174	70.0	3.6	Outcome2	13.9	-3.9	2.99675	Yes	n/a	-17.8049886621315	n/a	n/a	368.0	TrialHappiness	Loss
430.684	1.874	n/a	1021.746	53.0	2	-3.9	-1.95	19.2174	70.0	3.6	Outcome2	13.9	-3.9	2.99675	Yes	n/a	-17.8049886621315	n/a	n/a	368.0	TrialHappinessSliderResponse	Loss
434.699	3.987	4.015	1024.703	53.0	2	-3.9	-1.95	19.2174	70.0	3.6	Outcome2	13.9	-3.9	2.99675	Yes	n/a	-17.8049886621315	n/a	n/a	n/a	ISIRate	Loss
438.714	3.0	0.028	1028.718	54.0	2	3.28	2.0	19.6274	70.0	2.22	Outcome2	1.28	3.28	0.0	No	2.0	2.00396825396825	1.719	440.433	n/a	GetAnswer	Loss
440.447	4.0	0.014	1030.451	54.0	2	3.28	2.0	19.6274	70.0	2.22	Outcome2	1.28	3.28	0.0	No	n/a	2.00396825396825	n/a	n/a	n/a	ShowChoice	Loss
444.462	1.0	0.015	1034.466	54.0	2	3.28	2.0	19.6274	70.0	2.22	Outcome2	1.28	3.28	0.0	No	n/a	2.00396825396825	n/a	n/a	n/a	ShowResult	Loss
445.478	8.0	0.016	1035.482	54.0	2	3.28	2.0	19.6274	70.0	2.22	Outcome2	1.28	3.28	0.0	No	n/a	2.00396825396825	n/a	n/a	n/a	ISITrial	Loss
511.972	0.209	n/a	1102.257	n/a	2	n/a	n/a	n/a	n/a	n/a	n/a	n/a	n/a	n/a	n/a	n/a	n/a	n/a	n/a	480.0	BlockStartHappinessSliderResponse	n/a
-70.042	-0.001	0.031	1043.513	n/a	3	n/a	n/a	n/a	n/a	n/a	n/a	n/a	n/a	n/a	n/a	{SPACE}	n/a	54.424	-15.618	n/a	Rest	n/a
-15.594	4.0	0.024	1097.961	n/a	3	n/a	n/a	n/a	n/a	n/a	n/a	n/a	n/a	n/a	n/a	n/a	n/a	n/a	n/a	n/a	BlockHappyPreview	n/a
-11.579	0.49	0.015	1101.976	n/a	3	n/a	n/a	n/a	n/a	n/a	n/a	n/a	n/a	n/a	n/a	n/a	n/a	n/a	n/a	480.0	BlockStartHappiness	n/a
-5.448	-0.001	0.026	1108.107	n/a	3	n/a	n/a	n/a	n/a	n/a	n/a	n/a	n/a	n/a	n/a	5.0	n/a	5.424	-0.024	n/a	ScanWait	n/a
0.0	10.0	0.024	1113.555	n/a	3	n/a	n/a	n/a	n/a	n/a	n/a	n/a	n/a	n/a	n/a	n/a	n/a	n/a	n/a	n/a	GetReady	n/a
10.013	3.0	0.013	1123.568	55.0	3	8.17	4.08	20.6486	955.0	4.2	Outcome2	10.1	8.17	2.53325	Yes	2.0	-1.9276141940354896	1.533	11.546	n/a	GetAnswer	Gain
11.563	4.0	0.017	1125.118	55.0	3	8.17	4.08	20.6486	955.0	4.2	Outcome2	10.1	8.17	2.53325	Yes	n/a	-1.9276141940354896	n/a	n/a	n/a	ShowChoice	Gain
15.578	1.0	0.015	1129.133	55.0	3	8.17	4.08	20.6486	955.0	4.2	Outcome2	10.1	8.17	2.53325	Yes	n/a	-1.9276141940354896	n/a	n/a	n/a	ShowResult	Gain
16.594	7.709	0.016	1130.149	55.0	3	8.17	4.08	20.6486	955.0	4.2	Outcome2	10.1	8.17	2.53325	Yes	n/a	-1.9276141940354896	n/a	n/a	n/a	ISITrial	Gain
24.325	2.533	0.022	1137.88	55.0	3	8.17	4.08	20.6486	955.0	4.2	Outcome2	10.1	8.17	2.53325	Yes	n/a	-1.9276141940354896	n/a	n/a	n/a	TrialHappPreview	Gain
26.874	4.015	0.016	1140.429	55.0	3	8.17	4.08	20.6486	955.0	4.2	Outcome2	10.1	8.17	2.53325	Yes	n/a	-1.9276141940354896	n/a	n/a	736.0	TrialHappiness	Gain
26.875	1.25	n/a	1140.903	55.0	3	8.17	4.08	20.6486	955.0	4.2	Outcome2	10.1	8.17	2.53325	Yes	n/a	-1.9276141940354896	n/a	n/a	736.0	TrialHappinessSliderResponse	Gain
30.889	2.133	4.015	1144.444	55.0	3	8.17	4.08	20.6486	955.0	4.2	Outcome2	10.1	8.17	2.53325	Yes	n/a	-1.9276141940354896	n/a	n/a	n/a	ISIRate	Gain
33.039	3.0	0.017	1146.594	56.0	3	11.97	5.98	22.1448	955.0	2.0	Outcome1	11.97	12.9	0.0	No	2.0	-0.933559833899585	1.124	34.163	n/a	GetAnswer	Loss
34.188	4.0	0.025	1147.743	56.0	3	11.97	5.98	22.1448	955.0	2.0	Outcome1	11.97	12.9	0.0	No	n/a	-0.933559833899585	n/a	n/a	n/a	ShowChoice	Loss
38.203	1.0	0.015	1151.758	56.0	3	11.97	5.98	22.1448	955.0	2.0	Outcome1	11.97	12.9	0.0	No	n/a	-0.933559833899585	n/a	n/a	n/a	ShowResult	Loss
39.22	4.697	0.017	1152.775	56.0	3	11.97	5.98	22.1448	955.0	2.0	Outcome1	11.97	12.9	0.0	No	n/a	-0.933559833899585	n/a	n/a	n/a	ISITrial	Loss
43.935	3.0	0.018	1157.49	57.0	3	9.1	2.3	23.2823	955.0	2.22	Outcome1	9.1	4.59	0.0	No	2.0	4.50622876557191	1.6	45.535	n/a	GetAnswer	Gain
45.551	4.0	0.016	1159.106	57.0	3	9.1	2.3	23.2823	955.0	2.22	Outcome1	9.1	4.59	0.0	No	n/a	4.50622876557191	n/a	n/a	n/a	ShowChoice	Gain
49.566	1.0	0.015	1163.121	57.0	3	9.1	2.3	23.2823	955.0	2.22	Outcome1	9.1	4.59	0.0	No	n/a	4.50622876557191	n/a	n/a	n/a	ShowResult	Gain
50.582	4.291	0.016	1164.137	57.0	3	9.1	2.3	23.2823	955.0	2.22	Outcome1	9.1	4.59	0.0	No	n/a	4.50622876557191	n/a	n/a	n/a	ISITrial	Gain
54.898	3.0	0.025	1168.453	58.0	3	9.9	2.58	24.5198	955.0	3.6	Outcome1	9.9	5.15	3.04575	Yes	2.0	4.75424688561721	1.407	56.305	n/a	GetAnswer	Gain
56.33	4.0	0.025	1169.885	58.0	3	9.9	2.58	24.5198	955.0	3.6	Outcome1	9.9	5.15	3.04575	Yes	n/a	4.75424688561721	n/a	n/a	n/a	ShowChoice	Gain
60.346	1.0	0.016	1173.901	58.0	3	9.9	2.58	24.5198	955.0	3.6	Outcome1	9.9	5.15	3.04575	Yes	n/a	4.75424688561721	n/a	n/a	n/a	ShowResult	Gain
61.362	2.037	0.016	1174.917	58.0	3	9.9	2.58	24.5198	955.0	3.6	Outcome1	9.9	5.15	3.04575	Yes	n/a	4.75424688561721	n/a	n/a	n/a	ISITrial	Gain
63.411	3.046	0.012	1176.966	58.0	3	9.9	2.58	24.5198	955.0	3.6	Outcome1	9.9	5.15	3.04575	Yes	n/a	4.75424688561721	n/a	n/a	n/a	TrialHappPreview	Gain
66.477	4.015	0.02	1180.032	58.0	3	9.9	2.58	24.5198	955.0	3.6	Outcome1	9.9	5.15	3.04575	Yes	n/a	4.75424688561721	n/a	n/a	792.0	TrialHappiness	Gain
66.478	2.488	n/a	1181.201	58.0	3	9.9	2.58	24.5198	955.0	3.6	Outcome1	9.9	5.15	3.04575	Yes	n/a	4.75424688561721	n/a	n/a	792.0	TrialHappinessSliderResponse	Gain
70.492	4.183	4.015	1184.047	58.0	3	9.9	2.58	24.5198	955.0	3.6	Outcome1	9.9	5.15	3.04575	Yes	n/a	4.75424688561721	n/a	n/a	n/a	ISIRate	Gain
74.691	3.0	0.016	1188.246	59.0	3	10.13	5.07	25.7861	955.0	2.0	Outcome1	10.13	10.9	0.0	No	2.0	-0.7683087957719891	1.345	76.036	n/a	GetAnswer	Loss
76.057	4.0	0.021	1189.612	59.0	3	10.13	5.07	25.7861	955.0	2.0	Outcome1	10.13	10.9	0.0	No	n/a	-0.7683087957719891	n/a	n/a	n/a	ShowChoice	Loss
80.072	1.0	0.015	1193.627	59.0	3	10.13	5.07	25.7861	955.0	2.0	Outcome1	10.13	10.9	0.0	No	n/a	-0.7683087957719891	n/a	n/a	n/a	ShowResult	Loss
81.088	5.064	0.016	1194.643	59.0	3	10.13	5.07	25.7861	955.0	2.0	Outcome1	10.13	10.9	0.0	No	n/a	-0.7683087957719891	n/a	n/a	n/a	ISITrial	Loss
86.17	3.0	0.018	1199.725	60.0	3	5.1	0.43	26.4236	955.0	2.22	Outcome2	0.86	5.1	3.5625	Yes	2.0	4.23556058890147	1.93	88.1	n/a	GetAnswer	Gain
88.119	4.0	0.019	1201.674	60.0	3	5.1	0.43	26.4236	955.0	2.22	Outcome2	0.86	5.1	3.5625	Yes	n/a	4.23556058890147	n/a	n/a	n/a	ShowChoice	Gain
92.135	1.0	0.016	1205.69	60.0	3	5.1	0.43	26.4236	955.0	2.22	Outcome2	0.86	5.1	3.5625	Yes	n/a	4.23556058890147	n/a	n/a	n/a	ShowResult	Gain
93.151	8.0	0.016	1206.706	60.0	3	5.1	0.43	26.4236	955.0	2.22	Outcome2	0.86	5.1	3.5625	Yes	n/a	4.23556058890147	n/a	n/a	n/a	ISITrial	Gain
101.165	3.562	0.014	1214.72	60.0	3	5.1	0.43	26.4236	955.0	2.22	Outcome2	0.86	5.1	3.5625	Yes	n/a	4.23556058890147	n/a	n/a	n/a	TrialHappPreview	Gain
104.747	4.015	0.02	1218.302	60.0	3	5.1	0.43	26.4236	955.0	2.22	Outcome2	0.86	5.1	3.5625	Yes	n/a	4.23556058890147	n/a	n/a	896.0	TrialHappiness	Gain
104.747	2.587	n/a	1219.264	60.0	3	5.1	0.43	26.4236	955.0	2.22	Outcome2	0.86	5.1	3.5625	Yes	n/a	4.23556058890147	n/a	n/a	896.0	TrialHappinessSliderResponse	Gain
108.762	6.25	4.015	1222.317	60.0	3	5.1	0.43	26.4236	955.0	2.22	Outcome2	0.86	5.1	3.5625	Yes	n/a	4.23556058890147	n/a	n/a	n/a	ISIRate	Gain
115.043	3.0	0.031	1228.598	61.0	3	1.3	0.0	26.5861	955.0	0.66	Outcome1	1.3	-1.35	0.0	No	2.0	2.6534541336353303	1.882	116.925	n/a	GetAnswer	Mixed
116.943	4.0	0.018	1230.498	61.0	3	1.3	0.0	26.5861	955.0	0.66	Outcome1	1.3	-1.35	0.0	No	n/a	2.6534541336353303	n/a	n/a	n/a	ShowChoice	Mixed
120.958	1.0	0.015	1234.513	61.0	3	1.3	0.0	26.5861	955.0	0.66	Outcome1	1.3	-1.35	0.0	No	n/a	2.6534541336353303	n/a	n/a	n/a	ShowResult	Mixed
121.974	4.586	0.016	1235.529	61.0	3	1.3	0.0	26.5861	955.0	0.66	Outcome1	1.3	-1.35	0.0	No	n/a	2.6534541336353303	n/a	n/a	n/a	ISITrial	Mixed
126.589	3.0	0.029	1240.144	62.0	3	-0.5	-2.0	26.5236	955.0	0.82	Outcome1	-0.5	-3.22	3.74875	Yes	2.0	2.7202718006795	1.961	128.55	n/a	GetAnswer	Mixed
128.572	4.0	0.022	1242.127	62.0	3	-0.5	-2.0	26.5236	955.0	0.82	Outcome1	-0.5	-3.22	3.74875	Yes	n/a	2.7202718006795	n/a	n/a	n/a	ShowChoice	Mixed
132.587	1.0	0.015	1246.142	62.0	3	-0.5	-2.0	26.5236	955.0	0.82	Outcome1	-0.5	-3.22	3.74875	Yes	n/a	2.7202718006795	n/a	n/a	n/a	ShowResult	Mixed
133.604	5.212	0.017	1247.159	62.0	3	-0.5	-2.0	26.5236	955.0	0.82	Outcome1	-0.5	-3.22	3.74875	Yes	n/a	2.7202718006795	n/a	n/a	n/a	ISITrial	Mixed
138.835	3.749	0.019	1252.39	62.0	3	-0.5	-2.0	26.5236	955.0	0.82	Outcome1	-0.5	-3.22	3.74875	Yes	n/a	2.7202718006795	n/a	n/a	n/a	TrialHappPreview	Mixed
142.6	4.016	0.016	1256.155	62.0	3	-0.5	-2.0	26.5236	955.0	0.82	Outcome1	-0.5	-3.22	3.74875	Yes	n/a	2.7202718006795	n/a	n/a	952.0	TrialHappiness	Mixed
142.601	2.056	n/a	1256.822	62.0	3	-0.5	-2.0	26.5236	955.0	0.82	Outcome1	-0.5	-3.22	3.74875	Yes	n/a	2.7202718006795	n/a	n/a	952.0	TrialHappinessSliderResponse	Mixed
146.616	6.995	4.016	1260.171	62.0	3	-0.5	-2.0	26.5236	955.0	0.82	Outcome1	-0.5	-3.22	3.74875	Yes	n/a	2.7202718006795	n/a	n/a	n/a	ISIRate	Mixed
153.63	3.0	0.019	1267.185	63.0	3	11.7	4.93	27.9861	955.0	3.16	Outcome1	11.7	9.86	0.0	No	2.0	1.83578708946772	1.37	155.0	n/a	GetAnswer	Loss
155.013	4.0	0.012	1268.568	63.0	3	11.7	4.93	27.9861	955.0	3.16	Outcome1	11.7	9.86	0.0	No	n/a	1.83578708946772	n/a	n/a	n/a	ShowChoice	Loss
159.028	1.0	0.015	1272.583	63.0	3	11.7	4.93	27.9861	955.0	3.16	Outcome1	11.7	9.86	0.0	No	n/a	1.83578708946772	n/a	n/a	n/a	ShowResult	Loss
160.044	5.595	0.016	1273.599	63.0	3	11.7	4.93	27.9861	955.0	3.16	Outcome1	11.7	9.86	0.0	No	n/a	1.83578708946772	n/a	n/a	n/a	ISITrial	Loss
165.659	3.0	0.02	1279.214	64.0	3	8.5	3.33	29.0486	955.0	1.68	Outcome2	6.66	8.5	0.0	No	2.0	1.8391845979614896	1.588	167.247	n/a	GetAnswer	Gain
167.275	4.0	0.028	1280.83	64.0	3	8.5	3.33	29.0486	955.0	1.68	Outcome2	6.66	8.5	0.0	No	n/a	1.8391845979614896	n/a	n/a	n/a	ShowChoice	Gain
171.29	1.0	0.015	1284.845	64.0	3	8.5	3.33	29.0486	955.0	1.68	Outcome2	6.66	8.5	0.0	No	n/a	1.8391845979614896	n/a	n/a	n/a	ShowResult	Gain
172.307	5.47	0.017	1285.862	64.0	3	8.5	3.33	29.0486	955.0	1.68	Outcome2	6.66	8.5	0.0	No	n/a	1.8391845979614896	n/a	n/a	n/a	ISITrial	Gain
177.805	3.0	0.028	1291.36	65.0	3	6.3	2.23	29.8361	955.0	5.0	Outcome1	6.3	4.46	2.99675	Yes	2.0	1.84258210645527	1.946	179.751	n/a	GetAnswer	Gain
179.771	4.0	0.02	1293.326	65.0	3	6.3	2.23	29.8361	955.0	5.0	Outcome1	6.3	4.46	2.99675	Yes	n/a	1.84258210645527	n/a	n/a	n/a	ShowChoice	Gain
183.786	1.0	0.015	1297.341	65.0	3	6.3	2.23	29.8361	955.0	5.0	Outcome1	6.3	4.46	2.99675	Yes	n/a	1.84258210645527	n/a	n/a	n/a	ShowResult	Gain
184.802	3.344	0.016	1298.357	65.0	3	6.3	2.23	29.8361	955.0	5.0	Outcome1	6.3	4.46	2.99675	Yes	n/a	1.84258210645527	n/a	n/a	n/a	ISITrial	Gain
188.168	2.997	0.022	1301.723	65.0	3	6.3	2.23	29.8361	955.0	5.0	Outcome1	6.3	4.46	2.99675	Yes	n/a	1.84258210645527	n/a	n/a	n/a	TrialHappPreview	Gain
191.183	4.016	0.018	1304.738	65.0	3	6.3	2.23	29.8361	955.0	5.0	Outcome1	6.3	4.46	2.99675	Yes	n/a	1.84258210645527	n/a	n/a	952.0	TrialHappiness	Gain
191.184	1.623	n/a	1305.206	65.0	3	6.3	2.23	29.8361	955.0	5.0	Outcome1	6.3	4.46	2.99675	Yes	n/a	1.84258210645527	n/a	n/a	952.0	TrialHappinessSliderResponse	Gain
195.199	3.987	4.016	1308.754	65.0	3	6.3	2.23	29.8361	955.0	5.0	Outcome1	6.3	4.46	2.99675	Yes	n/a	1.84258210645527	n/a	n/a	n/a	ISIRate	Gain
199.214	3.0	0.028	1312.769	66.0	3	13.3	5.72	31.4986	955.0	2.48	Outcome1	13.3	11.45	0.0	No	2.0	1.84597961494904	1.259	200.473	n/a	GetAnswer	Loss
200.497	4.0	0.024	1314.052	66.0	3	13.3	5.72	31.4986	955.0	2.48	Outcome1	13.3	11.45	0.0	No	n/a	1.84597961494904	n/a	n/a	n/a	ShowChoice	Loss
204.512	1.0	0.015	1318.067	66.0	3	13.3	5.72	31.4986	955.0	2.48	Outcome1	13.3	11.45	0.0	No	n/a	1.84597961494904	n/a	n/a	n/a	ShowResult	Loss
205.528	3.959	0.016	1319.083	66.0	3	13.3	5.72	31.4986	955.0	2.48	Outcome1	13.3	11.45	0.0	No	n/a	1.84597961494904	n/a	n/a	n/a	ISITrial	Loss
209.51	3.0	0.023	1323.065	67.0	3	8.54	4.27	32.5661	955.0	1.82	Outcome1	8.54	8.7	2.9185	Yes	2.0	-0.1620422801057	2.415	211.925	n/a	GetAnswer	Gain
211.943	4.0	0.018	1325.498	67.0	3	8.54	4.27	32.5661	955.0	1.82	Outcome1	8.54	8.7	2.9185	Yes	n/a	-0.1620422801057	n/a	n/a	n/a	ShowChoice	Gain
215.958	1.0	0.015	1329.513	67.0	3	8.54	4.27	32.5661	955.0	1.82	Outcome1	8.54	8.7	2.9185	Yes	n/a	-0.1620422801057	n/a	n/a	n/a	ShowResult	Gain
216.974	4.199	0.016	1330.529	67.0	3	8.54	4.27	32.5661	955.0	1.82	Outcome1	8.54	8.7	2.9185	Yes	n/a	-0.1620422801057	n/a	n/a	n/a	ISITrial	Gain
221.19	2.918	0.017	1334.745	67.0	3	8.54	4.27	32.5661	955.0	1.82	Outcome1	8.54	8.7	2.9185	Yes	n/a	-0.1620422801057	n/a	n/a	n/a	TrialHappPreview	Gain
224.139	4.015	0.031	1337.694	67.0	3	8.54	4.27	32.5661	955.0	1.82	Outcome1	8.54	8.7	2.9185	Yes	n/a	-0.1620422801057	n/a	n/a	952.0	TrialHappiness	Gain
224.139	1.855	n/a	1338.16	67.0	3	8.54	4.27	32.5661	955.0	1.82	Outcome1	8.54	8.7	2.9185	Yes	n/a	-0.1620422801057	n/a	n/a	952.0	TrialHappinessSliderResponse	Gain
228.154	3.674	4.015	1341.709	67.0	3	8.54	4.27	32.5661	955.0	1.82	Outcome1	8.54	8.7	2.9185	Yes	n/a	-0.1620422801057	n/a	n/a	n/a	ISIRate	Gain
231.853	3.0	0.025	1345.408	68.0	3	9.3	3.72	33.7286	955.0	2.48	Outcome2	7.45	9.3	0.0	No	2.0	1.85277463193658	1.433	233.286	n/a	GetAnswer	Gain
233.302	4.0	0.016	1346.857	68.0	3	9.3	3.72	33.7286	955.0	2.48	Outcome2	7.45	9.3	0.0	No	n/a	1.85277463193658	n/a	n/a	n/a	ShowChoice	Gain
237.317	1.0	0.015	1350.872	68.0	3	9.3	3.72	33.7286	955.0	2.48	Outcome2	7.45	9.3	0.0	No	n/a	1.85277463193658	n/a	n/a	n/a	ShowResult	Gain
238.334	2.185	0.017	1351.889	68.0	3	9.3	3.72	33.7286	955.0	2.48	Outcome2	7.45	9.3	0.0	No	n/a	1.85277463193658	n/a	n/a	n/a	ISITrial	Gain
240.55	3.0	0.031	1354.105	69.0	3	5.7	1.92	34.4411	955.0	3.16	Outcome1	5.7	3.84	0.0	No	2.0	1.85617214043035	1.532	242.082	n/a	GetAnswer	Gain
242.099	4.0	0.017	1355.654	69.0	3	5.7	1.92	34.4411	955.0	3.16	Outcome1	5.7	3.84	0.0	No	n/a	1.85617214043035	n/a	n/a	n/a	ShowChoice	Gain
246.114	1.0	0.015	1359.669	69.0	3	5.7	1.92	34.4411	955.0	3.16	Outcome1	5.7	3.84	0.0	No	n/a	1.85617214043035	n/a	n/a	n/a	ShowResult	Gain
247.131	2.0	0.017	1360.686	69.0	3	5.7	1.92	34.4411	955.0	3.16	Outcome1	5.7	3.84	0.0	No	n/a	1.85617214043035	n/a	n/a	n/a	ISITrial	Gain
249.163	3.0	0.032	1362.718	70.0	3	7.9	3.02	35.4286	955.0	3.6	Outcome1	7.9	6.04	3.65125	Yes	2.0	1.85956964892412	1.27	250.433	n/a	GetAnswer	Gain
250.446	4.0	0.013	1364.001	70.0	3	7.9	3.02	35.4286	955.0	3.6	Outcome1	7.9	6.04	3.65125	Yes	n/a	1.85956964892412	n/a	n/a	n/a	ShowChoice	Gain
254.461	1.0	0.015	1368.016	70.0	3	7.9	3.02	35.4286	955.0	3.6	Outcome1	7.9	6.04	3.65125	Yes	n/a	1.85956964892412	n/a	n/a	n/a	ShowResult	Gain
255.478	2.623	0.017	1369.033	70.0	3	7.9	3.02	35.4286	955.0	3.6	Outcome1	7.9	6.04	3.65125	Yes	n/a	1.85956964892412	n/a	n/a	n/a	ISITrial	Gain
258.127	3.651	0.026	1371.682	70.0	3	7.9	3.02	35.4286	955.0	3.6	Outcome1	7.9	6.04	3.65125	Yes	n/a	1.85956964892412	n/a	n/a	n/a	TrialHappPreview	Gain
261.792	4.015	0.014	1375.347	70.0	3	7.9	3.02	35.4286	955.0	3.6	Outcome1	7.9	6.04	3.65125	Yes	n/a	1.85956964892412	n/a	n/a	952.0	TrialHappiness	Gain
261.793	1.967	n/a	1375.836	70.0	3	7.9	3.02	35.4286	955.0	3.6	Outcome1	7.9	6.04	3.65125	Yes	n/a	1.85956964892412	n/a	n/a	952.0	TrialHappinessSliderResponse	Gain
265.807	6.605	4.015	1379.362	70.0	3	7.9	3.02	35.4286	955.0	3.6	Outcome1	7.9	6.04	3.65125	Yes	n/a	1.85956964892412	n/a	n/a	n/a	ISIRate	Gain
272.438	3.0	0.026	1385.993	71.0	3	7.3	2.72	36.3411	955.0	2.48	Outcome2	5.44	7.3	0.0	No	2.0	1.8629671574178897	1.31	273.748	n/a	GetAnswer	Gain
273.771	4.0	0.023	1387.326	71.0	3	7.3	2.72	36.3411	955.0	2.48	Outcome2	5.44	7.3	0.0	No	n/a	1.8629671574178897	n/a	n/a	n/a	ShowChoice	Gain
277.787	1.0	0.016	1391.342	71.0	3	7.3	2.72	36.3411	955.0	2.48	Outcome2	5.44	7.3	0.0	No	n/a	1.8629671574178897	n/a	n/a	n/a	ShowResult	Gain
278.803	5.499	0.016	1392.358	71.0	3	7.3	2.72	36.3411	955.0	2.48	Outcome2	5.44	7.3	0.0	No	n/a	1.8629671574178897	n/a	n/a	n/a	ISITrial	Gain
284.334	3.0	0.032	1397.889	72.0	3	11.5	4.82	37.7786	955.0	2.8	Outcome2	9.63	11.5	3.0805	Yes	2.0	1.86636466591166	1.098	285.432	n/a	GetAnswer	Loss
285.451	4.0	0.019	1399.006	72.0	3	11.5	4.82	37.7786	955.0	2.8	Outcome2	9.63	11.5	3.0805	Yes	n/a	1.86636466591166	n/a	n/a	n/a	ShowChoice	Loss
289.466	1.0	0.015	1403.021	72.0	3	11.5	4.82	37.7786	955.0	2.8	Outcome2	9.63	11.5	3.0805	Yes	n/a	1.86636466591166	n/a	n/a	n/a	ShowResult	Loss
290.482	5.672	0.016	1404.037	72.0	3	11.5	4.82	37.7786	955.0	2.8	Outcome2	9.63	11.5	3.0805	Yes	n/a	1.86636466591166	n/a	n/a	n/a	ISITrial	Loss
296.18	3.08	0.026	1409.735	72.0	3	11.5	4.82	37.7786	955.0	2.8	Outcome2	9.63	11.5	3.0805	Yes	n/a	1.86636466591166	n/a	n/a	n/a	TrialHappPreview	Loss
299.279	4.015	0.019	1412.834	72.0	3	11.5	4.82	37.7786	955.0	2.8	Outcome2	9.63	11.5	3.0805	Yes	n/a	1.86636466591166	n/a	n/a	952.0	TrialHappiness	Loss
299.28	2.46	n/a	1413.348	72.0	3	11.5	4.82	37.7786	955.0	2.8	Outcome2	9.63	11.5	3.0805	Yes	n/a	1.86636466591166	n/a	n/a	952.0	TrialHappinessSliderResponse	Loss
303.294	4.322	4.015	1416.849	72.0	3	11.5	4.82	37.7786	955.0	2.8	Outcome2	9.63	11.5	3.0805	Yes	n/a	1.86636466591166	n/a	n/a	n/a	ISIRate	Loss
307.643	3.0	0.027	1421.198	73.0	3	7.5	2.82	38.7161	955.0	2.8	Outcome2	5.63	7.5	0.0	No	2.0	1.86976217440544	1.542	309.185	n/a	GetAnswer	Gain
309.209	4.0	0.024	1422.764	73.0	3	7.5	2.82	38.7161	955.0	2.8	Outcome2	5.63	7.5	0.0	No	n/a	1.86976217440544	n/a	n/a	n/a	ShowChoice	Gain
313.224	1.0	0.015	1426.779	73.0	3	7.5	2.82	38.7161	955.0	2.8	Outcome2	5.63	7.5	0.0	No	n/a	1.86976217440544	n/a	n/a	n/a	ShowResult	Gain
314.24	4.616	0.016	1427.795	73.0	3	7.5	2.82	38.7161	955.0	2.8	Outcome2	5.63	7.5	0.0	No	n/a	1.86976217440544	n/a	n/a	n/a	ISITrial	Gain
318.872	3.0	0.016	1432.427	74.0	3	4.1	1.12	39.2286	955.0	1.5	Outcome2	2.23	4.1	3.05625	Yes	2.0	1.8731596828992096	1.471	320.343	n/a	GetAnswer	Mixed
320.355	4.0	0.012	1433.91	74.0	3	4.1	1.12	39.2286	955.0	1.5	Outcome2	2.23	4.1	3.05625	Yes	n/a	1.8731596828992096	n/a	n/a	n/a	ShowChoice	Mixed
324.37	1.0	0.015	1437.925	74.0	3	4.1	1.12	39.2286	955.0	1.5	Outcome2	2.23	4.1	3.05625	Yes	n/a	1.8731596828992096	n/a	n/a	n/a	ShowResult	Mixed
325.387	3.909	0.017	1438.942	74.0	3	4.1	1.12	39.2286	955.0	1.5	Outcome2	2.23	4.1	3.05625	Yes	n/a	1.8731596828992096	n/a	n/a	n/a	ISITrial	Mixed
329.319	3.056	0.023	1442.874	74.0	3	4.1	1.12	39.2286	955.0	1.5	Outcome2	2.23	4.1	3.05625	Yes	n/a	1.8731596828992096	n/a	n/a	n/a	TrialHappPreview	Mixed
332.401	4.015	0.026	1445.956	74.0	3	4.1	1.12	39.2286	955.0	1.5	Outcome2	2.23	4.1	3.05625	Yes	2{-2}	1.8731596828992096	2.005	334.406	952.0	TrialHappiness	Mixed
332.401	1.18	n/a	1446.781	74.0	3	4.1	1.12	39.2286	955.0	1.5	Outcome2	2.23	4.1	3.05625	Yes	n/a	1.8731596828992096	n/a	n/a	952.0	TrialHappinessSliderResponse	Mixed
336.416	4.225	4.015	1449.971	74.0	3	4.1	1.12	39.2286	955.0	1.5	Outcome2	2.23	4.1	3.05625	Yes	n/a	1.8731596828992096	n/a	n/a	n/a	ISIRate	Mixed
340.665	3.0	0.024	1454.22	75.0	3	10.14	5.07	40.4961	955.0	5.0	Outcome1	10.14	10.3	0.0	No	n/a	-0.164307285768214	n/a	n/a	n/a	GetAnswer	Gain
343.68	4.0	0.015	1457.235	75.0	3	10.14	5.07	40.4961	955.0	5.0	Outcome1	10.14	10.3	0.0	No	n/a	-0.164307285768214	n/a	n/a	n/a	ShowChoice	Gain
347.695	1.0	0.015	1461.25	75.0	3	10.14	5.07	40.4961	955.0	5.0	Outcome1	10.14	10.3	0.0	No	n/a	-0.164307285768214	n/a	n/a	n/a	ShowResult	Gain
348.712	4.979	0.017	1462.267	75.0	3	10.14	5.07	40.4961	955.0	5.0	Outcome1	10.14	10.3	0.0	No	n/a	-0.164307285768214	n/a	n/a	n/a	ISITrial	Gain
353.71	3.0	0.019	1467.265	76.0	3	3.1	2.0	40.8836	955.0	0.52	Outcome2	1.22	3.1	0.0	No	2.0	1.87995469988675	1.414	355.124	n/a	GetAnswer	Mixed
355.143	4.0	0.019	1468.698	76.0	3	3.1	2.0	40.8836	955.0	0.52	Outcome2	1.22	3.1	0.0	No	n/a	1.87995469988675	n/a	n/a	n/a	ShowChoice	Mixed
359.158	1.0	0.015	1472.713	76.0	3	3.1	2.0	40.8836	955.0	0.52	Outcome2	1.22	3.1	0.0	No	n/a	1.87995469988675	n/a	n/a	n/a	ShowResult	Mixed
360.174	3.931	0.016	1473.729	76.0	3	3.1	2.0	40.8836	955.0	0.52	Outcome2	1.22	3.1	0.0	No	n/a	1.87995469988675	n/a	n/a	n/a	ISITrial	Mixed
364.123	3.0	0.018	1477.678	77.0	3	-1.1	-2.0	40.7461	955.0	0.4	Outcome1	-1.1	-2.98	4.0	Yes	2.0	1.88335220838052	2.144	366.267	n/a	GetAnswer	Mixed
366.289	4.0	0.022	1479.844	77.0	3	-1.1	-2.0	40.7461	955.0	0.4	Outcome1	-1.1	-2.98	4.0	Yes	n/a	1.88335220838052	n/a	n/a	n/a	ShowChoice	Mixed
370.304	1.0	0.015	1483.859	77.0	3	-1.1	-2.0	40.7461	955.0	0.4	Outcome1	-1.1	-2.98	4.0	Yes	n/a	1.88335220838052	n/a	n/a	n/a	ShowResult	Mixed
371.321	7.022	0.017	1484.876	77.0	3	-1.1	-2.0	40.7461	955.0	0.4	Outcome1	-1.1	-2.98	4.0	Yes	n/a	1.88335220838052	n/a	n/a	n/a	ISITrial	Mixed
378.368	4.0	0.025	1491.923	77.0	3	-1.1	-2.0	40.7461	955.0	0.4	Outcome1	-1.1	-2.98	4.0	Yes	n/a	1.88335220838052	n/a	n/a	n/a	TrialHappPreview	Mixed
382.383	4.016	0.015	1495.938	77.0	3	-1.1	-2.0	40.7461	955.0	0.4	Outcome1	-1.1	-2.98	4.0	Yes	n/a	1.88335220838052	n/a	n/a	804.0	TrialHappiness	Mixed
382.384	2.442	n/a	1496.044	77.0	3	-1.1	-2.0	40.7461	955.0	0.4	Outcome1	-1.1	-2.98	4.0	Yes	n/a	1.88335220838052	n/a	n/a	804.0	TrialHappinessSliderResponse	Mixed
386.399	8.0	4.016	1499.954	77.0	3	-1.1	-2.0	40.7461	955.0	0.4	Outcome1	-1.1	-2.98	4.0	Yes	n/a	1.88335220838052	n/a	n/a	n/a	ISIRate	Mixed
394.429	3.0	0.03	1507.984	78.0	3	1.93	2.0	40.9873	955.0	0.3	Outcome1	1.93	2.7	0.0	No	2.0	-0.7657606644016609	1.398	395.827	n/a	GetAnswer	Mixed
395.845	4.0	0.018	1509.4	78.0	3	1.93	2.0	40.9873	955.0	0.3	Outcome1	1.93	2.7	0.0	No	n/a	-0.7657606644016609	n/a	n/a	n/a	ShowChoice	Mixed
399.861	1.0	0.016	1513.416	78.0	3	1.93	2.0	40.9873	955.0	0.3	Outcome1	1.93	2.7	0.0	No	n/a	-0.7657606644016609	n/a	n/a	n/a	ShowResult	Mixed
400.877	2.078	0.016	1514.432	78.0	3	1.93	2.0	40.9873	955.0	0.3	Outcome1	1.93	2.7	0.0	No	n/a	-0.7657606644016609	n/a	n/a	n/a	ISITrial	Mixed
402.976	3.0	0.021	1516.531	79.0	3	13.1	4.26	42.6248	955.0	2.22	Outcome1	13.1	8.53	2.7295	Yes	2.0	4.57191392978482	1.455	404.431	n/a	GetAnswer	Loss
404.459	4.0	0.028	1518.014	79.0	3	13.1	4.26	42.6248	955.0	2.22	Outcome1	13.1	8.53	2.7295	Yes	n/a	4.57191392978482	n/a	n/a	n/a	ShowChoice	Loss
408.474	1.0	0.015	1522.029	79.0	3	13.1	4.26	42.6248	955.0	2.22	Outcome1	13.1	8.53	2.7295	Yes	n/a	4.57191392978482	n/a	n/a	n/a	ShowResult	Loss
409.491	3.829	0.017	1523.046	79.0	3	13.1	4.26	42.6248	955.0	2.22	Outcome1	13.1	8.53	2.7295	Yes	n/a	4.57191392978482	n/a	n/a	n/a	ISITrial	Loss
413.339	2.73	0.019	1526.894	79.0	3	13.1	4.26	42.6248	955.0	2.22	Outcome1	13.1	8.53	2.7295	Yes	n/a	4.57191392978482	n/a	n/a	n/a	TrialHappPreview	Loss
416.088	4.016	0.019	1529.643	79.0	3	13.1	4.26	42.6248	955.0	2.22	Outcome1	13.1	8.53	2.7295	Yes	n/a	4.57191392978482	n/a	n/a	816.0	TrialHappiness	Loss
416.089	0.783	n/a	1530.783	79.0	3	13.1	4.26	42.6248	955.0	2.22	Outcome1	13.1	8.53	2.7295	Yes	n/a	4.57191392978482	n/a	n/a	816.0	TrialHappinessSliderResponse	Loss
420.104	2.918	4.016	1533.659	79.0	3	13.1	4.26	42.6248	955.0	2.22	Outcome1	13.1	8.53	2.7295	Yes	n/a	4.57191392978482	n/a	n/a	n/a	ISIRate	Loss
423.053	3.0	0.031	1536.608	80.0	3	6.55	3.28	43.4436	955.0	2.48	Outcome1	6.55	7.3	0.0	No	2.0	-0.7455643639109101	1.08	424.133	n/a	GetAnswer	Gain
424.152	4.0	0.019	1537.707	80.0	3	6.55	3.28	43.4436	955.0	2.48	Outcome1	6.55	7.3	0.0	No	n/a	-0.7455643639109101	n/a	n/a	n/a	ShowChoice	Gain
428.167	1.0	0.015	1541.722	80.0	3	6.55	3.28	43.4436	955.0	2.48	Outcome1	6.55	7.3	0.0	No	n/a	-0.7455643639109101	n/a	n/a	n/a	ShowResult	Gain
429.184	3.336	0.017	1542.739	80.0	3	6.55	3.28	43.4436	955.0	2.48	Outcome1	6.55	7.3	0.0	No	n/a	-0.7455643639109101	n/a	n/a	n/a	ISITrial	Gain
432.549	3.0	0.029	1546.104	81.0	3	1.9	0.0	43.6811	955.0	1.2	Outcome2	-2.8	1.9	3.92375	Yes	2.0	4.6964892412231	0.992	433.541	n/a	GetAnswer	Mixed
433.566	4.0	0.025	1547.121	81.0	3	1.9	0.0	43.6811	955.0	1.2	Outcome2	-2.8	1.9	3.92375	Yes	n/a	4.6964892412231	n/a	n/a	n/a	ShowChoice	Mixed
437.581	1.0	0.015	1551.136	81.0	3	1.9	0.0	43.6811	955.0	1.2	Outcome2	-2.8	1.9	3.92375	Yes	n/a	4.6964892412231	n/a	n/a	n/a	ShowResult	Mixed
438.597	3.919	0.016	1552.152	81.0	3	1.9	0.0	43.6811	955.0	1.2	Outcome2	-2.8	1.9	3.92375	Yes	n/a	4.6964892412231	n/a	n/a	n/a	ISITrial	Mixed
442.529	3.924	0.013	1556.084	81.0	3	1.9	0.0	43.6811	955.0	1.2	Outcome2	-2.8	1.9	3.92375	Yes	n/a	4.6964892412231	n/a	n/a	n/a	TrialHappPreview	Mixed
446.478	4.015	0.025	1560.033	81.0	3	1.9	0.0	43.6811	955.0	1.2	Outcome2	-2.8	1.9	3.92375	Yes	n/a	4.6964892412231	n/a	n/a	848.0	TrialHappiness	Mixed
446.478	1.203	n/a	1560.753	81.0	3	1.9	0.0	43.6811	955.0	1.2	Outcome2	-2.8	1.9	3.92375	Yes	n/a	4.6964892412231	n/a	n/a	848.0	TrialHappinessSliderResponse	Mixed
450.493	7.695	4.015	1564.048	81.0	3	1.9	0.0	43.6811	955.0	1.2	Outcome2	-2.8	1.9	3.92375	Yes	n/a	4.6964892412231	n/a	n/a	n/a	ISIRate	Mixed
458.207	3.0	0.019	1571.762	n/a	3	n/a	n/a	n/a	n/a	n/a	n/a	n/a	n/a	n/a	n/a	n/a	n/a	n/a	n/a	n/a	CurrentEarnings	n/a
461.223	-0.001	0.016	1574.778	n/a	3	n/a	n/a	n/a	n/a	n/a	n/a	n/a	n/a	n/a	n/a	{SPACE}	n/a	36.493	497.716	n/a	Goodbye	n/a
