onset	duration	onset_delay	onset_unadjusted	trial_number	block	amount_change	certain_amount	current_amount	mood_target	multiplier	outcome	outcome1_amount	outcome2_amount	question_duration	rating	response	rpe	rt	rt_time	slider_response	trial_phase	trial_type
-185.376	-0.001	0.019	26.981	n/a	0	n/a	n/a	n/a	n/a	n/a	n/a	n/a	n/a	n/a	n/a	{SPACE}	n/a	4.59	-180.786	n/a	Welcome	n/a
-180.759	5.0	0.027	31.598	n/a	0	n/a	n/a	n/a	n/a	n/a	n/a	n/a	n/a	n/a	n/a	n/a	n/a	n/a	n/a	n/a	LifeHappyPreview	n/a
-175.727	1.026	0.032	36.63	n/a	0	n/a	n/a	n/a	n/a	n/a	n/a	n/a	n/a	n/a	n/a	2{-2}	n/a	1.026	-174.701	728.0	LifeHappiness	n/a
-175.727	0.596	n/a	37.06	n/a	0	n/a	n/a	n/a	n/a	n/a	n/a	n/a	n/a	n/a	n/a	n/a	n/a	n/a	n/a	728.0	LifeHappinessSliderResponse	n/a
-168.639	4.0	0.019	43.718	n/a	0	n/a	n/a	n/a	n/a	n/a	n/a	n/a	n/a	n/a	n/a	n/a	n/a	n/a	n/a	n/a	BlockHappyPreview	n/a
-164.627	1.175	0.012	47.73	n/a	0	n/a	n/a	n/a	n/a	n/a	n/a	n/a	n/a	n/a	n/a	n/a	n/a	n/a	n/a	736.0	BlockStartHappiness	n/a
-164.627	0.608	n/a	48.297	n/a	0	n/a	n/a	n/a	n/a	n/a	n/a	n/a	n/a	n/a	n/a	n/a	n/a	n/a	n/a	736.0	BlockStartHappinessSliderResponse	n/a
-2.591	-0.001	0.021	209.766	n/a	0	n/a	n/a	n/a	n/a	n/a	n/a	n/a	n/a	n/a	n/a	5.0	n/a	2.564	-0.027	n/a	ScanWait	n/a
0.0	10.0	0.027	212.357	n/a	1	n/a	n/a	n/a	n/a	n/a	n/a	n/a	n/a	n/a	n/a	n/a	n/a	n/a	n/a	n/a	GetReady	n/a
10.03	3.0	0.03	222.387	1.0	1	1.5	0.0	10.1875	955.0	0.82	Outcome1	1.5	-2.22	0.0	No	2.0	3.7202718006795	1.766	11.796	n/a	GetAnswer	Mixed
11.819	4.0	0.023	224.176	1.0	1	1.5	0.0	10.1875	955.0	0.82	Outcome1	1.5	-2.22	0.0	No	n/a	3.7202718006795	n/a	n/a	n/a	ShowChoice	Mixed
15.847	1.0	0.028	228.204	1.0	1	1.5	0.0	10.1875	955.0	0.82	Outcome1	1.5	-2.22	0.0	No	n/a	3.7202718006795	n/a	n/a	n/a	ShowResult	Mixed
16.867	2.431	0.02	229.224	1.0	1	1.5	0.0	10.1875	955.0	0.82	Outcome1	1.5	-2.22	0.0	No	n/a	3.7202718006795	n/a	n/a	n/a	ISITrial	Mixed
19.325	3.0	0.027	231.682	2.0	1	-0.7	-2.0	10.1	955.0	0.66	Outcome2	-4.67	-0.7	0.0	No	2.0	3.9682899207248	2.048	21.373	n/a	GetAnswer	Mixed
21.397	4.0	0.023	233.754	2.0	1	-0.7	-2.0	10.1	955.0	0.66	Outcome2	-4.67	-0.7	0.0	No	n/a	3.9682899207248	n/a	n/a	n/a	ShowChoice	Mixed
25.426	1.0	0.029	237.783	2.0	1	-0.7	-2.0	10.1	955.0	0.66	Outcome2	-4.67	-0.7	0.0	No	n/a	3.9682899207248	n/a	n/a	n/a	ShowResult	Mixed
26.446	4.568	0.02	238.803	2.0	1	-0.7	-2.0	10.1	955.0	0.66	Outcome2	-4.67	-0.7	0.0	No	n/a	3.9682899207248	n/a	n/a	n/a	ISITrial	Mixed
31.043	3.0	0.029	243.4	3.0	1	6.3	1.04	10.8875	955.0	5.0	Outcome1	6.3	2.08	2.868	Yes	2.0	4.216308040770101	1.548	32.591	n/a	GetAnswer	Gain
32.614	4.0	0.023	244.971	3.0	1	6.3	1.04	10.8875	955.0	5.0	Outcome1	6.3	2.08	2.868	Yes	n/a	4.216308040770101	n/a	n/a	n/a	ShowChoice	Gain
36.643	1.0	0.029	249.0	3.0	1	6.3	1.04	10.8875	955.0	5.0	Outcome1	6.3	2.08	2.868	Yes	n/a	4.216308040770101	n/a	n/a	n/a	ShowResult	Gain
37.663	3.243	0.02	250.02	3.0	1	6.3	1.04	10.8875	955.0	5.0	Outcome1	6.3	2.08	2.868	Yes	n/a	4.216308040770101	n/a	n/a	n/a	ISITrial	Gain
40.923	2.868	0.017	253.28	3.0	1	6.3	1.04	10.8875	955.0	5.0	Outcome1	6.3	2.08	2.868	Yes	n/a	4.216308040770101	n/a	n/a	n/a	TrialHappPreview	Gain
43.815	4.028	0.024	256.172	3.0	1	6.3	1.04	10.8875	955.0	5.0	Outcome1	6.3	2.08	2.868	Yes	n/a	4.216308040770101	n/a	n/a	728.0	TrialHappiness	Gain
43.815	0.587	n/a	256.56	3.0	1	6.3	1.04	10.8875	955.0	5.0	Outcome1	6.3	2.08	2.868	Yes	n/a	4.216308040770101	n/a	n/a	728.0	TrialHappinessSliderResponse	Gain
47.843	3.472	4.028	260.2	3.0	1	6.3	1.04	10.8875	955.0	5.0	Outcome1	6.3	2.08	2.868	Yes	n/a	4.216308040770101	n/a	n/a	n/a	ISIRate	Gain
51.337	3.0	0.022	263.694	4.0	1	9.3	2.35	12.05	955.0	2.48	Outcome2	4.7	9.3	0.0	No	2.0	4.60022650056625	1.091	52.428	n/a	GetAnswer	Gain
52.457	4.0	0.029	264.814	4.0	1	9.3	2.35	12.05	955.0	2.48	Outcome2	4.7	9.3	0.0	No	n/a	4.60022650056625	n/a	n/a	n/a	ShowChoice	Gain
56.469	1.0	0.012	268.826	4.0	1	9.3	2.35	12.05	955.0	2.48	Outcome2	4.7	9.3	0.0	No	n/a	4.60022650056625	n/a	n/a	n/a	ShowResult	Gain
57.489	2.011	0.02	269.846	4.0	1	9.3	2.35	12.05	955.0	2.48	Outcome2	4.7	9.3	0.0	No	n/a	4.60022650056625	n/a	n/a	n/a	ISITrial	Gain
59.529	3.0	0.029	271.886	5.0	1	2.0	2.0	12.3	955.0	1.82	Certain	-0.16	4.7	2.5825	Yes	4.0	4.85730464326161	2.721	62.25	n/a	GetAnswer	Gain
62.27	4.0	0.02	274.627	5.0	1	2.0	2.0	12.3	955.0	1.82	Certain	-0.16	4.7	2.5825	Yes	n/a	4.85730464326161	n/a	n/a	n/a	ShowChoice	Gain
66.299	1.0	0.029	278.656	5.0	1	2.0	2.0	12.3	955.0	1.82	Certain	-0.16	4.7	2.5825	Yes	n/a	4.85730464326161	n/a	n/a	n/a	ShowResult	Gain
67.319	5.129	0.02	279.676	5.0	1	2.0	2.0	12.3	955.0	1.82	Certain	-0.16	4.7	2.5825	Yes	n/a	4.85730464326161	n/a	n/a	n/a	ISITrial	Gain
72.467	2.582	0.019	284.824	5.0	1	2.0	2.0	12.3	955.0	1.82	Certain	-0.16	4.7	2.5825	Yes	n/a	4.85730464326161	n/a	n/a	n/a	TrialHappPreview	Gain
75.075	4.029	0.026	287.432	5.0	1	2.0	2.0	12.3	955.0	1.82	Certain	-0.16	4.7	2.5825	Yes	n/a	4.85730464326161	n/a	n/a	744.0	TrialHappiness	Gain
75.076	0.626	n/a	288.033	5.0	1	2.0	2.0	12.3	955.0	1.82	Certain	-0.16	4.7	2.5825	Yes	n/a	4.85730464326161	n/a	n/a	744.0	TrialHappinessSliderResponse	Gain
79.104	2.33	4.029	291.461	5.0	1	2.0	2.0	12.3	955.0	1.82	Certain	-0.16	4.7	2.5825	Yes	n/a	4.85730464326161	n/a	n/a	n/a	ISIRate	Gain
81.461	3.0	0.027	293.818	6.0	1	2.34	1.17	12.5925	955.0	0.66	Outcome1	2.34	3.3	0.0	No	2.0	-0.9611174027935072	0.934	82.395	n/a	GetAnswer	Mixed
82.414	4.0	0.019	294.771	6.0	1	2.34	1.17	12.5925	955.0	0.66	Outcome1	2.34	3.3	0.0	No	n/a	-0.9611174027935072	n/a	n/a	n/a	ShowChoice	Mixed
86.443	1.0	0.029	298.8	6.0	1	2.34	1.17	12.5925	955.0	0.66	Outcome1	2.34	3.3	0.0	No	n/a	-0.9611174027935072	n/a	n/a	n/a	ShowResult	Mixed
87.462	6.232	0.019	299.819	6.0	1	2.34	1.17	12.5925	955.0	0.66	Outcome1	2.34	3.3	0.0	No	n/a	-0.9611174027935072	n/a	n/a	n/a	ISITrial	Mixed
93.714	3.0	0.02	306.071	7.0	1	1.9	0.0	12.83	955.0	1.2	Outcome2	-3.18	1.9	0.0	No	2.0	5.081540203850509	1.879	95.593	n/a	GetAnswer	Mixed
95.62	4.0	0.026	307.977	7.0	1	1.9	0.0	12.83	955.0	1.2	Outcome2	-3.18	1.9	0.0	No	n/a	5.081540203850509	n/a	n/a	n/a	ShowChoice	Mixed
99.649	1.0	0.029	312.006	7.0	1	1.9	0.0	12.83	955.0	1.2	Outcome2	-3.18	1.9	0.0	No	n/a	5.081540203850509	n/a	n/a	n/a	ShowResult	Mixed
100.669	2.305	0.02	313.026	7.0	1	1.9	0.0	12.83	955.0	1.2	Outcome2	-3.18	1.9	0.0	No	n/a	5.081540203850509	n/a	n/a	n/a	ISITrial	Mixed
102.992	3.0	0.018	315.349	8.0	1	10.9	2.79	14.1925	955.0	2.0	Outcome2	5.58	10.9	3.1125	Yes	2.0	5.32049830124575	0.912	103.904	n/a	GetAnswer	Loss
103.928	4.0	0.024	316.285	8.0	1	10.9	2.79	14.1925	955.0	2.0	Outcome2	5.58	10.9	3.1125	Yes	n/a	5.32049830124575	n/a	n/a	n/a	ShowChoice	Loss
107.94	1.0	0.012	320.297	8.0	1	10.9	2.79	14.1925	955.0	2.0	Outcome2	5.58	10.9	3.1125	Yes	n/a	5.32049830124575	n/a	n/a	n/a	ShowResult	Loss
108.96	3.506	0.02	321.317	8.0	1	10.9	2.79	14.1925	955.0	2.0	Outcome2	5.58	10.9	3.1125	Yes	n/a	5.32049830124575	n/a	n/a	n/a	ISITrial	Loss
112.487	3.112	0.021	324.844	8.0	1	10.9	2.79	14.1925	955.0	2.0	Outcome2	5.58	10.9	3.1125	Yes	n/a	5.32049830124575	n/a	n/a	n/a	TrialHappPreview	Loss
115.63	4.029	0.031	327.987	8.0	1	10.9	2.79	14.1925	955.0	2.0	Outcome2	5.58	10.9	3.1125	Yes	n/a	5.32049830124575	n/a	n/a	784.0	TrialHappiness	Loss
115.631	0.721	n/a	328.527	8.0	1	10.9	2.79	14.1925	955.0	2.0	Outcome2	5.58	10.9	3.1125	Yes	n/a	5.32049830124575	n/a	n/a	784.0	TrialHappinessSliderResponse	Loss
119.659	4.45	4.029	332.016	8.0	1	10.9	2.79	14.1925	955.0	2.0	Outcome2	5.58	10.9	3.1125	Yes	n/a	5.32049830124575	n/a	n/a	n/a	ISIRate	Loss
124.139	3.0	0.03	336.496	9.0	1	0.1	-2.0	14.205	955.0	1.5	Outcome1	0.1	-4.78	0.0	No	n/a	4.87995469988675	n/a	n/a	n/a	GetAnswer	Mixed
127.165	4.0	0.026	339.522	9.0	1	0.1	-2.0	14.205	955.0	1.5	Outcome1	0.1	-4.78	0.0	No	n/a	4.87995469988675	n/a	n/a	n/a	ShowChoice	Mixed
131.193	1.0	0.028	343.55	9.0	1	0.1	-2.0	14.205	955.0	1.5	Outcome1	0.1	-4.78	0.0	No	n/a	4.87995469988675	n/a	n/a	n/a	ShowResult	Mixed
132.213	2.0	0.02	344.57	9.0	1	0.1	-2.0	14.205	955.0	1.5	Outcome1	0.1	-4.78	0.0	No	n/a	4.87995469988675	n/a	n/a	n/a	ISITrial	Mixed
134.236	3.0	0.023	346.593	10.0	1	12.7	3.82	15.7925	955.0	1.82	Outcome1	12.7	7.63	4.0	Yes	2.0	5.07361268403171	1.354	135.59	n/a	GetAnswer	Loss
135.607	4.0	0.017	347.964	10.0	1	12.7	3.82	15.7925	955.0	1.82	Outcome1	12.7	7.63	4.0	Yes	n/a	5.07361268403171	n/a	n/a	n/a	ShowChoice	Loss
139.635	1.0	0.028	351.992	10.0	1	12.7	3.82	15.7925	955.0	1.82	Outcome1	12.7	7.63	4.0	Yes	n/a	5.07361268403171	n/a	n/a	n/a	ShowResult	Loss
140.655	2.0	0.02	353.012	10.0	1	12.7	3.82	15.7925	955.0	1.82	Outcome1	12.7	7.63	4.0	Yes	n/a	5.07361268403171	n/a	n/a	n/a	ISITrial	Loss
142.678	4.0	0.023	355.035	10.0	1	12.7	3.82	15.7925	955.0	1.82	Outcome1	12.7	7.63	4.0	Yes	n/a	5.07361268403171	n/a	n/a	n/a	TrialHappPreview	Loss
146.707	4.028	0.029	359.064	10.0	1	12.7	3.82	15.7925	955.0	1.82	Outcome1	12.7	7.63	4.0	Yes	n/a	5.07361268403171	n/a	n/a	768.0	TrialHappiness	Loss
146.707	1.245	n/a	359.698	10.0	1	12.7	3.82	15.7925	955.0	1.82	Outcome1	12.7	7.63	4.0	Yes	n/a	5.07361268403171	n/a	n/a	768.0	TrialHappinessSliderResponse	Loss
150.735	8.0	4.028	363.092	10.0	1	12.7	3.82	15.7925	955.0	1.82	Outcome1	12.7	7.63	4.0	Yes	n/a	5.07361268403171	n/a	n/a	n/a	ISIRate	Loss
158.76	3.0	0.025	371.117	11.0	1	2.1	0.0	16.055	955.0	1.5	Outcome1	2.1	-3.44	0.0	No	2.0	5.53907134767837	1.723	160.483	n/a	GetAnswer	Mixed
160.498	4.0	0.015	372.855	11.0	1	2.1	0.0	16.055	955.0	1.5	Outcome1	2.1	-3.44	0.0	No	n/a	5.53907134767837	n/a	n/a	n/a	ShowChoice	Mixed
164.51	1.0	0.012	376.867	11.0	1	2.1	0.0	16.055	955.0	1.5	Outcome1	2.1	-3.44	0.0	No	n/a	5.53907134767837	n/a	n/a	n/a	ShowResult	Mixed
165.53	3.324	0.02	377.887	11.0	1	2.1	0.0	16.055	955.0	1.5	Outcome1	2.1	-3.44	0.0	No	n/a	5.53907134767837	n/a	n/a	n/a	ISITrial	Mixed
168.873	3.0	0.019	381.23	12.0	1	13.9	4.08	17.7925	955.0	3.6	Outcome2	8.15	13.9	2.61875	Yes	2.0	5.750849377123441	0.991	169.864	n/a	GetAnswer	Loss
169.893	4.0	0.028	382.25	12.0	1	13.9	4.08	17.7925	955.0	3.6	Outcome2	8.15	13.9	2.61875	Yes	n/a	5.750849377123441	n/a	n/a	n/a	ShowChoice	Loss
173.922	1.0	0.029	386.279	12.0	1	13.9	4.08	17.7925	955.0	3.6	Outcome2	8.15	13.9	2.61875	Yes	n/a	5.750849377123441	n/a	n/a	n/a	ShowResult	Loss
174.941	6.642	0.019	387.298	12.0	1	13.9	4.08	17.7925	955.0	3.6	Outcome2	8.15	13.9	2.61875	Yes	n/a	5.750849377123441	n/a	n/a	n/a	ISITrial	Loss
181.611	2.619	0.028	393.968	12.0	1	13.9	4.08	17.7925	955.0	3.6	Outcome2	8.15	13.9	2.61875	Yes	n/a	5.750849377123441	n/a	n/a	n/a	TrialHappPreview	Loss
184.253	4.028	0.023	396.61	12.0	1	13.9	4.08	17.7925	955.0	3.6	Outcome2	8.15	13.9	2.61875	Yes	2{-2}	5.750849377123441	1.309	185.562	840.0	TrialHappiness	Loss
184.253	0.824	n/a	397.095	12.0	1	13.9	4.08	17.7925	955.0	3.6	Outcome2	8.15	13.9	2.61875	Yes	n/a	5.750849377123441	n/a	n/a	840.0	TrialHappinessSliderResponse	Loss
188.281	2.475	4.028	400.638	12.0	1	13.9	4.08	17.7925	955.0	3.6	Outcome2	8.15	13.9	2.61875	Yes	n/a	5.750849377123441	n/a	n/a	n/a	ISIRate	Loss
190.789	3.0	0.033	403.146	13.0	1	10.3	2.78	19.08	955.0	5.0	Outcome2	5.56	10.3	0.0	No	2.0	4.73952434881087	0.817	191.606	n/a	GetAnswer	Gain
191.625	4.0	0.019	403.982	13.0	1	10.3	2.78	19.08	955.0	5.0	Outcome2	5.56	10.3	0.0	No	n/a	4.73952434881087	n/a	n/a	n/a	ShowChoice	Gain
195.654	1.0	0.029	408.011	13.0	1	10.3	2.78	19.08	955.0	5.0	Outcome2	5.56	10.3	0.0	No	n/a	4.73952434881087	n/a	n/a	n/a	ShowResult	Gain
196.673	3.48	0.019	409.03	13.0	1	10.3	2.78	19.08	955.0	5.0	Outcome2	5.56	10.3	0.0	No	n/a	4.73952434881087	n/a	n/a	n/a	ISITrial	Gain
200.184	3.0	0.031	412.541	14.0	1	2.79	1.4	19.4288	955.0	0.82	Outcome1	2.79	3.5	0.0	No	2.0	-0.7097017742544359	1.369	201.553	n/a	GetAnswer	Mixed
201.571	4.0	0.018	413.928	14.0	1	2.79	1.4	19.4288	955.0	0.82	Outcome1	2.79	3.5	0.0	No	n/a	-0.7097017742544359	n/a	n/a	n/a	ShowChoice	Mixed
205.583	1.0	0.012	417.94	14.0	1	2.79	1.4	19.4288	955.0	0.82	Outcome1	2.79	3.5	0.0	No	n/a	-0.7097017742544359	n/a	n/a	n/a	ShowResult	Mixed
206.603	5.019	0.02	418.96	14.0	1	2.79	1.4	19.4288	955.0	0.82	Outcome1	2.79	3.5	0.0	No	n/a	-0.7097017742544359	n/a	n/a	n/a	ISITrial	Mixed
211.652	3.0	0.03	424.009	15.0	1	2.38	2.0	19.7263	955.0	0.52	Outcome2	3.1	2.38	3.3485	Yes	2.0	-0.720554926387316	1.463	213.115	n/a	GetAnswer	Mixed
213.139	4.0	0.024	425.496	15.0	1	2.38	2.0	19.7263	955.0	0.52	Outcome2	3.1	2.38	3.3485	Yes	n/a	-0.720554926387316	n/a	n/a	n/a	ShowChoice	Mixed
217.168	1.0	0.029	429.525	15.0	1	2.38	2.0	19.7263	955.0	0.52	Outcome2	3.1	2.38	3.3485	Yes	n/a	-0.720554926387316	n/a	n/a	n/a	ShowResult	Mixed
218.188	7.614	0.02	430.545	15.0	1	2.38	2.0	19.7263	955.0	0.52	Outcome2	3.1	2.38	3.3485	Yes	n/a	-0.720554926387316	n/a	n/a	n/a	ISITrial	Mixed
225.827	3.348	0.025	438.184	15.0	1	2.38	2.0	19.7263	955.0	0.52	Outcome2	3.1	2.38	3.3485	Yes	n/a	-0.720554926387316	n/a	n/a	n/a	TrialHappPreview	Mixed
229.204	4.029	0.029	441.561	15.0	1	2.38	2.0	19.7263	955.0	0.52	Outcome2	3.1	2.38	3.3485	Yes	n/a	-0.720554926387316	n/a	n/a	896.0	TrialHappiness	Mixed
229.205	3.117	n/a	442.163	15.0	1	2.38	2.0	19.7263	955.0	0.52	Outcome2	3.1	2.38	3.3485	Yes	n/a	-0.720554926387316	n/a	n/a	896.0	TrialHappinessSliderResponse	Mixed
233.233	5.394	4.029	445.59	15.0	1	2.38	2.0	19.7263	955.0	0.52	Outcome2	3.1	2.38	3.3485	Yes	n/a	-0.720554926387316	n/a	n/a	n/a	ISIRate	Mixed
238.649	3.0	0.022	451.006	16.0	1	6.5	1.16	20.5388	955.0	1.68	Outcome2	2.32	6.5	0.0	No	2.0	4.17893544733862	0.964	239.613	n/a	GetAnswer	Gain
239.635	4.0	0.022	451.992	16.0	1	6.5	1.16	20.5388	955.0	1.68	Outcome2	2.32	6.5	0.0	No	n/a	4.17893544733862	n/a	n/a	n/a	ShowChoice	Gain
243.664	1.0	0.029	456.021	16.0	1	6.5	1.16	20.5388	955.0	1.68	Outcome2	2.32	6.5	0.0	No	n/a	4.17893544733862	n/a	n/a	n/a	ShowResult	Gain
244.684	3.008	0.02	457.041	16.0	1	6.5	1.16	20.5388	955.0	1.68	Outcome2	2.32	6.5	0.0	No	n/a	4.17893544733862	n/a	n/a	n/a	ISITrial	Gain
247.726	3.0	0.034	460.083	17.0	1	9.9	2.82	21.7763	955.0	3.6	Outcome1	9.9	5.65	3.0415	Yes	2.0	4.24575311438279	0.644	248.37	n/a	GetAnswer	Gain
248.395	4.0	0.024	460.752	17.0	1	9.9	2.82	21.7763	955.0	3.6	Outcome1	9.9	5.65	3.0415	Yes	n/a	4.24575311438279	n/a	n/a	n/a	ShowChoice	Gain
252.407	1.0	0.012	464.764	17.0	1	9.9	2.82	21.7763	955.0	3.6	Outcome1	9.9	5.65	3.0415	Yes	n/a	4.24575311438279	n/a	n/a	n/a	ShowResult	Gain
253.427	3.566	0.02	465.784	17.0	1	9.9	2.82	21.7763	955.0	3.6	Outcome1	9.9	5.65	3.0415	Yes	n/a	4.24575311438279	n/a	n/a	n/a	ISITrial	Gain
257.021	3.042	0.028	469.378	17.0	1	9.9	2.82	21.7763	955.0	3.6	Outcome1	9.9	5.65	3.0415	Yes	n/a	4.24575311438279	n/a	n/a	n/a	TrialHappPreview	Gain
260.08	4.029	0.017	472.437	17.0	1	9.9	2.82	21.7763	955.0	3.6	Outcome1	9.9	5.65	3.0415	Yes	n/a	4.24575311438279	n/a	n/a	744.0	TrialHappiness	Gain
260.081	1.072	n/a	473.146	17.0	1	9.9	2.82	21.7763	955.0	3.6	Outcome1	9.9	5.65	3.0415	Yes	n/a	4.24575311438279	n/a	n/a	744.0	TrialHappinessSliderResponse	Gain
264.109	4.166	4.029	476.466	17.0	1	9.9	2.82	21.7763	955.0	3.6	Outcome1	9.9	5.65	3.0415	Yes	n/a	4.24575311438279	n/a	n/a	n/a	ISIRate	Gain
268.305	3.0	0.03	480.662	18.0	1	12.9	3.0	23.3888	955.0	2.0	Outcome2	6.01	12.9	0.0	No	2.0	6.894677236693091	0.873	269.178	n/a	GetAnswer	Loss
269.208	4.0	0.03	481.565	18.0	1	12.9	3.0	23.3888	955.0	2.0	Outcome2	6.01	12.9	0.0	No	n/a	6.894677236693091	n/a	n/a	n/a	ShowChoice	Loss
273.236	1.0	0.028	485.593	18.0	1	12.9	3.0	23.3888	955.0	2.0	Outcome2	6.01	12.9	0.0	No	n/a	6.894677236693091	n/a	n/a	n/a	ShowResult	Loss
274.256	6.787	0.02	486.613	18.0	1	12.9	3.0	23.3888	955.0	2.0	Outcome2	6.01	12.9	0.0	No	n/a	6.894677236693091	n/a	n/a	n/a	ISITrial	Loss
281.076	3.0	0.033	493.433	19.0	1	7.5	0.18	24.3263	955.0	2.8	Outcome2	0.37	7.5	0.0	No	2.0	7.13363533408834	0.687	281.763	n/a	GetAnswer	Gain
281.779	4.0	0.016	494.136	19.0	1	7.5	0.18	24.3263	955.0	2.8	Outcome2	0.37	7.5	0.0	No	n/a	7.13363533408834	n/a	n/a	n/a	ShowChoice	Gain
285.807	1.0	0.028	498.164	19.0	1	7.5	0.18	24.3263	955.0	2.8	Outcome2	0.37	7.5	0.0	No	n/a	7.13363533408834	n/a	n/a	n/a	ShowResult	Gain
286.827	2.0	0.02	499.184	19.0	1	7.5	0.18	24.3263	955.0	2.8	Outcome2	0.37	7.5	0.0	No	n/a	7.13363533408834	n/a	n/a	n/a	ISITrial	Gain
288.85	3.0	0.023	501.207	20.0	1	2.53	1.26	24.6426	955.0	1.0	Outcome1	2.53	3.7	2.92125	Yes	2.0	-1.1719516798792	1.073	289.923	n/a	GetAnswer	Mixed
289.953	4.0	0.03	502.31	20.0	1	2.53	1.26	24.6426	955.0	1.0	Outcome1	2.53	3.7	2.92125	Yes	n/a	-1.1719516798792	n/a	n/a	n/a	ShowChoice	Mixed
293.965	1.0	0.012	506.322	20.0	1	2.53	1.26	24.6426	955.0	1.0	Outcome1	2.53	3.7	2.92125	Yes	n/a	-1.1719516798792	n/a	n/a	n/a	ShowResult	Mixed
294.985	8.0	0.02	507.342	20.0	1	2.53	1.26	24.6426	955.0	1.0	Outcome1	2.53	3.7	2.92125	Yes	n/a	-1.1719516798792	n/a	n/a	n/a	ISITrial	Mixed
303.009	2.921	0.024	515.366	20.0	1	2.53	1.26	24.6426	955.0	1.0	Outcome1	2.53	3.7	2.92125	Yes	n/a	-1.1719516798792	n/a	n/a	n/a	TrialHappPreview	Mixed
305.951	4.012	0.021	518.308	20.0	1	2.53	1.26	24.6426	955.0	1.0	Outcome1	2.53	3.7	2.92125	Yes	n/a	-1.1719516798792	n/a	n/a	704.0	TrialHappiness	Mixed
305.952	0.552	n/a	519.067	20.0	1	2.53	1.26	24.6426	955.0	1.0	Outcome1	2.53	3.7	2.92125	Yes	n/a	-1.1719516798792	n/a	n/a	704.0	TrialHappinessSliderResponse	Mixed
309.963	3.685	4.012	522.32	20.0	1	2.53	1.26	24.6426	955.0	1.0	Outcome1	2.53	3.7	2.92125	Yes	n/a	-1.1719516798792	n/a	n/a	n/a	ISIRate	Mixed
313.674	3.0	0.026	526.031	21.0	1	-1.1	-5.0	24.5051	955.0	0.4	Outcome2	-9.39	-1.1	0.0	No	2.0	8.29105322763307	1.556	315.23	n/a	GetAnswer	Mixed
315.246	4.0	0.016	527.603	21.0	1	-1.1	-5.0	24.5051	955.0	0.4	Outcome2	-9.39	-1.1	0.0	No	n/a	8.29105322763307	n/a	n/a	n/a	ShowChoice	Mixed
319.258	1.0	0.012	531.615	21.0	1	-1.1	-5.0	24.5051	955.0	0.4	Outcome2	-9.39	-1.1	0.0	No	n/a	8.29105322763307	n/a	n/a	n/a	ShowResult	Mixed
320.277	3.555	0.019	532.634	21.0	1	-1.1	-5.0	24.5051	955.0	0.4	Outcome2	-9.39	-1.1	0.0	No	n/a	8.29105322763307	n/a	n/a	n/a	ISITrial	Mixed
323.855	3.0	0.023	536.212	22.0	1	11.1	1.26	25.8926	955.0	2.22	Outcome2	2.52	11.1	3.2195	Yes	2.0	8.57531143827859	0.968	324.823	n/a	GetAnswer	Loss
324.841	4.0	0.018	537.198	22.0	1	11.1	1.26	25.8926	955.0	2.22	Outcome2	2.52	11.1	3.2195	Yes	n/a	8.57531143827859	n/a	n/a	n/a	ShowChoice	Loss
328.853	1.0	0.012	541.21	22.0	1	11.1	1.26	25.8926	955.0	2.22	Outcome2	2.52	11.1	3.2195	Yes	n/a	8.57531143827859	n/a	n/a	n/a	ShowResult	Loss
329.873	6.793	0.02	542.23	22.0	1	11.1	1.26	25.8926	955.0	2.22	Outcome2	2.52	11.1	3.2195	Yes	n/a	8.57531143827859	n/a	n/a	n/a	ISITrial	Loss
336.693	3.22	0.027	549.05	22.0	1	11.1	1.26	25.8926	955.0	2.22	Outcome2	2.52	11.1	3.2195	Yes	n/a	8.57531143827859	n/a	n/a	n/a	TrialHappPreview	Loss
339.936	4.012	0.023	552.293	22.0	1	11.1	1.26	25.8926	955.0	2.22	Outcome2	2.52	11.1	3.2195	Yes	n/a	8.57531143827859	n/a	n/a	736.0	TrialHappiness	Loss
339.937	1.2	n/a	552.823	22.0	1	11.1	1.26	25.8926	955.0	2.22	Outcome2	2.52	11.1	3.2195	Yes	n/a	8.57531143827859	n/a	n/a	736.0	TrialHappinessSliderResponse	Loss
343.948	4.878	4.012	556.305	22.0	1	11.1	1.26	25.8926	955.0	2.22	Outcome2	2.52	11.1	3.2195	Yes	n/a	8.57531143827859	n/a	n/a	n/a	ISIRate	Loss
348.846	3.0	0.02	561.203	23.0	1	12.3	1.99	27.4301	955.0	5.0	Outcome2	3.98	12.3	0.0	No	2.0	8.31596828992073	0.864	349.71	n/a	GetAnswer	Loss
349.732	4.0	0.022	562.089	23.0	1	12.3	1.99	27.4301	955.0	5.0	Outcome2	3.98	12.3	0.0	No	n/a	8.31596828992073	n/a	n/a	n/a	ShowChoice	Loss
353.744	1.0	0.012	566.101	23.0	1	12.3	1.99	27.4301	955.0	5.0	Outcome2	3.98	12.3	0.0	No	n/a	8.31596828992073	n/a	n/a	n/a	ShowResult	Loss
354.764	8.0	0.02	567.121	23.0	1	12.3	1.99	27.4301	955.0	5.0	Outcome2	3.98	12.3	0.0	No	n/a	8.31596828992073	n/a	n/a	n/a	ISITrial	Loss
362.788	3.0	0.024	575.145	24.0	1	8.1	-0.23	28.4426	955.0	4.2	Outcome2	-0.46	8.1	3.255	Yes	2.0	8.56398640996602	1.337	364.125	n/a	GetAnswer	Gain
364.142	4.0	0.017	576.499	24.0	1	8.1	-0.23	28.4426	955.0	4.2	Outcome2	-0.46	8.1	3.255	Yes	n/a	8.56398640996602	n/a	n/a	n/a	ShowChoice	Gain
368.154	1.0	0.012	580.511	24.0	1	8.1	-0.23	28.4426	955.0	4.2	Outcome2	-0.46	8.1	3.255	Yes	n/a	8.56398640996602	n/a	n/a	n/a	ShowResult	Gain
369.174	2.0	0.02	581.531	24.0	1	8.1	-0.23	28.4426	955.0	4.2	Outcome2	-0.46	8.1	3.255	Yes	n/a	8.56398640996602	n/a	n/a	n/a	ISITrial	Gain
371.197	3.255	0.023	583.554	24.0	1	8.1	-0.23	28.4426	955.0	4.2	Outcome2	-0.46	8.1	3.255	Yes	n/a	8.56398640996602	n/a	n/a	n/a	TrialHappPreview	Gain
374.473	4.029	0.021	586.83	24.0	1	8.1	-0.23	28.4426	955.0	4.2	Outcome2	-0.46	8.1	3.255	Yes	n/a	8.56398640996602	n/a	n/a	792.0	TrialHappiness	Gain
374.474	3.11	n/a	587.439	24.0	1	8.1	-0.23	28.4426	955.0	4.2	Outcome2	-0.46	8.1	3.255	Yes	n/a	8.56398640996602	n/a	n/a	792.0	TrialHappinessSliderResponse	Gain
378.502	5.02	4.029	590.859	24.0	1	8.1	-0.23	28.4426	955.0	4.2	Outcome2	-0.46	8.1	3.255	Yes	n/a	8.56398640996602	n/a	n/a	n/a	ISIRate	Gain
383.551	3.0	0.029	595.908	25.0	1	1.1	-3.0	28.5801	955.0	0.52	Outcome2	-6.76	1.1	0.0	No	2.0	7.86070215175538	1.252	384.803	n/a	GetAnswer	Mixed
384.821	4.0	0.018	597.178	25.0	1	1.1	-3.0	28.5801	955.0	0.52	Outcome2	-6.76	1.1	0.0	No	n/a	7.86070215175538	n/a	n/a	n/a	ShowChoice	Mixed
388.833	1.0	0.012	601.19	25.0	1	1.1	-3.0	28.5801	955.0	0.52	Outcome2	-6.76	1.1	0.0	No	n/a	7.86070215175538	n/a	n/a	n/a	ShowResult	Mixed
389.853	3.749	0.02	602.21	25.0	1	1.1	-3.0	28.5801	955.0	0.52	Outcome2	-6.76	1.1	0.0	No	n/a	7.86070215175538	n/a	n/a	n/a	ISITrial	Mixed
393.631	3.0	0.029	605.988	26.0	1	12.2	6.1	30.1051	955.0	2.48	Outcome1	12.2	13.3	0.0	No	2.0	-1.10117025292563	0.969	394.6	n/a	GetAnswer	Loss
394.617	4.0	0.016	606.974	26.0	1	12.2	6.1	30.1051	955.0	2.48	Outcome1	12.2	13.3	0.0	No	n/a	-1.10117025292563	n/a	n/a	n/a	ShowChoice	Loss
398.629	1.0	0.012	610.986	26.0	1	12.2	6.1	30.1051	955.0	2.48	Outcome1	12.2	13.3	0.0	No	n/a	-1.10117025292563	n/a	n/a	n/a	ShowResult	Loss
399.649	7.834	0.02	612.006	26.0	1	12.2	6.1	30.1051	955.0	2.48	Outcome1	12.2	13.3	0.0	No	n/a	-1.10117025292563	n/a	n/a	n/a	ISITrial	Loss
407.506	3.0	0.023	619.863	27.0	1	-1.42	-1.0	29.9276	955.0	1.0	Outcome2	-0.3	-1.42	2.54975	Yes	2.0	-1.11655341638354	2.093	409.599	n/a	GetAnswer	Mixed
409.612	4.0	0.013	621.969	27.0	1	-1.42	-1.0	29.9276	955.0	1.0	Outcome2	-0.3	-1.42	2.54975	Yes	n/a	-1.11655341638354	n/a	n/a	n/a	ShowChoice	Mixed
413.624	1.0	0.012	625.981	27.0	1	-1.42	-1.0	29.9276	955.0	1.0	Outcome2	-0.3	-1.42	2.54975	Yes	n/a	-1.11655341638354	n/a	n/a	n/a	ShowResult	Mixed
414.644	4.225	0.02	627.001	27.0	1	-1.42	-1.0	29.9276	955.0	1.0	Outcome2	-0.3	-1.42	2.54975	Yes	n/a	-1.11655341638354	n/a	n/a	n/a	ISITrial	Mixed
418.89	2.55	0.021	631.247	27.0	1	-1.42	-1.0	29.9276	955.0	1.0	Outcome2	-0.3	-1.42	2.54975	Yes	n/a	-1.11655341638354	n/a	n/a	n/a	TrialHappPreview	Mixed
421.464	4.012	0.024	633.821	27.0	1	-1.42	-1.0	29.9276	955.0	1.0	Outcome2	-0.3	-1.42	2.54975	Yes	n/a	-1.11655341638354	n/a	n/a	712.0	TrialHappiness	Mixed
421.465	0.567	n/a	634.498	27.0	1	-1.42	-1.0	29.9276	955.0	1.0	Outcome2	-0.3	-1.42	2.54975	Yes	n/a	-1.11655341638354	n/a	n/a	712.0	TrialHappinessSliderResponse	Mixed
425.476	2.199	4.012	637.833	27.0	1	-1.42	-1.0	29.9276	955.0	1.0	Outcome2	-0.3	-1.42	2.54975	Yes	n/a	-1.11655341638354	n/a	n/a	n/a	ISIRate	Mixed
529.84	1.43	n/a	742.797	n/a	1	n/a	n/a	n/a	n/a	n/a	n/a	n/a	n/a	n/a	n/a	n/a	n/a	n/a	n/a	744.0	BlockStartHappinessSliderResponse	n/a
-116.633	-0.001	0.025	640.057	n/a	2	n/a	n/a	n/a	n/a	n/a	n/a	n/a	n/a	n/a	n/a	{SPACE}	n/a	98.113	-18.52	n/a	Rest	n/a
-18.506	4.0	0.014	738.184	n/a	2	n/a	n/a	n/a	n/a	n/a	n/a	n/a	n/a	n/a	n/a	n/a	n/a	n/a	n/a	n/a	BlockHappyPreview	n/a
-14.494	2.03	0.012	742.196	n/a	2	n/a	n/a	n/a	n/a	n/a	n/a	n/a	n/a	n/a	n/a	n/a	n/a	n/a	n/a	744.0	BlockStartHappiness	n/a
-3.26	-0.001	0.012	753.43	n/a	2	n/a	n/a	n/a	n/a	n/a	n/a	n/a	n/a	n/a	n/a	5.0	n/a	3.241	-0.019	n/a	ScanWait	n/a
0.0	10.0	0.019	756.69	n/a	2	n/a	n/a	n/a	n/a	n/a	n/a	n/a	n/a	n/a	n/a	n/a	n/a	n/a	n/a	n/a	GetReady	n/a
10.013	3.0	0.013	766.703	28.0	2	1.92	0.0	30.1676	70.0	3.16	Outcome1	1.92	-0.82	0.0	No	2.0	2.73828420256992	1.632	11.645	n/a	GetAnswer	Gain
11.668	4.0	0.023	768.358	28.0	2	1.92	0.0	30.1676	70.0	3.16	Outcome1	1.92	-0.82	0.0	No	n/a	2.73828420256992	n/a	n/a	n/a	ShowChoice	Gain
15.68	1.0	0.012	772.37	28.0	2	1.92	0.0	30.1676	70.0	3.16	Outcome1	1.92	-0.82	0.0	No	n/a	2.73828420256992	n/a	n/a	n/a	ShowResult	Gain
16.7	3.575	0.02	773.39	28.0	2	1.92	0.0	30.1676	70.0	3.16	Outcome1	1.92	-0.82	0.0	No	n/a	2.73828420256992	n/a	n/a	n/a	ISITrial	Gain
20.294	3.0	0.019	776.984	29.0	2	-3.13	-1.56	29.7763	70.0	2.22	Outcome1	-3.13	9.1	3.529	Yes	2.0	-12.226757369614502	1.796	22.09	n/a	GetAnswer	Gain
22.116	4.0	0.026	778.806	29.0	2	-3.13	-1.56	29.7763	70.0	2.22	Outcome1	-3.13	9.1	3.529	Yes	n/a	-12.226757369614502	n/a	n/a	n/a	ShowChoice	Gain
26.128	1.0	0.012	782.818	29.0	2	-3.13	-1.56	29.7763	70.0	2.22	Outcome1	-3.13	9.1	3.529	Yes	n/a	-12.226757369614502	n/a	n/a	n/a	ShowResult	Gain
27.148	3.955	0.02	783.838	29.0	2	-3.13	-1.56	29.7763	70.0	2.22	Outcome1	-3.13	9.1	3.529	Yes	n/a	-12.226757369614502	n/a	n/a	n/a	ISITrial	Gain
31.127	3.529	0.024	787.817	29.0	2	-3.13	-1.56	29.7763	70.0	2.22	Outcome1	-3.13	9.1	3.529	Yes	n/a	-12.226757369614502	n/a	n/a	n/a	TrialHappPreview	Gain
34.671	4.012	0.015	791.361	29.0	2	-3.13	-1.56	29.7763	70.0	2.22	Outcome1	-3.13	9.1	3.529	Yes	n/a	-12.226757369614502	n/a	n/a	704.0	TrialHappiness	Gain
34.671	0.545	n/a	791.991	29.0	2	-3.13	-1.56	29.7763	70.0	2.22	Outcome1	-3.13	9.1	3.529	Yes	n/a	-12.226757369614502	n/a	n/a	704.0	TrialHappinessSliderResponse	Gain
38.683	6.116	4.012	795.373	29.0	2	-3.13	-1.56	29.7763	70.0	2.22	Outcome1	-3.13	9.1	3.529	Yes	n/a	-12.226757369614502	n/a	n/a	n/a	ISIRate	Gain
44.818	3.0	0.019	801.508	30.0	2	-8.41	-2.0	28.7251	70.0	1.2	Outcome1	-8.41	3.9	0.0	No	2.0	-12.3106575963719	1.548	46.366	n/a	GetAnswer	Mixed
46.389	4.0	0.023	803.079	30.0	2	-8.41	-2.0	28.7251	70.0	1.2	Outcome1	-8.41	3.9	0.0	No	n/a	-12.3106575963719	n/a	n/a	n/a	ShowChoice	Mixed
50.401	1.0	0.012	807.091	30.0	2	-8.41	-2.0	28.7251	70.0	1.2	Outcome1	-8.41	3.9	0.0	No	n/a	-12.3106575963719	n/a	n/a	n/a	ShowResult	Mixed
51.421	4.453	0.02	808.111	30.0	2	-8.41	-2.0	28.7251	70.0	1.2	Outcome1	-8.41	3.9	0.0	No	n/a	-12.3106575963719	n/a	n/a	n/a	ISITrial	Mixed
55.901	3.0	0.027	812.591	31.0	2	0.07	0.04	28.7339	70.0	2.22	Outcome2	13.1	0.07	2.50325	Yes	2.0	-13.0294784580499	1.207	57.108	n/a	GetAnswer	Loss
57.121	4.0	0.013	813.811	31.0	2	0.07	0.04	28.7339	70.0	2.22	Outcome2	13.1	0.07	2.50325	Yes	n/a	-13.0294784580499	n/a	n/a	n/a	ShowChoice	Loss
61.133	1.0	0.012	817.823	31.0	2	0.07	0.04	28.7339	70.0	2.22	Outcome2	13.1	0.07	2.50325	Yes	n/a	-13.0294784580499	n/a	n/a	n/a	ShowResult	Loss
62.153	4.786	0.02	818.843	31.0	2	0.07	0.04	28.7339	70.0	2.22	Outcome2	13.1	0.07	2.50325	Yes	n/a	-13.0294784580499	n/a	n/a	n/a	ISITrial	Loss
66.951	2.503	0.012	823.641	31.0	2	0.07	0.04	28.7339	70.0	2.22	Outcome2	13.1	0.07	2.50325	Yes	n/a	-13.0294784580499	n/a	n/a	n/a	TrialHappPreview	Loss
69.475	4.012	0.021	826.165	31.0	2	0.07	0.04	28.7339	70.0	2.22	Outcome2	13.1	0.07	2.50325	Yes	n/a	-13.0294784580499	n/a	n/a	544.0	TrialHappiness	Loss
69.476	0.217	n/a	828.313	31.0	2	0.07	0.04	28.7339	70.0	2.22	Outcome2	13.1	0.07	2.50325	Yes	n/a	-13.0294784580499	n/a	n/a	544.0	TrialHappinessSliderResponse	Loss
73.487	2.013	4.012	830.177	31.0	2	0.07	0.04	28.7339	70.0	2.22	Outcome2	13.1	0.07	2.50325	Yes	n/a	-13.0294784580499	n/a	n/a	n/a	ISIRate	Loss
75.526	3.0	0.026	832.216	32.0	2	-3.93	1.0	28.2427	70.0	2.22	Outcome1	-3.93	7.1	0.0	No	2.0	-11.0272108843537	1.396	76.922	n/a	GetAnswer	Gain
76.947	4.0	0.025	833.637	32.0	2	-3.93	1.0	28.2427	70.0	2.22	Outcome1	-3.93	7.1	0.0	No	n/a	-11.0272108843537	n/a	n/a	n/a	ShowChoice	Gain
80.959	1.0	0.012	837.649	32.0	2	-3.93	1.0	28.2427	70.0	2.22	Outcome1	-3.93	7.1	0.0	No	n/a	-11.0272108843537	n/a	n/a	n/a	ShowResult	Gain
81.979	2.0	0.02	838.669	32.0	2	-3.93	1.0	28.2427	70.0	2.22	Outcome1	-3.93	7.1	0.0	No	n/a	-11.0272108843537	n/a	n/a	n/a	ISITrial	Gain
84.002	3.0	0.023	840.692	33.0	2	-12.46	-6.0	26.6852	70.0	0.52	Outcome1	-12.46	-0.9	0.0	No	2.0	-11.5646258503401	1.506	85.508	n/a	GetAnswer	Mixed
85.523	4.0	0.015	842.213	33.0	2	-12.46	-6.0	26.6852	70.0	0.52	Outcome1	-12.46	-0.9	0.0	No	n/a	-11.5646258503401	n/a	n/a	n/a	ShowChoice	Mixed
89.535	1.0	0.012	846.225	33.0	2	-12.46	-6.0	26.6852	70.0	0.52	Outcome1	-12.46	-0.9	0.0	No	n/a	-11.5646258503401	n/a	n/a	n/a	ShowResult	Mixed
90.555	5.099	0.02	847.245	33.0	2	-12.46	-6.0	26.6852	70.0	0.52	Outcome1	-12.46	-0.9	0.0	No	n/a	-11.5646258503401	n/a	n/a	n/a	ISITrial	Mixed
95.67	3.0	0.016	852.36	34.0	2	-6.4	0.0	25.8852	70.0	3.16	Outcome1	-6.4	5.7	3.2315	Yes	2.0	-12.1020408163265	1.249	96.919	n/a	GetAnswer	Gain
96.941	4.0	0.022	853.631	34.0	2	-6.4	0.0	25.8852	70.0	3.16	Outcome1	-6.4	5.7	3.2315	Yes	n/a	-12.1020408163265	n/a	n/a	n/a	ShowChoice	Gain
100.953	1.0	0.012	857.643	34.0	2	-6.4	0.0	25.8852	70.0	3.16	Outcome1	-6.4	5.7	3.2315	Yes	n/a	-12.1020408163265	n/a	n/a	n/a	ShowResult	Gain
101.972	4.784	0.019	858.662	34.0	2	-6.4	0.0	25.8852	70.0	3.16	Outcome1	-6.4	5.7	3.2315	Yes	n/a	-12.1020408163265	n/a	n/a	n/a	ISITrial	Gain
106.77	3.232	0.014	863.46	34.0	2	-6.4	0.0	25.8852	70.0	3.16	Outcome1	-6.4	5.7	3.2315	Yes	n/a	-12.1020408163265	n/a	n/a	n/a	TrialHappPreview	Gain
110.03	4.012	0.028	866.72	34.0	2	-6.4	0.0	25.8852	70.0	3.16	Outcome1	-6.4	5.7	3.2315	Yes	n/a	-12.1020408163265	n/a	n/a	616.0	TrialHappiness	Gain
110.031	0.356	n/a	867.274	34.0	2	-6.4	0.0	25.8852	70.0	3.16	Outcome1	-6.4	5.7	3.2315	Yes	n/a	-12.1020408163265	n/a	n/a	616.0	TrialHappinessSliderResponse	Gain
114.042	4.926	4.012	870.732	34.0	2	-6.4	0.0	25.8852	70.0	3.16	Outcome1	-6.4	5.7	3.2315	Yes	n/a	-12.1020408163265	n/a	n/a	n/a	ISIRate	Gain
118.99	3.0	0.022	875.68	35.0	2	-0.36	-0.18	25.8402	70.0	2.8	Outcome2	13.5	-0.36	0.0	No	2.0	-13.863945578231302	0.99	119.98	n/a	GetAnswer	Loss
119.993	4.0	0.013	876.683	35.0	2	-0.36	-0.18	25.8402	70.0	2.8	Outcome2	13.5	-0.36	0.0	No	n/a	-13.863945578231302	n/a	n/a	n/a	ShowChoice	Loss
124.022	1.0	0.029	880.712	35.0	2	-0.36	-0.18	25.8402	70.0	2.8	Outcome2	13.5	-0.36	0.0	No	n/a	-13.863945578231302	n/a	n/a	n/a	ShowResult	Loss
125.042	2.098	0.02	881.732	35.0	2	-0.36	-0.18	25.8402	70.0	2.8	Outcome2	13.5	-0.36	0.0	No	n/a	-13.863945578231302	n/a	n/a	n/a	ISITrial	Loss
127.165	3.0	0.025	883.855	36.0	2	-2.58	-1.29	25.5177	70.0	3.6	Outcome2	11.9	-2.58	3.33575	Yes	2.0	-14.4829931972789	1.425	128.59	n/a	GetAnswer	Loss
128.602	4.0	0.012	885.292	36.0	2	-2.58	-1.29	25.5177	70.0	3.6	Outcome2	11.9	-2.58	3.33575	Yes	n/a	-14.4829931972789	n/a	n/a	n/a	ShowChoice	Loss
132.614	1.0	0.012	889.304	36.0	2	-2.58	-1.29	25.5177	70.0	3.6	Outcome2	11.9	-2.58	3.33575	Yes	n/a	-14.4829931972789	n/a	n/a	n/a	ShowResult	Loss
133.634	5.156	0.02	890.324	36.0	2	-2.58	-1.29	25.5177	70.0	3.6	Outcome2	11.9	-2.58	3.33575	Yes	n/a	-14.4829931972789	n/a	n/a	n/a	ISITrial	Loss
138.816	3.336	0.026	895.506	36.0	2	-2.58	-1.29	25.5177	70.0	3.6	Outcome2	11.9	-2.58	3.33575	Yes	n/a	-14.4829931972789	n/a	n/a	n/a	TrialHappPreview	Loss
142.176	4.012	0.024	898.866	36.0	2	-2.58	-1.29	25.5177	70.0	3.6	Outcome2	11.9	-2.58	3.33575	Yes	n/a	-14.4829931972789	n/a	n/a	656.0	TrialHappiness	Loss
142.177	0.436	n/a	900.209	36.0	2	-2.58	-1.29	25.5177	70.0	3.6	Outcome2	11.9	-2.58	3.33575	Yes	n/a	-14.4829931972789	n/a	n/a	656.0	TrialHappinessSliderResponse	Loss
146.188	5.343	4.012	902.878	36.0	2	-2.58	-1.29	25.5177	70.0	3.6	Outcome2	11.9	-2.58	3.33575	Yes	n/a	-14.4829931972789	n/a	n/a	n/a	ISIRate	Loss
151.554	3.0	0.023	908.244	37.0	2	-5.08	-2.54	24.8827	70.0	1.82	Outcome1	-5.08	10.7	0.0	No	2.0	-15.7823129251701	1.309	152.863	n/a	GetAnswer	Loss
152.875	4.0	0.011	909.565	37.0	2	-5.08	-2.54	24.8827	70.0	1.82	Outcome1	-5.08	10.7	0.0	No	n/a	-15.7823129251701	n/a	n/a	n/a	ShowChoice	Loss
156.887	1.0	0.012	913.577	37.0	2	-5.08	-2.54	24.8827	70.0	1.82	Outcome1	-5.08	10.7	0.0	No	n/a	-15.7823129251701	n/a	n/a	n/a	ShowResult	Loss
157.907	3.598	0.02	914.597	37.0	2	-5.08	-2.54	24.8827	70.0	1.82	Outcome1	-5.08	10.7	0.0	No	n/a	-15.7823129251701	n/a	n/a	n/a	ISITrial	Loss
161.534	3.0	0.029	918.224	38.0	2	-4.35	-2.17	24.3389	70.0	4.2	Outcome2	12.1	-4.35	0.0	No	2.0	-16.446712018140598	0.986	162.52	n/a	GetAnswer	Loss
162.537	4.0	0.017	919.227	38.0	2	-4.35	-2.17	24.3389	70.0	4.2	Outcome2	12.1	-4.35	0.0	No	n/a	-16.446712018140598	n/a	n/a	n/a	ShowChoice	Loss
166.549	1.0	0.012	923.239	38.0	2	-4.35	-2.17	24.3389	70.0	4.2	Outcome2	12.1	-4.35	0.0	No	n/a	-16.446712018140598	n/a	n/a	n/a	ShowResult	Loss
167.569	4.787	0.02	924.259	38.0	2	-4.35	-2.17	24.3389	70.0	4.2	Outcome2	12.1	-4.35	0.0	No	n/a	-16.446712018140598	n/a	n/a	n/a	ISITrial	Loss
172.384	3.0	0.028	929.074	39.0	2	-5.81	2.0	23.6126	70.0	2.48	Outcome2	11.3	-5.81	2.86425	Yes	2.0	-17.1111111111111	0.925	173.309	n/a	GetAnswer	Loss
173.336	4.0	0.027	930.026	39.0	2	-5.81	2.0	23.6126	70.0	2.48	Outcome2	11.3	-5.81	2.86425	Yes	n/a	-17.1111111111111	n/a	n/a	n/a	ShowChoice	Loss
177.349	1.0	0.013	934.039	39.0	2	-5.81	2.0	23.6126	70.0	2.48	Outcome2	11.3	-5.81	2.86425	Yes	n/a	-17.1111111111111	n/a	n/a	n/a	ShowResult	Loss
178.368	2.348	0.019	935.058	39.0	2	-5.81	2.0	23.6126	70.0	2.48	Outcome2	11.3	-5.81	2.86425	Yes	n/a	-17.1111111111111	n/a	n/a	n/a	ISITrial	Loss
180.742	2.864	0.026	937.432	39.0	2	-5.81	2.0	23.6126	70.0	2.48	Outcome2	11.3	-5.81	2.86425	Yes	n/a	-17.1111111111111	n/a	n/a	n/a	TrialHappPreview	Loss
183.634	4.012	0.028	940.324	39.0	2	-5.81	2.0	23.6126	70.0	2.48	Outcome2	11.3	-5.81	2.86425	Yes	n/a	-17.1111111111111	n/a	n/a	704.0	TrialHappiness	Loss
183.635	0.538	n/a	940.98	39.0	2	-5.81	2.0	23.6126	70.0	2.48	Outcome2	11.3	-5.81	2.86425	Yes	n/a	-17.1111111111111	n/a	n/a	704.0	TrialHappinessSliderResponse	Loss
187.646	3.457	4.012	944.336	39.0	2	-5.81	2.0	23.6126	70.0	2.48	Outcome2	11.3	-5.81	2.86425	Yes	n/a	-17.1111111111111	n/a	n/a	n/a	ISIRate	Loss
191.123	3.0	0.02	947.813	40.0	2	1.08	0.0	23.7476	70.0	2.0	Outcome2	-2.15	1.08	0.0	No	2.0	3.22656840513983	1.725	192.848	n/a	GetAnswer	Mixed
192.862	4.0	0.014	949.552	40.0	2	1.08	0.0	23.7476	70.0	2.0	Outcome2	-2.15	1.08	0.0	No	n/a	3.22656840513983	n/a	n/a	n/a	ShowChoice	Mixed
196.874	1.0	0.012	953.564	40.0	2	1.08	0.0	23.7476	70.0	2.0	Outcome2	-2.15	1.08	0.0	No	n/a	3.22656840513983	n/a	n/a	n/a	ShowResult	Mixed
197.893	3.158	0.019	954.583	40.0	2	1.08	0.0	23.7476	70.0	2.0	Outcome2	-2.15	1.08	0.0	No	n/a	3.22656840513983	n/a	n/a	n/a	ISITrial	Mixed
201.07	3.0	0.019	957.76	41.0	2	1.82	0.0	23.9751	70.0	2.48	Outcome1	1.82	-1.47	4.0	Yes	2.0	3.286470143613	0.768	201.838	n/a	GetAnswer	Gain
201.855	4.0	0.017	958.545	41.0	2	1.82	0.0	23.9751	70.0	2.48	Outcome1	1.82	-1.47	4.0	Yes	n/a	3.286470143613	n/a	n/a	n/a	ShowChoice	Gain
205.867	1.0	0.012	962.557	41.0	2	1.82	0.0	23.9751	70.0	2.48	Outcome1	1.82	-1.47	4.0	Yes	n/a	3.286470143613	n/a	n/a	n/a	ShowResult	Gain
206.887	4.506	0.02	963.577	41.0	2	1.82	0.0	23.9751	70.0	2.48	Outcome1	1.82	-1.47	4.0	Yes	n/a	3.286470143613	n/a	n/a	n/a	ISITrial	Gain
211.417	4.0	0.024	968.107	41.0	2	1.82	0.0	23.9751	70.0	2.48	Outcome1	1.82	-1.47	4.0	Yes	n/a	3.286470143613	n/a	n/a	n/a	TrialHappPreview	Gain
215.446	4.012	0.029	972.136	41.0	2	1.82	0.0	23.9751	70.0	2.48	Outcome1	1.82	-1.47	4.0	Yes	n/a	3.286470143613	n/a	n/a	640.0	TrialHappiness	Gain
215.447	2.265	n/a	972.738	41.0	2	1.82	0.0	23.9751	70.0	2.48	Outcome1	1.82	-1.47	4.0	Yes	n/a	3.286470143613	n/a	n/a	640.0	TrialHappinessSliderResponse	Gain
219.458	8.0	4.012	976.148	41.0	2	1.82	0.0	23.9751	70.0	2.48	Outcome1	1.82	-1.47	4.0	Yes	n/a	3.286470143613	n/a	n/a	n/a	ISIRate	Gain
227.482	3.0	0.024	984.172	42.0	2	-16.64	-7.0	21.8951	70.0	2.0	Outcome1	-16.64	2.3	0.0	No	2.0	-18.9410430839002	1.507	228.989	n/a	GetAnswer	Mixed
229.003	4.0	0.014	985.693	42.0	2	-16.64	-7.0	21.8951	70.0	2.0	Outcome1	-16.64	2.3	0.0	No	n/a	-18.9410430839002	n/a	n/a	n/a	ShowChoice	Mixed
233.015	1.0	0.012	989.705	42.0	2	-16.64	-7.0	21.8951	70.0	2.0	Outcome1	-16.64	2.3	0.0	No	n/a	-18.9410430839002	n/a	n/a	n/a	ShowResult	Mixed
234.035	6.248	0.02	990.725	42.0	2	-16.64	-7.0	21.8951	70.0	2.0	Outcome1	-16.64	2.3	0.0	No	n/a	-18.9410430839002	n/a	n/a	n/a	ISITrial	Mixed
240.304	3.0	0.021	996.994	43.0	2	-17.89	-8.0	19.6589	70.0	1.0	Outcome2	1.7	-17.89	2.77575	Yes	2.0	-19.587301587301603	1.711	242.015	n/a	GetAnswer	Mixed
242.043	4.0	0.028	998.733	43.0	2	-17.89	-8.0	19.6589	70.0	1.0	Outcome2	1.7	-17.89	2.77575	Yes	n/a	-19.587301587301603	n/a	n/a	n/a	ShowChoice	Mixed
246.055	1.0	0.012	1002.745	43.0	2	-17.89	-8.0	19.6589	70.0	1.0	Outcome2	1.7	-17.89	2.77575	Yes	n/a	-19.587301587301603	n/a	n/a	n/a	ShowResult	Mixed
247.074	4.596	0.019	1003.764	43.0	2	-17.89	-8.0	19.6589	70.0	1.0	Outcome2	1.7	-17.89	2.77575	Yes	n/a	-19.587301587301603	n/a	n/a	n/a	ISITrial	Mixed
251.688	2.776	0.018	1008.378	43.0	2	-17.89	-8.0	19.6589	70.0	1.0	Outcome2	1.7	-17.89	2.77575	Yes	n/a	-19.587301587301603	n/a	n/a	n/a	TrialHappPreview	Mixed
254.48	4.012	0.016	1011.17	43.0	2	-17.89	-8.0	19.6589	70.0	1.0	Outcome2	1.7	-17.89	2.77575	Yes	n/a	-19.587301587301603	n/a	n/a	664.0	TrialHappiness	Mixed
254.481	0.463	n/a	1013.472	43.0	2	-17.89	-8.0	19.6589	70.0	1.0	Outcome2	1.7	-17.89	2.77575	Yes	n/a	-19.587301587301603	n/a	n/a	664.0	TrialHappinessSliderResponse	Mixed
258.492	3.103	4.012	1015.182	43.0	2	-17.89	-8.0	19.6589	70.0	1.0	Outcome2	1.7	-17.89	2.77575	Yes	n/a	-19.587301587301603	n/a	n/a	n/a	ISIRate	Mixed
261.618	3.0	0.023	1018.308	44.0	2	-1.0	-1.0	19.5339	70.0	1.82	Certain	-11.94	8.7	0.0	No	4.0	-20.641723356009106	1.5	263.118	n/a	GetAnswer	Gain
263.139	4.0	0.021	1019.829	44.0	2	-1.0	-1.0	19.5339	70.0	1.82	Certain	-11.94	8.7	0.0	No	n/a	-20.641723356009106	n/a	n/a	n/a	ShowChoice	Gain
267.151	1.0	0.012	1023.841	44.0	2	-1.0	-1.0	19.5339	70.0	1.82	Certain	-11.94	8.7	0.0	No	n/a	-20.641723356009106	n/a	n/a	n/a	ShowResult	Gain
268.171	2.42	0.02	1024.861	44.0	2	-1.0	-1.0	19.5339	70.0	1.82	Certain	-11.94	8.7	0.0	No	n/a	-20.641723356009106	n/a	n/a	n/a	ISITrial	Gain
270.612	3.0	0.021	1027.302	45.0	2	-11.62	-1.0	18.0814	70.0	3.16	Outcome1	-11.62	9.7	0.0	No	2.0	-21.3151927437642	2.432	273.044	n/a	GetAnswer	Gain
273.069	4.0	0.025	1029.759	45.0	2	-11.62	-1.0	18.0814	70.0	3.16	Outcome1	-11.62	9.7	0.0	No	n/a	-21.3151927437642	n/a	n/a	n/a	ShowChoice	Gain
277.081	1.0	0.012	1033.771	45.0	2	-11.62	-1.0	18.0814	70.0	3.16	Outcome1	-11.62	9.7	0.0	No	n/a	-21.3151927437642	n/a	n/a	n/a	ShowResult	Gain
278.101	3.144	0.02	1034.791	45.0	2	-11.62	-1.0	18.0814	70.0	3.16	Outcome1	-11.62	9.7	0.0	No	n/a	-21.3151927437642	n/a	n/a	n/a	ISITrial	Gain
281.26	3.0	0.015	1037.95	46.0	2	-17.09	-6.0	15.9452	70.0	2.0	Outcome1	-17.09	4.9	3.84125	Yes	2.0	-21.9886621315193	1.58	282.84	n/a	GetAnswer	Gain
282.865	4.0	0.025	1039.555	46.0	2	-17.09	-6.0	15.9452	70.0	2.0	Outcome1	-17.09	4.9	3.84125	Yes	n/a	-21.9886621315193	n/a	n/a	n/a	ShowChoice	Gain
286.877	1.0	0.012	1043.567	46.0	2	-17.09	-6.0	15.9452	70.0	2.0	Outcome1	-17.09	4.9	3.84125	Yes	n/a	-21.9886621315193	n/a	n/a	n/a	ShowResult	Gain
287.897	2.246	0.02	1044.587	46.0	2	-17.09	-6.0	15.9452	70.0	2.0	Outcome1	-17.09	4.9	3.84125	Yes	n/a	-21.9886621315193	n/a	n/a	n/a	ISITrial	Gain
290.17	3.841	0.027	1046.86	46.0	2	-17.09	-6.0	15.9452	70.0	2.0	Outcome1	-17.09	4.9	3.84125	Yes	n/a	-21.9886621315193	n/a	n/a	n/a	TrialHappPreview	Gain
294.032	4.012	0.021	1050.722	46.0	2	-17.09	-6.0	15.9452	70.0	2.0	Outcome1	-17.09	4.9	3.84125	Yes	n/a	-21.9886621315193	n/a	n/a	688.0	TrialHappiness	Gain
294.033	0.964	n/a	1051.137	46.0	2	-17.09	-6.0	15.9452	70.0	2.0	Outcome1	-17.09	4.9	3.84125	Yes	n/a	-21.9886621315193	n/a	n/a	688.0	TrialHappinessSliderResponse	Gain
298.044	7.365	4.012	1054.734	46.0	2	-17.09	-6.0	15.9452	70.0	2.0	Outcome1	-17.09	4.9	3.84125	Yes	n/a	-21.9886621315193	n/a	n/a	n/a	ISIRate	Gain
305.433	3.0	0.024	1062.123	47.0	2	-11.37	0.0	14.5239	70.0	3.16	Outcome1	-11.37	11.7	0.0	No	2.0	-23.070294784580497	1.595	307.028	n/a	GetAnswer	Loss
307.054	4.0	0.026	1063.744	47.0	2	-11.37	0.0	14.5239	70.0	3.16	Outcome1	-11.37	11.7	0.0	No	n/a	-23.070294784580497	n/a	n/a	n/a	ShowChoice	Loss
311.066	1.0	0.012	1067.756	47.0	2	-11.37	0.0	14.5239	70.0	3.16	Outcome1	-11.37	11.7	0.0	No	n/a	-23.070294784580497	n/a	n/a	n/a	ShowResult	Loss
312.086	2.0	0.02	1068.776	47.0	2	-11.37	0.0	14.5239	70.0	3.16	Outcome1	-11.37	11.7	0.0	No	n/a	-23.070294784580497	n/a	n/a	n/a	ISITrial	Loss
314.109	3.0	0.023	1070.799	48.0	2	0.62	-1.0	14.6014	70.0	0.2	Outcome1	0.62	-3.0	2.83175	Yes	2.0	3.61583522297808	1.515	315.624	n/a	GetAnswer	Mixed
315.647	4.0	0.023	1072.337	48.0	2	0.62	-1.0	14.6014	70.0	0.2	Outcome1	0.62	-3.0	2.83175	Yes	n/a	3.61583522297808	n/a	n/a	n/a	ShowChoice	Mixed
319.659	1.0	0.012	1076.349	48.0	2	0.62	-1.0	14.6014	70.0	0.2	Outcome1	0.62	-3.0	2.83175	Yes	n/a	3.61583522297808	n/a	n/a	n/a	ShowResult	Mixed
320.678	3.692	0.019	1077.368	48.0	2	0.62	-1.0	14.6014	70.0	0.2	Outcome1	0.62	-3.0	2.83175	Yes	n/a	3.61583522297808	n/a	n/a	n/a	ISITrial	Mixed
324.39	2.832	0.02	1081.08	48.0	2	0.62	-1.0	14.6014	70.0	0.2	Outcome1	0.62	-3.0	2.83175	Yes	n/a	3.61583522297808	n/a	n/a	n/a	TrialHappPreview	Mixed
327.248	4.012	0.026	1083.938	48.0	2	0.62	-1.0	14.6014	70.0	0.2	Outcome1	0.62	-3.0	2.83175	Yes	n/a	3.61583522297808	n/a	n/a	512.0	TrialHappiness	Mixed
327.249	0.0	n/a	1083.939	48.0	2	0.62	-1.0	14.6014	70.0	0.2	Outcome1	0.62	-3.0	2.83175	Yes	n/a	3.61583522297808	n/a	n/a	512.0	TrialHappinessSliderResponse	Mixed
331.26	3.327	4.012	1087.95	48.0	2	0.62	-1.0	14.6014	70.0	0.2	Outcome1	0.62	-3.0	2.83175	Yes	n/a	3.61583522297808	n/a	n/a	n/a	ISIRate	Mixed
334.604	3.0	0.017	1091.294	49.0	2	-18.58	-8.0	12.2789	70.0	0.4	Outcome2	2.9	-18.58	0.0	No	2.0	-21.478458049886605	0.766	335.37	n/a	GetAnswer	Mixed
335.389	4.0	0.019	1092.079	49.0	2	-18.58	-8.0	12.2789	70.0	0.4	Outcome2	2.9	-18.58	0.0	No	n/a	-21.478458049886605	n/a	n/a	n/a	ShowChoice	Mixed
339.401	1.0	0.012	1096.091	49.0	2	-18.58	-8.0	12.2789	70.0	0.4	Outcome2	2.9	-18.58	0.0	No	n/a	-21.478458049886605	n/a	n/a	n/a	ShowResult	Mixed
340.421	8.0	0.02	1097.111	49.0	2	-18.58	-8.0	12.2789	70.0	0.4	Outcome2	2.9	-18.58	0.0	No	n/a	-21.478458049886605	n/a	n/a	n/a	ISITrial	Mixed
348.445	3.0	0.024	1105.135	50.0	2	-20.68	-9.0	9.6939	70.0	0.66	Outcome2	1.3	-20.68	3.54725	Yes	2.0	-21.9795918367347	0.665	349.11	n/a	GetAnswer	Mixed
349.13	4.0	0.02	1105.82	50.0	2	-20.68	-9.0	9.6939	70.0	0.66	Outcome2	1.3	-20.68	3.54725	Yes	n/a	-21.9795918367347	n/a	n/a	n/a	ShowChoice	Mixed
353.143	1.0	0.013	1109.833	50.0	2	-20.68	-9.0	9.6939	70.0	0.66	Outcome2	1.3	-20.68	3.54725	Yes	n/a	-21.9795918367347	n/a	n/a	n/a	ShowResult	Mixed
354.162	7.537	0.019	1110.852	50.0	2	-20.68	-9.0	9.6939	70.0	0.66	Outcome2	1.3	-20.68	3.54725	Yes	n/a	-21.9795918367347	n/a	n/a	n/a	ISITrial	Mixed
361.718	3.547	0.019	1118.408	50.0	2	-20.68	-9.0	9.6939	70.0	0.66	Outcome2	1.3	-20.68	3.54725	Yes	n/a	-21.9795918367347	n/a	n/a	n/a	TrialHappPreview	Mixed
365.296	4.028	0.031	1121.986	50.0	2	-20.68	-9.0	9.6939	70.0	0.66	Outcome2	1.3	-20.68	3.54725	Yes	n/a	-21.9795918367347	n/a	n/a	744.0	TrialHappiness	Mixed
365.296	0.635	n/a	1122.644	50.0	2	-20.68	-9.0	9.6939	70.0	0.66	Outcome2	1.3	-20.68	3.54725	Yes	n/a	-21.9795918367347	n/a	n/a	744.0	TrialHappinessSliderResponse	Mixed
369.324	6.189	4.028	1126.014	50.0	2	-20.68	-9.0	9.6939	70.0	0.66	Outcome2	1.3	-20.68	3.54725	Yes	n/a	-21.9795918367347	n/a	n/a	n/a	ISIRate	Mixed
375.543	3.0	0.03	1132.233	51.0	2	-17.53	-4.0	7.5027	70.0	2.0	Outcome1	-17.53	8.9	0.0	No	2.0	-26.426303854875304	0.994	376.537	n/a	GetAnswer	Gain
376.563	4.0	0.026	1133.253	51.0	2	-17.53	-4.0	7.5027	70.0	2.0	Outcome1	-17.53	8.9	0.0	No	n/a	-26.426303854875304	n/a	n/a	n/a	ShowChoice	Gain
380.592	1.0	0.029	1137.282	51.0	2	-17.53	-4.0	7.5027	70.0	2.0	Outcome1	-17.53	8.9	0.0	No	n/a	-26.426303854875304	n/a	n/a	n/a	ShowResult	Gain
381.611	5.508	0.019	1138.301	51.0	2	-17.53	-4.0	7.5027	70.0	2.0	Outcome1	-17.53	8.9	0.0	No	n/a	-26.426303854875304	n/a	n/a	n/a	ISITrial	Gain
387.145	3.0	0.026	1143.835	52.0	2	-18.89	-5.0	5.1415	70.0	5.0	Outcome2	8.3	-18.89	0.0	No	2.0	-27.1904761904762	1.206	388.351	n/a	GetAnswer	Gain
388.382	4.0	0.031	1145.072	52.0	2	-18.89	-5.0	5.1415	70.0	5.0	Outcome2	8.3	-18.89	0.0	No	n/a	-27.1904761904762	n/a	n/a	n/a	ShowChoice	Gain
392.41	1.0	0.028	1149.1	52.0	2	-18.89	-5.0	5.1415	70.0	5.0	Outcome2	8.3	-18.89	0.0	No	n/a	-27.1904761904762	n/a	n/a	n/a	ShowResult	Gain
393.43	5.913	0.02	1150.12	52.0	2	-18.89	-5.0	5.1415	70.0	5.0	Outcome2	8.3	-18.89	0.0	No	n/a	-27.1904761904762	n/a	n/a	n/a	ISITrial	Gain
399.365	3.0	0.022	1156.055	53.0	2	2.38	0.0	5.439	70.0	2.8	Outcome1	2.38	-1.73	2.99675	Yes	n/a	4.11262282690854	n/a	n/a	n/a	GetAnswer	Gain
402.39	4.0	0.025	1159.08	53.0	2	2.38	0.0	5.439	70.0	2.8	Outcome1	2.38	-1.73	2.99675	Yes	n/a	4.11262282690854	n/a	n/a	n/a	ShowChoice	Gain
406.402	1.0	0.012	1163.092	53.0	2	2.38	0.0	5.439	70.0	2.8	Outcome1	2.38	-1.73	2.99675	Yes	n/a	4.11262282690854	n/a	n/a	n/a	ShowResult	Gain
407.422	3.66	0.02	1164.112	53.0	2	2.38	0.0	5.439	70.0	2.8	Outcome1	2.38	-1.73	2.99675	Yes	n/a	4.11262282690854	n/a	n/a	n/a	ISITrial	Gain
411.1	2.997	0.018	1167.79	53.0	2	2.38	0.0	5.439	70.0	2.8	Outcome1	2.38	-1.73	2.99675	Yes	n/a	4.11262282690854	n/a	n/a	n/a	TrialHappPreview	Gain
414.125	4.029	0.028	1170.815	53.0	2	2.38	0.0	5.439	70.0	2.8	Outcome1	2.38	-1.73	2.99675	Yes	n/a	4.11262282690854	n/a	n/a	664.0	TrialHappiness	Gain
414.126	0.459	n/a	1171.433	53.0	2	2.38	0.0	5.439	70.0	2.8	Outcome1	2.38	-1.73	2.99675	Yes	n/a	4.11262282690854	n/a	n/a	664.0	TrialHappinessSliderResponse	Gain
418.154	3.987	4.029	1174.844	53.0	2	2.38	0.0	5.439	70.0	2.8	Outcome1	2.38	-1.73	2.99675	Yes	n/a	4.11262282690854	n/a	n/a	n/a	ISIRate	Gain
422.166	3.0	0.025	1178.856	54.0	2	-3.0	-3.0	5.064	70.0	4.2	Certain	10.1	-17.26	0.0	No	4.0	-27.358276643990894	0.947	423.113	n/a	GetAnswer	Gain
423.136	4.0	0.023	1179.826	54.0	2	-3.0	-3.0	5.064	70.0	4.2	Certain	10.1	-17.26	0.0	No	n/a	-27.358276643990894	n/a	n/a	n/a	ShowChoice	Gain
427.148	1.0	0.012	1183.838	54.0	2	-3.0	-3.0	5.064	70.0	4.2	Certain	10.1	-17.26	0.0	No	n/a	-27.358276643990894	n/a	n/a	n/a	ShowResult	Gain
428.168	8.0	0.02	1184.858	54.0	2	-3.0	-3.0	5.064	70.0	4.2	Certain	10.1	-17.26	0.0	No	n/a	-27.358276643990894	n/a	n/a	n/a	ISITrial	Gain
495.788	0.572	n/a	1253.099	n/a	2	n/a	n/a	n/a	n/a	n/a	n/a	n/a	n/a	n/a	n/a	n/a	n/a	n/a	n/a	720.0	BlockStartHappinessSliderResponse	n/a
-85.239	-0.001	0.024	1192.882	n/a	3	n/a	n/a	n/a	n/a	n/a	n/a	n/a	n/a	n/a	n/a	{SPACE}	n/a	55.569	-29.67	n/a	Rest	n/a
-29.656	4.0	0.014	1248.465	n/a	3	n/a	n/a	n/a	n/a	n/a	n/a	n/a	n/a	n/a	n/a	n/a	n/a	n/a	n/a	n/a	BlockHappyPreview	n/a
-25.644	1.193	0.012	1252.477	n/a	3	n/a	n/a	n/a	n/a	n/a	n/a	n/a	n/a	n/a	n/a	n/a	n/a	n/a	n/a	720.0	BlockStartHappiness	n/a
-2.107	-0.001	0.011	1276.014	n/a	3	n/a	n/a	n/a	n/a	n/a	n/a	n/a	n/a	n/a	n/a	5.0	n/a	2.081	-0.026	n/a	ScanWait	n/a
0.0	10.0	0.026	1278.121	n/a	3	n/a	n/a	n/a	n/a	n/a	n/a	n/a	n/a	n/a	n/a	n/a	n/a	n/a	n/a	n/a	GetReady	n/a
10.013	3.0	0.013	1288.134	55.0	3	1.75	2.0	5.2828	955.0	0.3	Outcome1	1.75	2.7	2.53325	Yes	2.0	-0.953661759154398	1.689	11.702	n/a	GetAnswer	Mixed
11.718	4.0	0.016	1289.839	55.0	3	1.75	2.0	5.2828	955.0	0.3	Outcome1	1.75	2.7	2.53325	Yes	n/a	-0.953661759154398	n/a	n/a	n/a	ShowChoice	Mixed
15.73	1.0	0.012	1293.851	55.0	3	1.75	2.0	5.2828	955.0	0.3	Outcome1	1.75	2.7	2.53325	Yes	n/a	-0.953661759154398	n/a	n/a	n/a	ShowResult	Mixed
16.75	7.709	0.02	1294.871	55.0	3	1.75	2.0	5.2828	955.0	0.3	Outcome1	1.75	2.7	2.53325	Yes	n/a	-0.953661759154398	n/a	n/a	n/a	ISITrial	Mixed
24.473	2.533	0.014	1302.594	55.0	3	1.75	2.0	5.2828	955.0	0.3	Outcome1	1.75	2.7	2.53325	Yes	n/a	-0.953661759154398	n/a	n/a	n/a	TrialHappPreview	Mixed
27.031	4.029	0.025	1305.152	55.0	3	1.75	2.0	5.2828	955.0	0.3	Outcome1	1.75	2.7	2.53325	Yes	n/a	-0.953661759154398	n/a	n/a	768.0	TrialHappiness	Mixed
27.031	0.674	n/a	1306.021	55.0	3	1.75	2.0	5.2828	955.0	0.3	Outcome1	1.75	2.7	2.53325	Yes	n/a	-0.953661759154398	n/a	n/a	768.0	TrialHappinessSliderResponse	Mixed
31.06	2.133	4.029	1309.181	55.0	3	1.75	2.0	5.2828	955.0	0.3	Outcome1	1.75	2.7	2.53325	Yes	n/a	-0.953661759154398	n/a	n/a	n/a	ISIRate	Mixed
33.216	3.0	0.023	1311.337	56.0	3	0.0	0.0	5.2828	955.0	1.2	Certain	-0.88	-0.1	0.0	No	4.0	-0.7810494526236321	1.453	34.669	n/a	GetAnswer	Mixed
34.687	4.0	0.018	1312.808	56.0	3	0.0	0.0	5.2828	955.0	1.2	Certain	-0.88	-0.1	0.0	No	n/a	-0.7810494526236321	n/a	n/a	n/a	ShowChoice	Mixed
38.699	1.0	0.012	1316.82	56.0	3	0.0	0.0	5.2828	955.0	1.2	Certain	-0.88	-0.1	0.0	No	n/a	-0.7810494526236321	n/a	n/a	n/a	ShowResult	Mixed
39.719	4.697	0.02	1317.84	56.0	3	0.0	0.0	5.2828	955.0	1.2	Certain	-0.88	-0.1	0.0	No	n/a	-0.7810494526236321	n/a	n/a	n/a	ISITrial	Mixed
44.45	3.0	0.034	1322.571	57.0	3	11.5	3.92	6.7203	955.0	2.8	Outcome2	7.85	11.5	0.0	No	2.0	3.6545866364665898	0.882	45.332	n/a	GetAnswer	Loss
45.352	4.0	0.02	1323.473	57.0	3	11.5	3.92	6.7203	955.0	2.8	Outcome2	7.85	11.5	0.0	No	n/a	3.6545866364665898	n/a	n/a	n/a	ShowChoice	Loss
49.364	1.0	0.012	1327.485	57.0	3	11.5	3.92	6.7203	955.0	2.8	Outcome2	7.85	11.5	0.0	No	n/a	3.6545866364665898	n/a	n/a	n/a	ShowResult	Loss
50.384	4.291	0.02	1328.505	57.0	3	11.5	3.92	6.7203	955.0	2.8	Outcome2	7.85	11.5	0.0	No	n/a	3.6545866364665898	n/a	n/a	n/a	ISITrial	Loss
54.697	3.0	0.022	1332.818	58.0	3	7.9	2.02	7.7078	955.0	3.6	Outcome2	4.03	7.9	3.04575	Yes	2.0	3.866364665911661	0.737	55.434	n/a	GetAnswer	Gain
55.449	4.0	0.015	1333.57	58.0	3	7.9	2.02	7.7078	955.0	3.6	Outcome2	4.03	7.9	3.04575	Yes	n/a	3.866364665911661	n/a	n/a	n/a	ShowChoice	Gain
59.461	1.0	0.012	1337.582	58.0	3	7.9	2.02	7.7078	955.0	3.6	Outcome2	4.03	7.9	3.04575	Yes	n/a	3.866364665911661	n/a	n/a	n/a	ShowResult	Gain
60.481	2.037	0.02	1338.602	58.0	3	7.9	2.02	7.7078	955.0	3.6	Outcome2	4.03	7.9	3.04575	Yes	n/a	3.866364665911661	n/a	n/a	n/a	ISITrial	Gain
62.537	3.046	0.019	1340.658	58.0	3	7.9	2.02	7.7078	955.0	3.6	Outcome2	4.03	7.9	3.04575	Yes	n/a	3.866364665911661	n/a	n/a	n/a	TrialHappPreview	Gain
65.613	4.012	0.03	1343.734	58.0	3	7.9	2.02	7.7078	955.0	3.6	Outcome2	4.03	7.9	3.04575	Yes	n/a	3.866364665911661	n/a	n/a	656.0	TrialHappiness	Gain
65.614	0.435	n/a	1344.576	58.0	3	7.9	2.02	7.7078	955.0	3.6	Outcome2	4.03	7.9	3.04575	Yes	n/a	3.866364665911661	n/a	n/a	656.0	TrialHappinessSliderResponse	Gain
69.625	4.183	4.012	1347.746	58.0	3	7.9	2.02	7.7078	955.0	3.6	Outcome2	4.03	7.9	3.04575	Yes	n/a	3.866364665911661	n/a	n/a	n/a	ISIRate	Gain
73.838	3.0	0.03	1351.959	59.0	3	5.61	2.8	8.408999999999999	955.0	2.0	Outcome1	5.61	6.9	0.0	No	n/a	-1.28850509626274	n/a	n/a	n/a	GetAnswer	Gain
76.864	4.0	0.026	1354.985	59.0	3	5.61	2.8	8.408999999999999	955.0	2.0	Outcome1	5.61	6.9	0.0	No	n/a	-1.28850509626274	n/a	n/a	n/a	ShowChoice	Gain
80.876	1.0	0.012	1358.997	59.0	3	5.61	2.8	8.408999999999999	955.0	2.0	Outcome1	5.61	6.9	0.0	No	n/a	-1.28850509626274	n/a	n/a	n/a	ShowResult	Gain
81.895	5.064	0.019	1360.016	59.0	3	5.61	2.8	8.408999999999999	955.0	2.0	Outcome1	5.61	6.9	0.0	No	n/a	-1.28850509626274	n/a	n/a	n/a	ISITrial	Gain
86.977	3.0	0.018	1365.098	60.0	3	2.0	2.0	8.658999999999999	955.0	2.22	Certain	-1.22	5.1	3.5625	Yes	4.0	6.3193657984145	0.529	87.506	n/a	GetAnswer	Gain
87.529	4.0	0.023	1365.65	60.0	3	2.0	2.0	8.658999999999999	955.0	2.22	Certain	-1.22	5.1	3.5625	Yes	n/a	6.3193657984145	n/a	n/a	n/a	ShowChoice	Gain
91.541	1.0	0.012	1369.662	60.0	3	2.0	2.0	8.658999999999999	955.0	2.22	Certain	-1.22	5.1	3.5625	Yes	n/a	6.3193657984145	n/a	n/a	n/a	ShowResult	Gain
92.561	8.0	0.02	1370.682	60.0	3	2.0	2.0	8.658999999999999	955.0	2.22	Certain	-1.22	5.1	3.5625	Yes	n/a	6.3193657984145	n/a	n/a	n/a	ISITrial	Gain
100.585	3.562	0.024	1378.706	60.0	3	2.0	2.0	8.658999999999999	955.0	2.22	Certain	-1.22	5.1	3.5625	Yes	n/a	6.3193657984145	n/a	n/a	n/a	TrialHappPreview	Gain
104.162	4.012	0.015	1382.283	60.0	3	2.0	2.0	8.658999999999999	955.0	2.22	Certain	-1.22	5.1	3.5625	Yes	n/a	6.3193657984145	n/a	n/a	792.0	TrialHappiness	Gain
104.163	0.737	n/a	1382.991	60.0	3	2.0	2.0	8.658999999999999	955.0	2.22	Certain	-1.22	5.1	3.5625	Yes	n/a	6.3193657984145	n/a	n/a	792.0	TrialHappinessSliderResponse	Gain
108.174	6.25	4.012	1386.295	60.0	3	2.0	2.0	8.658999999999999	955.0	2.22	Certain	-1.22	5.1	3.5625	Yes	n/a	6.3193657984145	n/a	n/a	n/a	ISIRate	Gain
114.443	3.0	0.019	1392.564	61.0	3	13.7	4.68	10.3715	955.0	3.16	Outcome2	9.35	13.7	0.0	No	2.0	4.347678369195919	1.329	115.772	n/a	GetAnswer	Loss
115.797	4.0	0.025	1393.918	61.0	3	13.7	4.68	10.3715	955.0	3.16	Outcome2	9.35	13.7	0.0	No	n/a	4.347678369195919	n/a	n/a	n/a	ShowChoice	Loss
119.809	1.0	0.012	1397.93	61.0	3	13.7	4.68	10.3715	955.0	3.16	Outcome2	9.35	13.7	0.0	No	n/a	4.347678369195919	n/a	n/a	n/a	ShowResult	Loss
120.829	4.586	0.02	1398.95	61.0	3	13.7	4.68	10.3715	955.0	3.16	Outcome2	9.35	13.7	0.0	No	n/a	4.347678369195919	n/a	n/a	n/a	ISITrial	Loss
125.443	3.0	0.028	1403.564	62.0	3	8.5	1.98	11.434	955.0	1.68	Outcome1	8.5	3.97	3.74875	Yes	2.0	4.532276330690831	1.585	127.028	n/a	GetAnswer	Gain
127.047	4.0	0.019	1405.168	62.0	3	8.5	1.98	11.434	955.0	1.68	Outcome1	8.5	3.97	3.74875	Yes	n/a	4.532276330690831	n/a	n/a	n/a	ShowChoice	Gain
131.059	1.0	0.012	1409.18	62.0	3	8.5	1.98	11.434	955.0	1.68	Outcome1	8.5	3.97	3.74875	Yes	n/a	4.532276330690831	n/a	n/a	n/a	ShowResult	Gain
132.079	5.212	0.02	1410.2	62.0	3	8.5	1.98	11.434	955.0	1.68	Outcome1	8.5	3.97	3.74875	Yes	n/a	4.532276330690831	n/a	n/a	n/a	ISITrial	Gain
137.312	3.749	0.021	1415.433	62.0	3	8.5	1.98	11.434	955.0	1.68	Outcome1	8.5	3.97	3.74875	Yes	n/a	4.532276330690831	n/a	n/a	n/a	TrialHappPreview	Gain
141.09	4.012	0.029	1419.211	62.0	3	8.5	1.98	11.434	955.0	1.68	Outcome1	8.5	3.97	3.74875	Yes	n/a	4.532276330690831	n/a	n/a	784.0	TrialHappiness	Gain
141.09	0.706	n/a	1419.816	62.0	3	8.5	1.98	11.434	955.0	1.68	Outcome1	8.5	3.97	3.74875	Yes	n/a	4.532276330690831	n/a	n/a	784.0	TrialHappinessSliderResponse	Gain
145.102	6.995	4.012	1423.223	62.0	3	8.5	1.98	11.434	955.0	1.68	Outcome1	8.5	3.97	3.74875	Yes	n/a	4.532276330690831	n/a	n/a	n/a	ISIRate	Gain
152.123	3.0	0.026	1430.244	63.0	3	12.5	3.82	12.9965	955.0	1.68	Outcome2	7.65	12.5	0.0	No	2.0	4.85277463193658	1.232	153.355	n/a	GetAnswer	Loss
153.376	4.0	0.02	1431.497	63.0	3	12.5	3.82	12.9965	955.0	1.68	Outcome2	7.65	12.5	0.0	No	n/a	4.85277463193658	n/a	n/a	n/a	ShowChoice	Loss
157.388	1.0	0.012	1435.509	63.0	3	12.5	3.82	12.9965	955.0	1.68	Outcome2	7.65	12.5	0.0	No	n/a	4.85277463193658	n/a	n/a	n/a	ShowResult	Loss
158.408	5.595	0.02	1436.529	63.0	3	12.5	3.82	12.9965	955.0	1.68	Outcome2	7.65	12.5	0.0	No	n/a	4.85277463193658	n/a	n/a	n/a	ISITrial	Loss
164.025	3.0	0.022	1442.146	64.0	3	10.5	2.72	14.309	955.0	1.68	Outcome1	10.5	5.45	0.0	No	2.0	5.04643261608154	0.348	164.373	n/a	GetAnswer	Loss
164.393	4.0	0.02	1442.514	64.0	3	10.5	2.72	14.309	955.0	1.68	Outcome1	10.5	5.45	0.0	No	n/a	5.04643261608154	n/a	n/a	n/a	ShowChoice	Loss
168.405	1.0	0.012	1446.526	64.0	3	10.5	2.72	14.309	955.0	1.68	Outcome1	10.5	5.45	0.0	No	n/a	5.04643261608154	n/a	n/a	n/a	ShowResult	Loss
169.425	5.47	0.02	1447.546	64.0	3	10.5	2.72	14.309	955.0	1.68	Outcome1	10.5	5.45	0.0	No	n/a	5.04643261608154	n/a	n/a	n/a	ISITrial	Loss
174.924	3.0	0.029	1453.045	65.0	3	3.21	1.6	14.7102	955.0	1.5	Outcome2	4.1	3.21	2.99675	Yes	2.0	-0.888542846357116	0.808	175.732	n/a	GetAnswer	Mixed
175.744	4.0	0.012	1453.865	65.0	3	3.21	1.6	14.7102	955.0	1.5	Outcome2	4.1	3.21	2.99675	Yes	n/a	-0.888542846357116	n/a	n/a	n/a	ShowChoice	Mixed
179.756	1.0	0.012	1457.877	65.0	3	3.21	1.6	14.7102	955.0	1.5	Outcome2	4.1	3.21	2.99675	Yes	n/a	-0.888542846357116	n/a	n/a	n/a	ShowResult	Mixed
180.775	3.344	0.019	1458.896	65.0	3	3.21	1.6	14.7102	955.0	1.5	Outcome2	4.1	3.21	2.99675	Yes	n/a	-0.888542846357116	n/a	n/a	n/a	ISITrial	Mixed
184.135	2.997	0.016	1462.256	65.0	3	3.21	1.6	14.7102	955.0	1.5	Outcome2	4.1	3.21	2.99675	Yes	n/a	-0.888542846357116	n/a	n/a	n/a	TrialHappPreview	Mixed
187.161	4.012	0.029	1465.282	65.0	3	3.21	1.6	14.7102	955.0	1.5	Outcome2	4.1	3.21	2.99675	Yes	n/a	-0.888542846357116	n/a	n/a	512.0	TrialHappiness	Mixed
187.162	0.0	n/a	1465.283	65.0	3	3.21	1.6	14.7102	955.0	1.5	Outcome2	4.1	3.21	2.99675	Yes	n/a	-0.888542846357116	n/a	n/a	512.0	TrialHappinessSliderResponse	Mixed
191.173	3.987	4.012	1469.294	65.0	3	3.21	1.6	14.7102	955.0	1.5	Outcome2	4.1	3.21	2.99675	Yes	n/a	-0.888542846357116	n/a	n/a	n/a	ISIRate	Mixed
195.185	3.0	0.025	1473.306	66.0	3	6.7	1.0	15.5477	955.0	1.82	Outcome2	-3.35	6.7	0.0	No	2.0	10.0543601359003	1.224	196.409	n/a	GetAnswer	Gain
196.422	4.0	0.013	1474.543	66.0	3	6.7	1.0	15.5477	955.0	1.82	Outcome2	-3.35	6.7	0.0	No	n/a	10.0543601359003	n/a	n/a	n/a	ShowChoice	Gain
200.434	1.0	0.012	1478.555	66.0	3	6.7	1.0	15.5477	955.0	1.82	Outcome2	-3.35	6.7	0.0	No	n/a	10.0543601359003	n/a	n/a	n/a	ShowResult	Gain
201.454	3.959	0.02	1479.575	66.0	3	6.7	1.0	15.5477	955.0	1.82	Outcome2	-3.35	6.7	0.0	No	n/a	10.0543601359003	n/a	n/a	n/a	ISITrial	Gain
205.433	3.0	0.02	1483.554	67.0	3	-0.5	-6.0	15.4852	955.0	0.82	Outcome1	-0.5	-11.06	2.9185	Yes	2.0	10.5560588901472	0.905	206.338	n/a	GetAnswer	Mixed
206.352	4.0	0.014	1484.473	67.0	3	-0.5	-6.0	15.4852	955.0	0.82	Outcome1	-0.5	-11.06	2.9185	Yes	n/a	10.5560588901472	n/a	n/a	n/a	ShowChoice	Mixed
210.364	1.0	0.012	1488.485	67.0	3	-0.5	-6.0	15.4852	955.0	0.82	Outcome1	-0.5	-11.06	2.9185	Yes	n/a	10.5560588901472	n/a	n/a	n/a	ShowResult	Mixed
211.384	4.199	0.02	1489.505	67.0	3	-0.5	-6.0	15.4852	955.0	0.82	Outcome1	-0.5	-11.06	2.9185	Yes	n/a	10.5560588901472	n/a	n/a	n/a	ISITrial	Mixed
215.596	2.918	0.013	1493.717	67.0	3	-0.5	-6.0	15.4852	955.0	0.82	Outcome1	-0.5	-11.06	2.9185	Yes	n/a	10.5560588901472	n/a	n/a	n/a	TrialHappPreview	Mixed
218.539	4.012	0.025	1496.66	67.0	3	-0.5	-6.0	15.4852	955.0	0.82	Outcome1	-0.5	-11.06	2.9185	Yes	n/a	10.5560588901472	n/a	n/a	728.0	TrialHappiness	Mixed
218.539	0.59	n/a	1497.446	67.0	3	-0.5	-6.0	15.4852	955.0	0.82	Outcome1	-0.5	-11.06	2.9185	Yes	n/a	10.5560588901472	n/a	n/a	728.0	TrialHappinessSliderResponse	Mixed
222.551	3.674	4.012	1500.672	67.0	3	-0.5	-6.0	15.4852	955.0	0.82	Outcome1	-0.5	-11.06	2.9185	Yes	n/a	10.5560588901472	n/a	n/a	n/a	ISIRate	Mixed
226.245	3.0	0.02	1504.366	68.0	3	0.9	-3.0	15.5977	955.0	0.4	Outcome2	-6.49	0.9	0.0	No	n/a	7.38844847112118	n/a	n/a	n/a	GetAnswer	Mixed
229.271	4.0	0.026	1507.392	68.0	3	0.9	-3.0	15.5977	955.0	0.4	Outcome2	-6.49	0.9	0.0	No	n/a	7.38844847112118	n/a	n/a	n/a	ShowChoice	Mixed
233.283	1.0	0.012	1511.404	68.0	3	0.9	-3.0	15.5977	955.0	0.4	Outcome2	-6.49	0.9	0.0	No	n/a	7.38844847112118	n/a	n/a	n/a	ShowResult	Mixed
234.303	2.185	0.02	1512.424	68.0	3	0.9	-3.0	15.5977	955.0	0.4	Outcome2	-6.49	0.9	0.0	No	n/a	7.38844847112118	n/a	n/a	n/a	ISITrial	Mixed
236.509	3.0	0.021	1514.63	69.0	3	0.3	-3.0	15.6352	955.0	2.0	Outcome2	-7.35	0.3	0.0	No	2.0	7.64552661381653	0.893	237.402	n/a	GetAnswer	Mixed
237.429	4.0	0.027	1515.55	69.0	3	0.3	-3.0	15.6352	955.0	2.0	Outcome2	-7.35	0.3	0.0	No	n/a	7.64552661381653	n/a	n/a	n/a	ShowChoice	Mixed
241.441	1.0	0.012	1519.562	69.0	3	0.3	-3.0	15.6352	955.0	2.0	Outcome2	-7.35	0.3	0.0	No	n/a	7.64552661381653	n/a	n/a	n/a	ShowResult	Mixed
242.46	2.0	0.019	1520.581	69.0	3	0.3	-3.0	15.6352	955.0	2.0	Outcome2	-7.35	0.3	0.0	No	n/a	7.64552661381653	n/a	n/a	n/a	ISITrial	Mixed
244.483	3.0	0.023	1522.604	70.0	3	4.5	0.0	16.1977	955.0	1.68	Outcome2	-3.4	4.5	3.65125	Yes	2.0	7.90260475651189	1.914	246.397	n/a	GetAnswer	Gain
246.422	4.0	0.025	1524.543	70.0	3	4.5	0.0	16.1977	955.0	1.68	Outcome2	-3.4	4.5	3.65125	Yes	n/a	7.90260475651189	n/a	n/a	n/a	ShowChoice	Gain
250.434	1.0	0.012	1528.555	70.0	3	4.5	0.0	16.1977	955.0	1.68	Outcome2	-3.4	4.5	3.65125	Yes	n/a	7.90260475651189	n/a	n/a	n/a	ShowResult	Gain
251.454	2.623	0.02	1529.575	70.0	3	4.5	0.0	16.1977	955.0	1.68	Outcome2	-3.4	4.5	3.65125	Yes	n/a	7.90260475651189	n/a	n/a	n/a	ISITrial	Gain
254.095	3.651	0.018	1532.216	70.0	3	4.5	0.0	16.1977	955.0	1.68	Outcome2	-3.4	4.5	3.65125	Yes	n/a	7.90260475651189	n/a	n/a	n/a	TrialHappPreview	Gain
257.773	4.012	0.027	1535.894	70.0	3	4.5	0.0	16.1977	955.0	1.68	Outcome2	-3.4	4.5	3.65125	Yes	n/a	7.90260475651189	n/a	n/a	672.0	TrialHappiness	Gain
257.774	0.471	n/a	1536.366	70.0	3	4.5	0.0	16.1977	955.0	1.68	Outcome2	-3.4	4.5	3.65125	Yes	n/a	7.90260475651189	n/a	n/a	672.0	TrialHappinessSliderResponse	Gain
261.785	6.605	4.012	1539.906	70.0	3	4.5	0.0	16.1977	955.0	1.68	Outcome2	-3.4	4.5	3.65125	Yes	n/a	7.90260475651189	n/a	n/a	n/a	ISIRate	Gain
268.422	3.0	0.032	1546.543	71.0	3	6.1	1.0	16.9602	955.0	4.2	Outcome1	6.1	-3.01	0.0	No	n/a	9.11098527746319	n/a	n/a	n/a	GetAnswer	Gain
271.447	4.0	0.025	1549.568	71.0	3	6.1	1.0	16.9602	955.0	4.2	Outcome1	6.1	-3.01	0.0	No	n/a	9.11098527746319	n/a	n/a	n/a	ShowChoice	Gain
275.459	1.0	0.012	1553.58	71.0	3	6.1	1.0	16.9602	955.0	4.2	Outcome1	6.1	-3.01	0.0	No	n/a	9.11098527746319	n/a	n/a	n/a	ShowResult	Gain
276.479	5.499	0.02	1554.6	71.0	3	6.1	1.0	16.9602	955.0	4.2	Outcome1	6.1	-3.01	0.0	No	n/a	9.11098527746319	n/a	n/a	n/a	ISITrial	Gain
281.996	3.0	0.018	1560.117	72.0	3	5.3	0.0	17.6227	955.0	2.48	Outcome2	-4.13	5.3	3.0805	Yes	n/a	9.43148357870895	n/a	n/a	n/a	GetAnswer	Gain
285.021	4.0	0.025	1563.142	72.0	3	5.3	0.0	17.6227	955.0	2.48	Outcome2	-4.13	5.3	3.0805	Yes	n/a	9.43148357870895	n/a	n/a	n/a	ShowChoice	Gain
289.033	1.0	0.012	1567.154	72.0	3	5.3	0.0	17.6227	955.0	2.48	Outcome2	-4.13	5.3	3.0805	Yes	n/a	9.43148357870895	n/a	n/a	n/a	ShowResult	Gain
290.053	5.672	0.02	1568.174	72.0	3	5.3	0.0	17.6227	955.0	2.48	Outcome2	-4.13	5.3	3.0805	Yes	n/a	9.43148357870895	n/a	n/a	n/a	ISITrial	Gain
295.737	3.08	0.012	1573.858	72.0	3	5.3	0.0	17.6227	955.0	2.48	Outcome2	-4.13	5.3	3.0805	Yes	n/a	9.43148357870895	n/a	n/a	n/a	TrialHappPreview	Gain
298.846	4.012	0.029	1576.967	72.0	3	5.3	0.0	17.6227	955.0	2.48	Outcome2	-4.13	5.3	3.0805	Yes	2{-2}	9.43148357870895	2.179	301.025	688.0	TrialHappiness	Gain
298.847	0.505	n/a	1578.642	72.0	3	5.3	0.0	17.6227	955.0	2.48	Outcome2	-4.13	5.3	3.0805	Yes	n/a	9.43148357870895	n/a	n/a	688.0	TrialHappinessSliderResponse	Gain
302.858	4.322	4.012	1580.979	72.0	3	5.3	0.0	17.6227	955.0	2.48	Outcome2	-4.13	5.3	3.0805	Yes	n/a	9.43148357870895	n/a	n/a	n/a	ISIRate	Gain
307.205	3.0	0.025	1585.326	73.0	3	-1.3	-6.0	17.4602	955.0	0.3	Outcome1	-1.3	-10.78	0.0	No	2.0	9.480181200453	2.175	309.38	n/a	GetAnswer	Mixed
309.394	4.0	0.014	1587.515	73.0	3	-1.3	-6.0	17.4602	955.0	0.3	Outcome1	-1.3	-10.78	0.0	No	n/a	9.480181200453	n/a	n/a	n/a	ShowChoice	Mixed
313.406	1.0	0.012	1591.527	73.0	3	-1.3	-6.0	17.4602	955.0	0.3	Outcome1	-1.3	-10.78	0.0	No	n/a	9.480181200453	n/a	n/a	n/a	ShowResult	Mixed
314.426	4.616	0.02	1592.547	73.0	3	-1.3	-6.0	17.4602	955.0	0.3	Outcome1	-1.3	-10.78	0.0	No	n/a	9.480181200453	n/a	n/a	n/a	ISITrial	Mixed
319.074	3.0	0.032	1597.195	74.0	3	5.5	0.0	18.1477	955.0	2.8	Outcome1	5.5	-4.28	3.05625	Yes	2.0	9.78255945639864	1.529	320.603	n/a	GetAnswer	Gain
320.628	4.0	0.025	1598.749	74.0	3	5.5	0.0	18.1477	955.0	2.8	Outcome1	5.5	-4.28	3.05625	Yes	n/a	9.78255945639864	n/a	n/a	n/a	ShowChoice	Gain
324.64	1.0	0.012	1602.761	74.0	3	5.5	0.0	18.1477	955.0	2.8	Outcome1	5.5	-4.28	3.05625	Yes	n/a	9.78255945639864	n/a	n/a	n/a	ShowResult	Gain
325.66	3.909	0.02	1603.781	74.0	3	5.5	0.0	18.1477	955.0	2.8	Outcome1	5.5	-4.28	3.05625	Yes	n/a	9.78255945639864	n/a	n/a	n/a	ISITrial	Gain
329.588	3.056	0.019	1607.709	74.0	3	5.5	0.0	18.1477	955.0	2.8	Outcome1	5.5	-4.28	3.05625	Yes	n/a	9.78255945639864	n/a	n/a	n/a	TrialHappPreview	Gain
332.664	4.012	0.02	1610.785	74.0	3	5.5	0.0	18.1477	955.0	2.8	Outcome1	5.5	-4.28	3.05625	Yes	2{-2}	9.78255945639864	3.567	336.231	728.0	TrialHappiness	Gain
332.665	0.591	n/a	1613.762	74.0	3	5.5	0.0	18.1477	955.0	2.8	Outcome1	5.5	-4.28	3.05625	Yes	n/a	9.78255945639864	n/a	n/a	728.0	TrialHappinessSliderResponse	Gain
336.676	4.225	4.012	1614.797	74.0	3	5.5	0.0	18.1477	955.0	2.8	Outcome1	5.5	-4.28	3.05625	Yes	n/a	9.78255945639864	n/a	n/a	n/a	ISIRate	Gain
340.922	3.0	0.021	1619.043	75.0	3	0.7	-4.0	18.2352	955.0	0.3	Outcome1	0.7	-8.71	0.0	No	2.0	9.40543601359003	0.784	341.706	n/a	GetAnswer	Mixed
341.725	4.0	0.019	1619.846	75.0	3	0.7	-4.0	18.2352	955.0	0.3	Outcome1	0.7	-8.71	0.0	No	n/a	9.40543601359003	n/a	n/a	n/a	ShowChoice	Mixed
345.737	1.0	0.012	1623.858	75.0	3	0.7	-4.0	18.2352	955.0	0.3	Outcome1	0.7	-8.71	0.0	No	n/a	9.40543601359003	n/a	n/a	n/a	ShowResult	Mixed
346.757	4.979	0.02	1624.878	75.0	3	0.7	-4.0	18.2352	955.0	0.3	Outcome1	0.7	-8.71	0.0	No	n/a	9.40543601359003	n/a	n/a	n/a	ISITrial	Mixed
351.755	3.0	0.019	1629.876	76.0	3	4.49	2.24	18.7964	955.0	3.6	Outcome2	5.9	4.49	0.0	No	n/a	-1.40505851264628	n/a	n/a	n/a	GetAnswer	Gain
354.781	4.0	0.026	1632.902	76.0	3	4.49	2.24	18.7964	955.0	3.6	Outcome2	5.9	4.49	0.0	No	n/a	-1.40505851264628	n/a	n/a	n/a	ShowChoice	Gain
358.793	1.0	0.012	1636.914	76.0	3	4.49	2.24	18.7964	955.0	3.6	Outcome2	5.9	4.49	0.0	No	n/a	-1.40505851264628	n/a	n/a	n/a	ShowResult	Gain
359.812	3.931	0.019	1637.933	76.0	3	4.49	2.24	18.7964	955.0	3.6	Outcome2	5.9	4.49	0.0	No	n/a	-1.40505851264628	n/a	n/a	n/a	ISITrial	Gain
363.774	3.0	0.031	1641.895	77.0	3	0.5	-4.0	18.8589	955.0	0.2	Outcome2	-9.42	0.5	4.0	Yes	n/a	9.91959229898075	n/a	n/a	n/a	GetAnswer	Mixed
366.8	4.0	0.026	1644.921	77.0	3	0.5	-4.0	18.8589	955.0	0.2	Outcome2	-9.42	0.5	4.0	Yes	n/a	9.91959229898075	n/a	n/a	n/a	ShowChoice	Mixed
370.812	1.0	0.012	1648.933	77.0	3	0.5	-4.0	18.8589	955.0	0.2	Outcome2	-9.42	0.5	4.0	Yes	n/a	9.91959229898075	n/a	n/a	n/a	ShowResult	Mixed
371.832	7.022	0.02	1649.953	77.0	3	0.5	-4.0	18.8589	955.0	0.2	Outcome2	-9.42	0.5	4.0	Yes	n/a	9.91959229898075	n/a	n/a	n/a	ISITrial	Mixed
378.87	4.0	0.016	1656.991	77.0	3	0.5	-4.0	18.8589	955.0	0.2	Outcome2	-9.42	0.5	4.0	Yes	n/a	9.91959229898075	n/a	n/a	n/a	TrialHappPreview	Mixed
382.898	4.012	0.028	1661.019	77.0	3	0.5	-4.0	18.8589	955.0	0.2	Outcome2	-9.42	0.5	4.0	Yes	n/a	9.91959229898075	n/a	n/a	760.0	TrialHappiness	Mixed
382.899	0.653	n/a	1661.994	77.0	3	0.5	-4.0	18.8589	955.0	0.2	Outcome2	-9.42	0.5	4.0	Yes	n/a	9.91959229898075	n/a	n/a	760.0	TrialHappinessSliderResponse	Mixed
386.91	8.0	4.012	1665.031	77.0	3	0.5	-4.0	18.8589	955.0	0.2	Outcome2	-9.42	0.5	4.0	Yes	n/a	9.91959229898075	n/a	n/a	n/a	ISIRate	Mixed
394.934	3.0	0.024	1673.055	78.0	3	-1.5	-6.0	18.6714	955.0	0.2	Outcome2	-11.13	-1.5	0.0	No	n/a	9.63306908267271	n/a	n/a	n/a	GetAnswer	Mixed
397.96	4.0	0.026	1676.081	78.0	3	-1.5	-6.0	18.6714	955.0	0.2	Outcome2	-11.13	-1.5	0.0	No	n/a	9.63306908267271	n/a	n/a	n/a	ShowChoice	Mixed
401.972	1.0	0.012	1680.093	78.0	3	-1.5	-6.0	18.6714	955.0	0.2	Outcome2	-11.13	-1.5	0.0	No	n/a	9.63306908267271	n/a	n/a	n/a	ShowResult	Mixed
402.992	2.078	0.02	1681.113	78.0	3	-1.5	-6.0	18.6714	955.0	0.2	Outcome2	-11.13	-1.5	0.0	No	n/a	9.63306908267271	n/a	n/a	n/a	ISITrial	Mixed
405.098	3.0	0.028	1683.219	79.0	3	9.3	-0.28	19.8339	955.0	2.48	Outcome1	9.3	-0.55	2.7295	Yes	n/a	9.85390713476784	n/a	n/a	n/a	GetAnswer	Gain
408.124	4.0	0.026	1686.245	79.0	3	9.3	-0.28	19.8339	955.0	2.48	Outcome1	9.3	-0.55	2.7295	Yes	n/a	9.85390713476784	n/a	n/a	n/a	ShowChoice	Gain
412.136	1.0	0.012	1690.257	79.0	3	9.3	-0.28	19.8339	955.0	2.48	Outcome1	9.3	-0.55	2.7295	Yes	n/a	9.85390713476784	n/a	n/a	n/a	ShowResult	Gain
413.156	3.829	0.02	1691.277	79.0	3	9.3	-0.28	19.8339	955.0	2.48	Outcome1	9.3	-0.55	2.7295	Yes	n/a	9.85390713476784	n/a	n/a	n/a	ISITrial	Gain
417.001	2.73	0.016	1695.122	79.0	3	9.3	-0.28	19.8339	955.0	2.48	Outcome1	9.3	-0.55	2.7295	Yes	n/a	9.85390713476784	n/a	n/a	n/a	TrialHappPreview	Gain
419.759	4.012	0.028	1697.88	79.0	3	9.3	-0.28	19.8339	955.0	2.48	Outcome1	9.3	-0.55	2.7295	Yes	n/a	9.85390713476784	n/a	n/a	512.0	TrialHappiness	Gain
419.759	0.0	n/a	1697.88	79.0	3	9.3	-0.28	19.8339	955.0	2.48	Outcome1	9.3	-0.55	2.7295	Yes	n/a	9.85390713476784	n/a	n/a	512.0	TrialHappinessSliderResponse	Gain
423.771	2.918	4.012	1701.892	79.0	3	9.3	-0.28	19.8339	955.0	2.48	Outcome1	9.3	-0.55	2.7295	Yes	n/a	9.85390713476784	n/a	n/a	n/a	ISIRate	Gain
426.713	3.0	0.024	1704.834	80.0	3	-3.46	-2.0	19.4014	955.0	0.4	Outcome2	-1.1	-3.46	0.0	No	n/a	-2.36126840317101	n/a	n/a	n/a	GetAnswer	Mixed
429.739	4.0	0.026	1707.86	80.0	3	-3.46	-2.0	19.4014	955.0	0.4	Outcome2	-1.1	-3.46	0.0	No	n/a	-2.36126840317101	n/a	n/a	n/a	ShowChoice	Mixed
433.751	1.0	0.012	1711.872	80.0	3	-3.46	-2.0	19.4014	955.0	0.4	Outcome2	-1.1	-3.46	0.0	No	n/a	-2.36126840317101	n/a	n/a	n/a	ShowResult	Mixed
434.771	3.336	0.02	1712.892	80.0	3	-3.46	-2.0	19.4014	955.0	0.4	Outcome2	-1.1	-3.46	0.0	No	n/a	-2.36126840317101	n/a	n/a	n/a	ISITrial	Mixed
438.131	3.0	0.024	1716.252	81.0	3	13.1	-0.84	21.0389	955.0	2.22	Outcome1	13.1	-1.69	3.92375	Yes	n/a	14.7893544733862	n/a	n/a	n/a	GetAnswer	Loss
441.156	4.0	0.025	1719.277	81.0	3	13.1	-0.84	21.0389	955.0	2.22	Outcome1	13.1	-1.69	3.92375	Yes	n/a	14.7893544733862	n/a	n/a	n/a	ShowChoice	Loss
445.168	1.0	0.012	1723.289	81.0	3	13.1	-0.84	21.0389	955.0	2.22	Outcome1	13.1	-1.69	3.92375	Yes	n/a	14.7893544733862	n/a	n/a	n/a	ShowResult	Loss
446.188	3.919	0.02	1724.309	81.0	3	13.1	-0.84	21.0389	955.0	2.22	Outcome1	13.1	-1.69	3.92375	Yes	n/a	14.7893544733862	n/a	n/a	n/a	ISITrial	Loss
450.133	3.924	0.026	1728.254	81.0	3	13.1	-0.84	21.0389	955.0	2.22	Outcome1	13.1	-1.69	3.92375	Yes	n/a	14.7893544733862	n/a	n/a	n/a	TrialHappPreview	Loss
454.078	4.013	0.021	1732.199	81.0	3	13.1	-0.84	21.0389	955.0	2.22	Outcome1	13.1	-1.69	3.92375	Yes	n/a	14.7893544733862	n/a	n/a	744.0	TrialHappiness	Loss
454.079	0.622	n/a	1732.755	81.0	3	13.1	-0.84	21.0389	955.0	2.22	Outcome1	13.1	-1.69	3.92375	Yes	n/a	14.7893544733862	n/a	n/a	744.0	TrialHappinessSliderResponse	Loss
458.091	7.695	4.013	1736.212	81.0	3	13.1	-0.84	21.0389	955.0	2.22	Outcome1	13.1	-1.69	3.92375	Yes	n/a	14.7893544733862	n/a	n/a	n/a	ISIRate	Loss
465.814	3.0	0.028	1743.935	n/a	3	n/a	n/a	n/a	n/a	n/a	n/a	n/a	n/a	n/a	n/a	n/a	n/a	n/a	n/a	n/a	CurrentEarnings	n/a
468.839	-0.001	0.025	1746.96	n/a	3	n/a	n/a	n/a	n/a	n/a	n/a	n/a	n/a	n/a	n/a	2.0	n/a	1.6	470.439	n/a	Goodbye	n/a
