onset	duration	onset_delay	onset_unadjusted	trial_number	block	amount_change	certain_amount	current_amount	mood_target	multiplier	outcome	outcome1_amount	outcome2_amount	question_duration	rating	response	rpe	rt	rt_time	slider_response	trial_phase	trial_type
-34.022	-0.001	0.037	14.016	n/a	0	n/a	n/a	n/a	n/a	n/a	n/a	n/a	n/a	n/a	n/a	{SPACE}	n/a	1.923	-32.099	n/a	Welcome	n/a
-32.072	5.0	0.027	15.966	n/a	0	n/a	n/a	n/a	n/a	n/a	n/a	n/a	n/a	n/a	n/a	n/a	n/a	n/a	n/a	n/a	LifeHappyPreview	n/a
-27.041	3.857	0.031	20.997	n/a	0	n/a	n/a	n/a	n/a	n/a	n/a	n/a	n/a	n/a	n/a	n/a	n/a	n/a	n/a	844.0	LifeHappiness	n/a
-27.04	3.447	n/a	21.408	n/a	0	n/a	n/a	n/a	n/a	n/a	n/a	n/a	n/a	n/a	n/a	n/a	n/a	n/a	n/a	844.0	LifeHappinessSliderResponse	n/a
-13.945	4.0	0.024	34.093	n/a	0	n/a	n/a	n/a	n/a	n/a	n/a	n/a	n/a	n/a	n/a	n/a	n/a	n/a	n/a	n/a	BlockHappyPreview	n/a
-9.93	2.393	0.015	38.108	n/a	0	n/a	n/a	n/a	n/a	n/a	n/a	n/a	n/a	n/a	n/a	n/a	n/a	n/a	n/a	848.0	BlockStartHappiness	n/a
-9.93	1.941	n/a	38.56	n/a	0	n/a	n/a	n/a	n/a	n/a	n/a	n/a	n/a	n/a	n/a	n/a	n/a	n/a	n/a	848.0	BlockStartHappinessSliderResponse	n/a
-3.766	-0.001	0.014	44.272	n/a	0	n/a	n/a	n/a	n/a	n/a	n/a	n/a	n/a	n/a	n/a	5.0	n/a	3.753	-0.013	n/a	ScanWait	n/a
0.0	10.0	0.013	48.038	n/a	1	n/a	n/a	n/a	n/a	n/a	n/a	n/a	n/a	n/a	n/a	n/a	n/a	n/a	n/a	n/a	GetReady	n/a
10.029	3.0	0.029	58.067	1.0	1	11.9	5.04	11.4875	955.0	3.6	Outcome1	11.9	10.08	0.0	No	2.0	1.8176670441676104	0.733	10.762	n/a	GetAnswer	Loss
10.779	4.0	0.017	58.817	1.0	1	11.9	5.04	11.4875	955.0	3.6	Outcome1	11.9	10.08	0.0	No	n/a	1.8176670441676104	n/a	n/a	n/a	ShowChoice	Loss
14.794	1.0	0.015	62.832	1.0	1	11.9	5.04	11.4875	955.0	3.6	Outcome1	11.9	10.08	0.0	No	n/a	1.8176670441676104	n/a	n/a	n/a	ShowResult	Loss
15.811	2.431	0.017	63.849	1.0	1	11.9	5.04	11.4875	955.0	3.6	Outcome1	11.9	10.08	0.0	No	n/a	1.8176670441676104	n/a	n/a	n/a	ISITrial	Loss
18.277	3.0	0.035	66.315	2.0	1	0.0	0.0	11.4875	955.0	2.0	Certain	-1.64	0.3	0.0	No	4.0	1.93884484711212	1.255	19.532	n/a	GetAnswer	Mixed
19.559	4.0	0.027	67.597	2.0	1	0.0	0.0	11.4875	955.0	2.0	Certain	-1.64	0.3	0.0	No	n/a	1.93884484711212	n/a	n/a	n/a	ShowChoice	Mixed
23.575	1.0	0.016	71.613	2.0	1	0.0	0.0	11.4875	955.0	2.0	Certain	-1.64	0.3	0.0	No	n/a	1.93884484711212	n/a	n/a	n/a	ShowResult	Mixed
24.591	4.568	0.016	72.629	2.0	1	0.0	0.0	11.4875	955.0	2.0	Certain	-1.64	0.3	0.0	No	n/a	1.93884484711212	n/a	n/a	n/a	ISITrial	Mixed
29.189	3.0	0.03	77.227	3.0	1	3.1	2.0	11.875	955.0	0.52	Outcome1	3.1	1.04	2.868	Yes	2.0	2.06002265005663	0.572	29.761	n/a	GetAnswer	Mixed
29.789	4.0	0.028	77.827	3.0	1	3.1	2.0	11.875	955.0	0.52	Outcome1	3.1	1.04	2.868	Yes	n/a	2.06002265005663	n/a	n/a	n/a	ShowChoice	Mixed
33.804	1.0	0.015	81.842	3.0	1	3.1	2.0	11.875	955.0	0.52	Outcome1	3.1	1.04	2.868	Yes	n/a	2.06002265005663	n/a	n/a	n/a	ShowResult	Mixed
34.821	3.243	0.017	82.859	3.0	1	3.1	2.0	11.875	955.0	0.52	Outcome1	3.1	1.04	2.868	Yes	n/a	2.06002265005663	n/a	n/a	n/a	ISITrial	Mixed
38.086	2.868	0.022	86.124	3.0	1	3.1	2.0	11.875	955.0	0.52	Outcome1	3.1	1.04	2.868	Yes	n/a	2.06002265005663	n/a	n/a	n/a	TrialHappPreview	Mixed
40.985	4.015	0.031	89.023	3.0	1	3.1	2.0	11.875	955.0	0.52	Outcome1	3.1	1.04	2.868	Yes	2{-2}4{-4}	2.06002265005663	3.571	44.556	828.0	TrialHappiness	Mixed
40.986	3.238	n/a	89.357	3.0	1	3.1	2.0	11.875	955.0	0.52	Outcome1	3.1	1.04	2.868	Yes	n/a	2.06002265005663	n/a	n/a	828.0	TrialHappinessSliderResponse	Mixed
45.0	3.472	4.015	93.038	3.0	1	3.1	2.0	11.875	955.0	0.52	Outcome1	3.1	1.04	2.868	Yes	n/a	2.06002265005663	n/a	n/a	n/a	ISIRate	Mixed
48.499	3.0	0.027	96.537	4.0	1	0.0	0.0	11.875	955.0	1.0	Certain	-0.3	-0.85	0.0	No	4.0	-0.545677614194035	0.88	49.379	n/a	GetAnswer	Mixed
49.399	4.0	0.02	97.437	4.0	1	0.0	0.0	11.875	955.0	1.0	Certain	-0.3	-0.85	0.0	No	n/a	-0.545677614194035	n/a	n/a	n/a	ShowChoice	Mixed
53.414	1.0	0.015	101.452	4.0	1	0.0	0.0	11.875	955.0	1.0	Certain	-0.3	-0.85	0.0	No	n/a	-0.545677614194035	n/a	n/a	n/a	ShowResult	Mixed
54.431	2.011	0.017	102.469	4.0	1	0.0	0.0	11.875	955.0	1.0	Certain	-0.3	-0.85	0.0	No	n/a	-0.545677614194035	n/a	n/a	n/a	ISITrial	Mixed
56.463	3.0	0.021	104.501	5.0	1	1.0	1.0	12.0	955.0	1.5	Certain	-0.56	2.1	2.5825	Yes	4.0	2.6647791619479	1.122	57.585	n/a	GetAnswer	Mixed
57.613	4.0	0.028	105.651	5.0	1	1.0	1.0	12.0	955.0	1.5	Certain	-0.56	2.1	2.5825	Yes	n/a	2.6647791619479	n/a	n/a	n/a	ShowChoice	Mixed
61.628	1.0	0.015	109.666	5.0	1	1.0	1.0	12.0	955.0	1.5	Certain	-0.56	2.1	2.5825	Yes	n/a	2.6647791619479	n/a	n/a	n/a	ShowResult	Mixed
62.644	5.129	0.016	110.682	5.0	1	1.0	1.0	12.0	955.0	1.5	Certain	-0.56	2.1	2.5825	Yes	n/a	2.6647791619479	n/a	n/a	n/a	ISITrial	Mixed
67.792	2.582	0.019	115.83	5.0	1	1.0	1.0	12.0	955.0	1.5	Certain	-0.56	2.1	2.5825	Yes	n/a	2.6647791619479	n/a	n/a	n/a	TrialHappPreview	Mixed
70.392	4.015	0.018	118.43	5.0	1	1.0	1.0	12.0	955.0	1.5	Certain	-0.56	2.1	2.5825	Yes	n/a	2.6647791619479	n/a	n/a	848.0	TrialHappiness	Mixed
70.392	1.464	n/a	118.722	5.0	1	1.0	1.0	12.0	955.0	1.5	Certain	-0.56	2.1	2.5825	Yes	n/a	2.6647791619479	n/a	n/a	848.0	TrialHappinessSliderResponse	Mixed
74.407	2.33	4.015	122.445	5.0	1	1.0	1.0	12.0	955.0	1.5	Certain	-0.56	2.1	2.5825	Yes	n/a	2.6647791619479	n/a	n/a	n/a	ISIRate	Mixed
76.756	3.0	0.019	124.794	6.0	1	5.7	1.62	12.7125	955.0	3.16	Outcome1	5.7	3.23	0.0	No	2.0	2.46885617214043	0.697	77.453	n/a	GetAnswer	Gain
77.472	4.0	0.019	125.51	6.0	1	5.7	1.62	12.7125	955.0	3.16	Outcome1	5.7	3.23	0.0	No	n/a	2.46885617214043	n/a	n/a	n/a	ShowChoice	Gain
81.488	1.0	0.016	129.526	6.0	1	5.7	1.62	12.7125	955.0	3.16	Outcome1	5.7	3.23	0.0	No	n/a	2.46885617214043	n/a	n/a	n/a	ShowResult	Gain
82.504	6.232	0.016	130.542	6.0	1	5.7	1.62	12.7125	955.0	3.16	Outcome1	5.7	3.23	0.0	No	n/a	2.46885617214043	n/a	n/a	n/a	ISITrial	Gain
88.768	3.0	0.032	136.806	7.0	1	6.8	3.4	13.5625	955.0	2.48	Outcome1	6.8	7.3	0.0	No	2.0	-0.498584371460929	0.563	89.331	n/a	GetAnswer	Gain
89.352	4.0	0.021	137.39	7.0	1	6.8	3.4	13.5625	955.0	2.48	Outcome1	6.8	7.3	0.0	No	n/a	-0.498584371460929	n/a	n/a	n/a	ShowChoice	Gain
93.367	1.0	0.015	141.405	7.0	1	6.8	3.4	13.5625	955.0	2.48	Outcome1	6.8	7.3	0.0	No	n/a	-0.498584371460929	n/a	n/a	n/a	ShowResult	Gain
94.383	2.305	0.016	142.421	7.0	1	6.8	3.4	13.5625	955.0	2.48	Outcome1	6.8	7.3	0.0	No	n/a	-0.498584371460929	n/a	n/a	n/a	ISITrial	Gain
96.716	3.0	0.028	144.754	8.0	1	9.9	3.6	14.8	955.0	3.6	Outcome1	9.9	7.19	3.1125	Yes	2.0	2.71121177802944	0.828	97.544	n/a	GetAnswer	Gain
97.565	4.0	0.021	145.603	8.0	1	9.9	3.6	14.8	955.0	3.6	Outcome1	9.9	7.19	3.1125	Yes	n/a	2.71121177802944	n/a	n/a	n/a	ShowChoice	Gain
101.581	1.0	0.016	149.619	8.0	1	9.9	3.6	14.8	955.0	3.6	Outcome1	9.9	7.19	3.1125	Yes	n/a	2.71121177802944	n/a	n/a	n/a	ShowResult	Gain
102.597	3.506	0.016	150.635	8.0	1	9.9	3.6	14.8	955.0	3.6	Outcome1	9.9	7.19	3.1125	Yes	n/a	2.71121177802944	n/a	n/a	n/a	ISITrial	Gain
106.129	3.112	0.026	154.167	8.0	1	9.9	3.6	14.8	955.0	3.6	Outcome1	9.9	7.19	3.1125	Yes	n/a	2.71121177802944	n/a	n/a	n/a	TrialHappPreview	Gain
109.261	4.015	0.02	157.299	8.0	1	9.9	3.6	14.8	955.0	3.6	Outcome1	9.9	7.19	3.1125	Yes	n/a	2.71121177802944	n/a	n/a	888.0	TrialHappiness	Gain
109.262	3.041	n/a	157.585	8.0	1	9.9	3.6	14.8	955.0	3.6	Outcome1	9.9	7.19	3.1125	Yes	n/a	2.71121177802944	n/a	n/a	888.0	TrialHappinessSliderResponse	Gain
113.276	4.45	4.015	161.314	8.0	1	9.9	3.6	14.8	955.0	3.6	Outcome1	9.9	7.19	3.1125	Yes	n/a	2.71121177802944	n/a	n/a	n/a	ISIRate	Gain
117.742	3.0	0.016	165.78	9.0	1	-1.0	-1.0	14.675	955.0	1.2	Certain	-0.1	-2.25	0.0	No	4.0	2.15288788221971	0.612	118.354	n/a	GetAnswer	Mixed
118.375	4.0	0.021	166.413	9.0	1	-1.0	-1.0	14.675	955.0	1.2	Certain	-0.1	-2.25	0.0	No	n/a	2.15288788221971	n/a	n/a	n/a	ShowChoice	Mixed
122.39	1.0	0.015	170.428	9.0	1	-1.0	-1.0	14.675	955.0	1.2	Certain	-0.1	-2.25	0.0	No	n/a	2.15288788221971	n/a	n/a	n/a	ShowResult	Mixed
123.406	2.0	0.016	171.444	9.0	1	-1.0	-1.0	14.675	955.0	1.2	Certain	-0.1	-2.25	0.0	No	n/a	2.15288788221971	n/a	n/a	n/a	ISITrial	Mixed
125.422	3.0	0.016	173.46	10.0	1	7.9	2.84	15.6625	955.0	3.6	Outcome1	7.9	5.67	4.0	Yes	2.0	2.22876557191393	0.727	126.149	n/a	GetAnswer	Gain
126.172	4.0	0.023	174.21	10.0	1	7.9	2.84	15.6625	955.0	3.6	Outcome1	7.9	5.67	4.0	Yes	n/a	2.22876557191393	n/a	n/a	n/a	ShowChoice	Gain
130.187	1.0	0.015	178.225	10.0	1	7.9	2.84	15.6625	955.0	3.6	Outcome1	7.9	5.67	4.0	Yes	n/a	2.22876557191393	n/a	n/a	n/a	ShowResult	Gain
131.203	2.0	0.016	179.241	10.0	1	7.9	2.84	15.6625	955.0	3.6	Outcome1	7.9	5.67	4.0	Yes	n/a	2.22876557191393	n/a	n/a	n/a	ISITrial	Gain
133.219	4.0	0.016	181.257	10.0	1	7.9	2.84	15.6625	955.0	3.6	Outcome1	7.9	5.67	4.0	Yes	n/a	2.22876557191393	n/a	n/a	n/a	TrialHappPreview	Gain
137.235	4.015	0.016	185.273	10.0	1	7.9	2.84	15.6625	955.0	3.6	Outcome1	7.9	5.67	4.0	Yes	n/a	2.22876557191393	n/a	n/a	812.0	TrialHappiness	Gain
137.235	3.39	n/a	185.789	10.0	1	7.9	2.84	15.6625	955.0	3.6	Outcome1	7.9	5.67	4.0	Yes	n/a	2.22876557191393	n/a	n/a	812.0	TrialHappinessSliderResponse	Gain
141.25	8.0	4.015	189.288	10.0	1	7.9	2.84	15.6625	955.0	3.6	Outcome1	7.9	5.67	4.0	Yes	n/a	2.22876557191393	n/a	n/a	n/a	ISIRate	Gain
149.28	3.0	0.03	197.318	11.0	1	1.02	1.0	15.79	955.0	1.0	Outcome1	1.02	1.7	0.0	No	2.0	-0.6775198187995469	1.064	150.344	n/a	GetAnswer	Mixed
150.363	4.0	0.019	198.401	11.0	1	1.02	1.0	15.79	955.0	1.0	Outcome1	1.02	1.7	0.0	No	n/a	-0.6775198187995469	n/a	n/a	n/a	ShowChoice	Mixed
154.379	1.0	0.016	202.417	11.0	1	1.02	1.0	15.79	955.0	1.0	Outcome1	1.02	1.7	0.0	No	n/a	-0.6775198187995469	n/a	n/a	n/a	ShowResult	Mixed
155.395	3.324	0.016	203.433	11.0	1	1.02	1.0	15.79	955.0	1.0	Outcome1	1.02	1.7	0.0	No	n/a	-0.6775198187995469	n/a	n/a	n/a	ISITrial	Mixed
158.744	3.0	0.025	206.782	12.0	1	10.1	3.17	17.0525	955.0	4.2	Outcome1	10.1	6.34	2.61875	Yes	2.0	3.75764439411099	0.893	159.637	n/a	GetAnswer	Gain
159.66	4.0	0.023	207.698	12.0	1	10.1	3.17	17.0525	955.0	4.2	Outcome1	10.1	6.34	2.61875	Yes	n/a	3.75764439411099	n/a	n/a	n/a	ShowChoice	Gain
163.675	1.0	0.015	211.713	12.0	1	10.1	3.17	17.0525	955.0	4.2	Outcome1	10.1	6.34	2.61875	Yes	n/a	3.75764439411099	n/a	n/a	n/a	ShowResult	Gain
164.692	6.642	0.017	212.73	12.0	1	10.1	3.17	17.0525	955.0	4.2	Outcome1	10.1	6.34	2.61875	Yes	n/a	3.75764439411099	n/a	n/a	n/a	ISITrial	Gain
171.356	2.619	0.022	219.394	12.0	1	10.1	3.17	17.0525	955.0	4.2	Outcome1	10.1	6.34	2.61875	Yes	n/a	3.75764439411099	n/a	n/a	n/a	TrialHappPreview	Gain
174.005	4.015	0.03	222.043	12.0	1	10.1	3.17	17.0525	955.0	4.2	Outcome1	10.1	6.34	2.61875	Yes	n/a	3.75764439411099	n/a	n/a	900.0	TrialHappiness	Gain
174.006	1.831	n/a	222.389	12.0	1	10.1	3.17	17.0525	955.0	4.2	Outcome1	10.1	6.34	2.61875	Yes	n/a	3.75764439411099	n/a	n/a	900.0	TrialHappinessSliderResponse	Gain
178.02	2.475	4.015	226.058	12.0	1	10.1	3.17	17.0525	955.0	4.2	Outcome1	10.1	6.34	2.61875	Yes	n/a	3.75764439411099	n/a	n/a	n/a	ISIRate	Gain
180.519	3.0	0.024	228.557	13.0	1	2.3	1.0	17.34	955.0	2.0	Outcome1	2.3	-0.12	0.0	No	2.0	2.4246885617214	1.192	181.711	n/a	GetAnswer	Mixed
181.736	4.0	0.025	229.774	13.0	1	2.3	1.0	17.34	955.0	2.0	Outcome1	2.3	-0.12	0.0	No	n/a	2.4246885617214	n/a	n/a	n/a	ShowChoice	Mixed
185.751	1.0	0.015	233.789	13.0	1	2.3	1.0	17.34	955.0	2.0	Outcome1	2.3	-0.12	0.0	No	n/a	2.4246885617214	n/a	n/a	n/a	ShowResult	Mixed
186.767	3.48	0.016	234.805	13.0	1	2.3	1.0	17.34	955.0	2.0	Outcome1	2.3	-0.12	0.0	No	n/a	2.4246885617214	n/a	n/a	n/a	ISITrial	Mixed
190.266	3.0	0.019	238.304	14.0	1	13.5	5.5	19.0275	955.0	2.8	Outcome2	11.01	13.5	0.0	No	2.0	2.48697621744054	1.131	191.397	n/a	GetAnswer	Loss
191.416	4.0	0.019	239.454	14.0	1	13.5	5.5	19.0275	955.0	2.8	Outcome2	11.01	13.5	0.0	No	n/a	2.48697621744054	n/a	n/a	n/a	ShowChoice	Loss
195.431	1.0	0.015	243.469	14.0	1	13.5	5.5	19.0275	955.0	2.8	Outcome2	11.01	13.5	0.0	No	n/a	2.48697621744054	n/a	n/a	n/a	ShowResult	Loss
196.447	5.019	0.016	244.485	14.0	1	13.5	5.5	19.0275	955.0	2.8	Outcome2	11.01	13.5	0.0	No	n/a	2.48697621744054	n/a	n/a	n/a	ISITrial	Loss
201.495	3.0	0.029	249.533	15.0	1	7.74	3.87	19.995	955.0	4.2	Outcome1	7.74	8.1	3.3485	Yes	2.0	-0.357776519441299	0.687	202.182	n/a	GetAnswer	Gain
202.195	4.0	0.013	250.233	15.0	1	7.74	3.87	19.995	955.0	4.2	Outcome1	7.74	8.1	3.3485	Yes	n/a	-0.357776519441299	n/a	n/a	n/a	ShowChoice	Gain
206.21	1.0	0.015	254.248	15.0	1	7.74	3.87	19.995	955.0	4.2	Outcome1	7.74	8.1	3.3485	Yes	n/a	-0.357776519441299	n/a	n/a	n/a	ShowResult	Gain
207.227	7.614	0.017	255.265	15.0	1	7.74	3.87	19.995	955.0	4.2	Outcome1	7.74	8.1	3.3485	Yes	n/a	-0.357776519441299	n/a	n/a	n/a	ISITrial	Gain
214.857	3.348	0.016	262.895	15.0	1	7.74	3.87	19.995	955.0	4.2	Outcome1	7.74	8.1	3.3485	Yes	n/a	-0.357776519441299	n/a	n/a	n/a	TrialHappPreview	Gain
218.223	4.015	0.018	266.261	15.0	1	7.74	3.87	19.995	955.0	4.2	Outcome1	7.74	8.1	3.3485	Yes	n/a	-0.357776519441299	n/a	n/a	888.0	TrialHappiness	Gain
218.223	1.605	n/a	266.579	15.0	1	7.74	3.87	19.995	955.0	4.2	Outcome1	7.74	8.1	3.3485	Yes	n/a	-0.357776519441299	n/a	n/a	888.0	TrialHappinessSliderResponse	Gain
222.238	5.394	4.015	270.276	15.0	1	7.74	3.87	19.995	955.0	4.2	Outcome1	7.74	8.1	3.3485	Yes	n/a	-0.357776519441299	n/a	n/a	n/a	ISIRate	Gain
227.653	3.0	0.021	275.691	16.0	1	-1.1	-2.0	19.8575	955.0	0.4	Outcome1	-1.1	-3.92	0.0	No	2.0	2.8154020385051	0.967	228.62	n/a	GetAnswer	Mixed
228.636	4.0	0.016	276.674	16.0	1	-1.1	-2.0	19.8575	955.0	0.4	Outcome1	-1.1	-3.92	0.0	No	n/a	2.8154020385051	n/a	n/a	n/a	ShowChoice	Mixed
232.651	1.0	0.015	280.689	16.0	1	-1.1	-2.0	19.8575	955.0	0.4	Outcome1	-1.1	-3.92	0.0	No	n/a	2.8154020385051	n/a	n/a	n/a	ShowResult	Mixed
233.667	3.008	0.016	281.705	16.0	1	-1.1	-2.0	19.8575	955.0	0.4	Outcome1	-1.1	-3.92	0.0	No	n/a	2.8154020385051	n/a	n/a	n/a	ISITrial	Mixed
236.7	3.0	0.025	284.738	17.0	1	12.1	4.61	21.37	955.0	4.2	Outcome2	9.21	12.1	3.0415	Yes	2.0	2.89127972819932	1.013	237.713	n/a	GetAnswer	Loss
237.733	4.0	0.02	285.771	17.0	1	12.1	4.61	21.37	955.0	4.2	Outcome2	9.21	12.1	3.0415	Yes	n/a	2.89127972819932	n/a	n/a	n/a	ShowChoice	Loss
241.748	1.0	0.015	289.786	17.0	1	12.1	4.61	21.37	955.0	4.2	Outcome2	9.21	12.1	3.0415	Yes	n/a	2.89127972819932	n/a	n/a	n/a	ShowResult	Loss
242.764	3.566	0.016	290.802	17.0	1	12.1	4.61	21.37	955.0	4.2	Outcome2	9.21	12.1	3.0415	Yes	n/a	2.89127972819932	n/a	n/a	n/a	ISITrial	Loss
246.346	3.042	0.016	294.384	17.0	1	12.1	4.61	21.37	955.0	4.2	Outcome2	9.21	12.1	3.0415	Yes	n/a	2.89127972819932	n/a	n/a	n/a	TrialHappPreview	Loss
249.412	4.015	0.024	297.45	17.0	1	12.1	4.61	21.37	955.0	4.2	Outcome2	9.21	12.1	3.0415	Yes	n/a	2.89127972819932	n/a	n/a	904.0	TrialHappiness	Loss
249.412	2.193	n/a	297.746	17.0	1	12.1	4.61	21.37	955.0	4.2	Outcome2	9.21	12.1	3.0415	Yes	n/a	2.89127972819932	n/a	n/a	904.0	TrialHappinessSliderResponse	Loss
253.427	4.166	4.015	301.465	17.0	1	12.1	4.61	21.37	955.0	4.2	Outcome2	9.21	12.1	3.0415	Yes	n/a	2.89127972819932	n/a	n/a	n/a	ISIRate	Loss
257.609	3.0	0.016	305.647	18.0	1	4.1	0.7	21.8825	955.0	1.5	Outcome1	4.1	1.4	0.0	No	2.0	2.69535673839185	0.845	258.454	n/a	GetAnswer	Mixed
258.475	4.0	0.021	306.513	18.0	1	4.1	0.7	21.8825	955.0	1.5	Outcome1	4.1	1.4	0.0	No	n/a	2.69535673839185	n/a	n/a	n/a	ShowChoice	Mixed
262.491	1.0	0.016	310.529	18.0	1	4.1	0.7	21.8825	955.0	1.5	Outcome1	4.1	1.4	0.0	No	n/a	2.69535673839185	n/a	n/a	n/a	ShowResult	Mixed
263.507	6.787	0.016	311.545	18.0	1	4.1	0.7	21.8825	955.0	1.5	Outcome1	4.1	1.4	0.0	No	n/a	2.69535673839185	n/a	n/a	n/a	ISITrial	Mixed
270.321	3.0	0.027	318.359	19.0	1	12.7	4.97	23.47	955.0	1.82	Outcome1	12.7	9.95	0.0	No	2.0	2.75311438278596	1.057	271.378	n/a	GetAnswer	Loss
271.404	4.0	0.026	319.442	19.0	1	12.7	4.97	23.47	955.0	1.82	Outcome1	12.7	9.95	0.0	No	n/a	2.75311438278596	n/a	n/a	n/a	ShowChoice	Loss
275.419	1.0	0.015	323.457	19.0	1	12.7	4.97	23.47	955.0	1.82	Outcome1	12.7	9.95	0.0	No	n/a	2.75311438278596	n/a	n/a	n/a	ShowResult	Loss
276.436	2.0	0.017	324.474	19.0	1	12.7	4.97	23.47	955.0	1.82	Outcome1	12.7	9.95	0.0	No	n/a	2.75311438278596	n/a	n/a	n/a	ISITrial	Loss
278.452	3.0	0.016	326.49	20.0	1	8.13	4.07	24.4863	955.0	1.68	Outcome1	8.13	8.5	2.92125	Yes	2.0	-0.369007172517931	0.862	279.314	n/a	GetAnswer	Gain
279.335	4.0	0.021	327.373	20.0	1	8.13	4.07	24.4863	955.0	1.68	Outcome1	8.13	8.5	2.92125	Yes	n/a	-0.369007172517931	n/a	n/a	n/a	ShowChoice	Gain
283.35	1.0	0.015	331.388	20.0	1	8.13	4.07	24.4863	955.0	1.68	Outcome1	8.13	8.5	2.92125	Yes	n/a	-0.369007172517931	n/a	n/a	n/a	ShowResult	Gain
284.366	8.0	0.016	332.404	20.0	1	8.13	4.07	24.4863	955.0	1.68	Outcome1	8.13	8.5	2.92125	Yes	n/a	-0.369007172517931	n/a	n/a	n/a	ISITrial	Gain
292.38	2.921	0.014	340.418	20.0	1	8.13	4.07	24.4863	955.0	1.68	Outcome1	8.13	8.5	2.92125	Yes	n/a	-0.369007172517931	n/a	n/a	n/a	TrialHappPreview	Gain
295.329	4.015	0.028	343.367	20.0	1	8.13	4.07	24.4863	955.0	1.68	Outcome1	8.13	8.5	2.92125	Yes	n/a	-0.369007172517931	n/a	n/a	928.0	TrialHappiness	Gain
295.33	1.667	n/a	343.657	20.0	1	8.13	4.07	24.4863	955.0	1.68	Outcome1	8.13	8.5	2.92125	Yes	n/a	-0.369007172517931	n/a	n/a	928.0	TrialHappinessSliderResponse	Gain
299.344	3.685	4.015	347.382	20.0	1	8.13	4.07	24.4863	955.0	1.68	Outcome1	8.13	8.5	2.92125	Yes	n/a	-0.369007172517931	n/a	n/a	n/a	ISIRate	Gain
303.06	3.0	0.031	351.098	21.0	1	12.9	5.22	26.0988	955.0	2.0	Outcome2	10.44	12.9	0.0	No	2.0	2.4609286523216296	0.76	303.82	n/a	GetAnswer	Loss
303.843	4.0	0.023	351.881	21.0	1	12.9	5.22	26.0988	955.0	2.0	Outcome2	10.44	12.9	0.0	No	n/a	2.4609286523216296	n/a	n/a	n/a	ShowChoice	Loss
307.858	1.0	0.015	355.896	21.0	1	12.9	5.22	26.0988	955.0	2.0	Outcome2	10.44	12.9	0.0	No	n/a	2.4609286523216296	n/a	n/a	n/a	ShowResult	Loss
308.874	3.555	0.016	356.912	21.0	1	12.9	5.22	26.0988	955.0	2.0	Outcome2	10.44	12.9	0.0	No	n/a	2.4609286523216296	n/a	n/a	n/a	ISITrial	Loss
312.456	3.0	0.027	360.494	22.0	1	13.7	5.6	27.8113	955.0	3.16	Outcome1	13.7	11.21	3.2195	Yes	2.0	2.49150622876557	0.654	313.11	n/a	GetAnswer	Loss
313.123	4.0	0.013	361.161	22.0	1	13.7	5.6	27.8113	955.0	3.16	Outcome1	13.7	11.21	3.2195	Yes	n/a	2.49150622876557	n/a	n/a	n/a	ShowChoice	Loss
317.138	1.0	0.015	365.176	22.0	1	13.7	5.6	27.8113	955.0	3.16	Outcome1	13.7	11.21	3.2195	Yes	n/a	2.49150622876557	n/a	n/a	n/a	ShowResult	Loss
318.154	6.793	0.016	366.192	22.0	1	13.7	5.6	27.8113	955.0	3.16	Outcome1	13.7	11.21	3.2195	Yes	n/a	2.49150622876557	n/a	n/a	n/a	ISITrial	Loss
324.969	3.22	0.022	373.007	22.0	1	13.7	5.6	27.8113	955.0	3.16	Outcome1	13.7	11.21	3.2195	Yes	n/a	2.49150622876557	n/a	n/a	n/a	TrialHappPreview	Loss
328.217	4.016	0.028	376.255	22.0	1	13.7	5.6	27.8113	955.0	3.16	Outcome1	13.7	11.21	3.2195	Yes	n/a	2.49150622876557	n/a	n/a	936.0	TrialHappiness	Loss
328.218	1.028	n/a	376.734	22.0	1	13.7	5.6	27.8113	955.0	3.16	Outcome1	13.7	11.21	3.2195	Yes	n/a	2.49150622876557	n/a	n/a	936.0	TrialHappinessSliderResponse	Loss
332.233	4.878	4.016	380.271	22.0	1	13.7	5.6	27.8113	955.0	3.16	Outcome1	13.7	11.21	3.2195	Yes	n/a	2.49150622876557	n/a	n/a	n/a	ISIRate	Loss
337.131	3.0	0.02	385.169	23.0	1	9.1	3.36	28.9488	955.0	2.22	Outcome1	9.1	6.71	0.0	No	2.0	2.38618346545866	0.716	337.847	n/a	GetAnswer	Gain
337.864	4.0	0.017	385.902	23.0	1	9.1	3.36	28.9488	955.0	2.22	Outcome1	9.1	6.71	0.0	No	n/a	2.38618346545866	n/a	n/a	n/a	ShowChoice	Gain
341.879	1.0	0.015	389.917	23.0	1	9.1	3.36	28.9488	955.0	2.22	Outcome1	9.1	6.71	0.0	No	n/a	2.38618346545866	n/a	n/a	n/a	ShowResult	Gain
342.896	8.0	0.017	390.934	23.0	1	9.1	3.36	28.9488	955.0	2.22	Outcome1	9.1	6.71	0.0	No	n/a	2.38618346545866	n/a	n/a	n/a	ISITrial	Gain
350.926	3.0	0.03	398.964	24.0	1	3.9	2.0	29.4363	955.0	1.2	Outcome1	3.9	1.49	3.255	Yes	2.0	2.4077010192525496	0.61	351.536	n/a	GetAnswer	Mixed
351.559	4.0	0.023	399.597	24.0	1	3.9	2.0	29.4363	955.0	1.2	Outcome1	3.9	1.49	3.255	Yes	n/a	2.4077010192525496	n/a	n/a	n/a	ShowChoice	Mixed
355.574	1.0	0.015	403.612	24.0	1	3.9	2.0	29.4363	955.0	1.2	Outcome1	3.9	1.49	3.255	Yes	n/a	2.4077010192525496	n/a	n/a	n/a	ShowResult	Mixed
356.591	2.0	0.017	404.629	24.0	1	3.9	2.0	29.4363	955.0	1.2	Outcome1	3.9	1.49	3.255	Yes	n/a	2.4077010192525496	n/a	n/a	n/a	ISITrial	Mixed
358.607	3.255	0.016	406.645	24.0	1	3.9	2.0	29.4363	955.0	1.2	Outcome1	3.9	1.49	3.255	Yes	n/a	2.4077010192525496	n/a	n/a	n/a	TrialHappPreview	Mixed
361.889	4.015	0.027	409.927	24.0	1	3.9	2.0	29.4363	955.0	1.2	Outcome1	3.9	1.49	3.255	Yes	n/a	2.4077010192525496	n/a	n/a	928.0	TrialHappiness	Mixed
361.89	1.584	n/a	410.217	24.0	1	3.9	2.0	29.4363	955.0	1.2	Outcome1	3.9	1.49	3.255	Yes	n/a	2.4077010192525496	n/a	n/a	928.0	TrialHappinessSliderResponse	Mixed
365.904	5.02	4.015	413.942	24.0	1	3.9	2.0	29.4363	955.0	1.2	Outcome1	3.9	1.49	3.255	Yes	n/a	2.4077010192525496	n/a	n/a	n/a	ISIRate	Mixed
370.952	3.0	0.028	418.99	25.0	1	5.21	2.6	30.0875	955.0	2.8	Outcome2	5.5	5.21	0.0	No	2.0	-0.285107587768969	1.018	371.97	n/a	GetAnswer	Gain
371.985	4.0	0.015	420.023	25.0	1	5.21	2.6	30.0875	955.0	2.8	Outcome2	5.5	5.21	0.0	No	n/a	-0.285107587768969	n/a	n/a	n/a	ShowChoice	Gain
376.001	1.0	0.016	424.039	25.0	1	5.21	2.6	30.0875	955.0	2.8	Outcome2	5.5	5.21	0.0	No	n/a	-0.285107587768969	n/a	n/a	n/a	ShowResult	Gain
377.017	3.749	0.016	425.055	25.0	1	5.21	2.6	30.0875	955.0	2.8	Outcome2	5.5	5.21	0.0	No	n/a	-0.285107587768969	n/a	n/a	n/a	ISITrial	Gain
380.799	3.0	0.033	428.837	26.0	1	-1.0	-1.0	29.9625	955.0	1.5	Certain	-2.5	0.1	0.0	No	4.0	2.59569648924122	0.857	381.656	n/a	GetAnswer	Mixed
381.682	4.0	0.026	429.72	26.0	1	-1.0	-1.0	29.9625	955.0	1.5	Certain	-2.5	0.1	0.0	No	n/a	2.59569648924122	n/a	n/a	n/a	ShowChoice	Mixed
385.697	1.0	0.015	433.735	26.0	1	-1.0	-1.0	29.9625	955.0	1.5	Certain	-2.5	0.1	0.0	No	n/a	2.59569648924122	n/a	n/a	n/a	ShowResult	Mixed
386.713	7.834	0.016	434.751	26.0	1	-1.0	-1.0	29.9625	955.0	1.5	Certain	-2.5	0.1	0.0	No	n/a	2.59569648924122	n/a	n/a	n/a	ISITrial	Mixed
394.577	3.0	0.03	442.615	27.0	1	6.81	3.4	30.8137	955.0	2.22	Outcome2	7.1	6.81	2.54975	Yes	2.0	-0.290203850509626	0.899	395.476	n/a	GetAnswer	Gain
395.494	4.0	0.018	443.532	27.0	1	6.81	3.4	30.8137	955.0	2.22	Outcome2	7.1	6.81	2.54975	Yes	n/a	-0.290203850509626	n/a	n/a	n/a	ShowChoice	Gain
399.509	1.0	0.015	447.547	27.0	1	6.81	3.4	30.8137	955.0	2.22	Outcome2	7.1	6.81	2.54975	Yes	n/a	-0.290203850509626	n/a	n/a	n/a	ShowResult	Gain
400.525	4.225	0.016	448.563	27.0	1	6.81	3.4	30.8137	955.0	2.22	Outcome2	7.1	6.81	2.54975	Yes	n/a	-0.290203850509626	n/a	n/a	n/a	ISITrial	Gain
404.774	2.55	0.024	452.812	27.0	1	6.81	3.4	30.8137	955.0	2.22	Outcome2	7.1	6.81	2.54975	Yes	n/a	-0.290203850509626	n/a	n/a	n/a	TrialHappPreview	Gain
407.34	4.015	0.016	455.378	27.0	1	6.81	3.4	30.8137	955.0	2.22	Outcome2	7.1	6.81	2.54975	Yes	n/a	-0.290203850509626	n/a	n/a	928.0	TrialHappiness	Gain
407.34	1.009	n/a	455.674	27.0	1	6.81	3.4	30.8137	955.0	2.22	Outcome2	7.1	6.81	2.54975	Yes	n/a	-0.290203850509626	n/a	n/a	928.0	TrialHappinessSliderResponse	Gain
411.355	2.199	4.015	459.393	27.0	1	6.81	3.4	30.8137	955.0	2.22	Outcome2	7.1	6.81	2.54975	Yes	n/a	-0.290203850509626	n/a	n/a	n/a	ISIRate	Gain
426.283	3.395	n/a	474.698	n/a	1	n/a	n/a	n/a	n/a	n/a	n/a	n/a	n/a	n/a	n/a	n/a	n/a	n/a	n/a	900.0	BlockStartHappinessSliderResponse	n/a
-96.883	-0.001	0.033	461.625	n/a	2	n/a	n/a	n/a	n/a	n/a	n/a	n/a	n/a	n/a	n/a	2.0	n/a	8.658	-88.225	n/a	Rest	n/a
-88.202	4.0	0.022	470.306	n/a	2	n/a	n/a	n/a	n/a	n/a	n/a	n/a	n/a	n/a	n/a	n/a	n/a	n/a	n/a	n/a	BlockHappyPreview	n/a
-84.187	3.772	0.015	474.321	n/a	2	n/a	n/a	n/a	n/a	n/a	n/a	n/a	n/a	n/a	n/a	n/a	n/a	n/a	n/a	900.0	BlockStartHappiness	n/a
-4.632	-0.001	0.029	553.876	n/a	2	n/a	n/a	n/a	n/a	n/a	n/a	n/a	n/a	n/a	n/a	5.0	n/a	4.607	-0.025	n/a	ScanWait	n/a
0.0	10.0	0.025	558.508	n/a	2	n/a	n/a	n/a	n/a	n/a	n/a	n/a	n/a	n/a	n/a	n/a	n/a	n/a	n/a	n/a	GetReady	n/a
10.03	3.0	0.03	568.538	28.0	2	-5.22	2.0	30.1612	70.0	2.0	Outcome1	-5.22	8.9	0.0	No	2.0	-14.115646258503402	0.604	10.634	n/a	GetAnswer	Gain
10.663	4.0	0.029	569.171	28.0	2	-5.22	2.0	30.1612	70.0	2.0	Outcome1	-5.22	8.9	0.0	No	n/a	-14.115646258503402	n/a	n/a	n/a	ShowChoice	Gain
14.678	1.0	0.015	573.186	28.0	2	-5.22	2.0	30.1612	70.0	2.0	Outcome1	-5.22	8.9	0.0	No	n/a	-14.115646258503402	n/a	n/a	n/a	ShowResult	Gain
15.694	3.575	0.016	574.202	28.0	2	-5.22	2.0	30.1612	70.0	2.0	Outcome1	-5.22	8.9	0.0	No	n/a	-14.115646258503402	n/a	n/a	n/a	ISITrial	Gain
19.293	3.0	0.024	577.801	29.0	2	1.88	0.0	30.3962	70.0	2.8	Outcome1	1.88	-1.57	3.529	Yes	2.0	3.45049130763416	1.398	20.691	n/a	GetAnswer	Gain
20.709	4.0	0.018	579.217	29.0	2	1.88	0.0	30.3962	70.0	2.8	Outcome1	1.88	-1.57	3.529	Yes	n/a	3.45049130763416	n/a	n/a	n/a	ShowChoice	Gain
24.724	1.0	0.015	583.232	29.0	2	1.88	0.0	30.3962	70.0	2.8	Outcome1	1.88	-1.57	3.529	Yes	n/a	3.45049130763416	n/a	n/a	n/a	ShowResult	Gain
25.741	3.955	0.017	584.249	29.0	2	1.88	0.0	30.3962	70.0	2.8	Outcome1	1.88	-1.57	3.529	Yes	n/a	3.45049130763416	n/a	n/a	n/a	ISITrial	Gain
29.723	3.529	0.027	588.231	29.0	2	1.88	0.0	30.3962	70.0	2.8	Outcome1	1.88	-1.57	3.529	Yes	n/a	3.45049130763416	n/a	n/a	n/a	TrialHappPreview	Gain
33.271	4.016	0.019	591.779	29.0	2	1.88	0.0	30.3962	70.0	2.8	Outcome1	1.88	-1.57	3.529	Yes	n/a	3.45049130763416	n/a	n/a	828.0	TrialHappiness	Gain
33.272	3.455	n/a	592.064	29.0	2	1.88	0.0	30.3962	70.0	2.8	Outcome1	1.88	-1.57	3.529	Yes	n/a	3.45049130763416	n/a	n/a	828.0	TrialHappinessSliderResponse	Gain
37.287	6.116	4.016	595.795	29.0	2	1.88	0.0	30.3962	70.0	2.8	Outcome1	1.88	-1.57	3.529	Yes	n/a	3.45049130763416	n/a	n/a	n/a	ISIRate	Gain
43.435	3.0	0.032	601.943	30.0	2	3.08	1.0	30.7812	70.0	5.0	Outcome1	3.08	-0.16	0.0	No	2.0	3.2363945578231297	1.09	44.525	n/a	GetAnswer	Loss
44.551	4.0	0.026	603.059	30.0	2	3.08	1.0	30.7812	70.0	5.0	Outcome1	3.08	-0.16	0.0	No	n/a	3.2363945578231297	n/a	n/a	n/a	ShowChoice	Loss
48.566	1.0	0.015	607.074	30.0	2	3.08	1.0	30.7812	70.0	5.0	Outcome1	3.08	-0.16	0.0	No	n/a	3.2363945578231297	n/a	n/a	n/a	ShowResult	Loss
49.582	4.453	0.016	608.09	30.0	2	3.08	1.0	30.7812	70.0	5.0	Outcome1	3.08	-0.16	0.0	No	n/a	3.2363945578231297	n/a	n/a	n/a	ISITrial	Loss
54.064	3.0	0.029	612.572	31.0	2	0.0	0.0	30.7812	70.0	5.0	Certain	-1.73	1.58	2.50325	Yes	4.0	3.30801209372638	1.378	55.442	n/a	GetAnswer	Gain
55.464	4.0	0.022	613.972	31.0	2	0.0	0.0	30.7812	70.0	5.0	Certain	-1.73	1.58	2.50325	Yes	n/a	3.30801209372638	n/a	n/a	n/a	ShowChoice	Gain
59.479	1.0	0.015	617.987	31.0	2	0.0	0.0	30.7812	70.0	5.0	Certain	-1.73	1.58	2.50325	Yes	n/a	3.30801209372638	n/a	n/a	n/a	ShowResult	Gain
60.495	4.786	0.016	619.003	31.0	2	0.0	0.0	30.7812	70.0	5.0	Certain	-1.73	1.58	2.50325	Yes	n/a	3.30801209372638	n/a	n/a	n/a	ISITrial	Gain
65.294	2.503	0.013	623.802	31.0	2	0.0	0.0	30.7812	70.0	5.0	Certain	-1.73	1.58	2.50325	Yes	n/a	3.30801209372638	n/a	n/a	n/a	TrialHappPreview	Gain
67.826	4.015	0.029	626.334	31.0	2	0.0	0.0	30.7812	70.0	5.0	Certain	-1.73	1.58	2.50325	Yes	n/a	3.30801209372638	n/a	n/a	800.0	TrialHappiness	Gain
67.827	0.744	n/a	626.663	31.0	2	0.0	0.0	30.7812	70.0	5.0	Certain	-1.73	1.58	2.50325	Yes	n/a	3.30801209372638	n/a	n/a	800.0	TrialHappinessSliderResponse	Gain
71.841	2.013	4.015	630.349	31.0	2	0.0	0.0	30.7812	70.0	5.0	Certain	-1.73	1.58	2.50325	Yes	n/a	3.30801209372638	n/a	n/a	n/a	ISIRate	Gain
73.874	3.0	0.02	632.382	32.0	2	-4.52	-2.26	30.2162	70.0	2.8	Outcome2	11.5	-4.52	0.0	No	2.0	-16.015873015873	1.324	75.198	n/a	GetAnswer	Loss
75.223	4.0	0.025	633.731	32.0	2	-4.52	-2.26	30.2162	70.0	2.8	Outcome2	11.5	-4.52	0.0	No	n/a	-16.015873015873	n/a	n/a	n/a	ShowChoice	Loss
79.239	1.0	0.016	637.747	32.0	2	-4.52	-2.26	30.2162	70.0	2.8	Outcome2	11.5	-4.52	0.0	No	n/a	-16.015873015873	n/a	n/a	n/a	ShowResult	Loss
80.255	2.0	0.016	638.763	32.0	2	-4.52	-2.26	30.2162	70.0	2.8	Outcome2	11.5	-4.52	0.0	No	n/a	-16.015873015873	n/a	n/a	n/a	ISITrial	Loss
82.271	3.0	0.016	640.779	33.0	2	-2.94	-1.47	29.8487	70.0	3.6	Outcome1	-2.94	13.9	0.0	No	2.0	-16.843537414966	1.23	83.501	n/a	GetAnswer	Loss
83.52	4.0	0.019	642.028	33.0	2	-2.94	-1.47	29.8487	70.0	3.6	Outcome1	-2.94	13.9	0.0	No	n/a	-16.843537414966	n/a	n/a	n/a	ShowChoice	Loss
87.536	1.0	0.016	646.044	33.0	2	-2.94	-1.47	29.8487	70.0	3.6	Outcome1	-2.94	13.9	0.0	No	n/a	-16.843537414966	n/a	n/a	n/a	ShowResult	Loss
88.552	5.099	0.016	647.06	33.0	2	-2.94	-1.47	29.8487	70.0	3.6	Outcome1	-2.94	13.9	0.0	No	n/a	-16.843537414966	n/a	n/a	n/a	ISITrial	Loss
93.684	3.0	0.033	652.192	34.0	2	-12.37	-3.0	28.3024	70.0	2.48	Outcome1	-12.37	5.3	3.2315	Yes	2.0	-17.671201814059	1.414	95.098	n/a	GetAnswer	Gain
95.116	4.0	0.018	653.624	34.0	2	-12.37	-3.0	28.3024	70.0	2.48	Outcome1	-12.37	5.3	3.2315	Yes	n/a	-17.671201814059	n/a	n/a	n/a	ShowChoice	Gain
99.132	1.0	0.016	657.64	34.0	2	-12.37	-3.0	28.3024	70.0	2.48	Outcome1	-12.37	5.3	3.2315	Yes	n/a	-17.671201814059	n/a	n/a	n/a	ShowResult	Gain
100.148	4.784	0.016	658.656	34.0	2	-12.37	-3.0	28.3024	70.0	2.48	Outcome1	-12.37	5.3	3.2315	Yes	n/a	-17.671201814059	n/a	n/a	n/a	ISITrial	Gain
104.946	3.232	0.014	663.454	34.0	2	-12.37	-3.0	28.3024	70.0	2.48	Outcome1	-12.37	5.3	3.2315	Yes	n/a	-17.671201814059	n/a	n/a	n/a	TrialHappPreview	Gain
108.195	4.015	0.017	666.703	34.0	2	-12.37	-3.0	28.3024	70.0	2.48	Outcome1	-12.37	5.3	3.2315	Yes	n/a	-17.671201814059	n/a	n/a	600.0	TrialHappiness	Gain
108.196	2.288	n/a	667.039	34.0	2	-12.37	-3.0	28.3024	70.0	2.48	Outcome1	-12.37	5.3	3.2315	Yes	n/a	-17.671201814059	n/a	n/a	600.0	TrialHappinessSliderResponse	Gain
112.21	4.926	4.015	670.718	34.0	2	-12.37	-3.0	28.3024	70.0	2.48	Outcome1	-12.37	5.3	3.2315	Yes	n/a	-17.671201814059	n/a	n/a	n/a	ISIRate	Gain
117.159	3.0	0.023	675.667	35.0	2	-2.0	-1.0	28.0524	70.0	2.22	Outcome2	13.1	-2.0	0.0	No	2.0	-15.0975056689342	0.984	118.143	n/a	GetAnswer	Loss
118.158	4.0	0.015	676.666	35.0	2	-2.0	-1.0	28.0524	70.0	2.22	Outcome2	13.1	-2.0	0.0	No	n/a	-15.0975056689342	n/a	n/a	n/a	ShowChoice	Loss
122.173	1.0	0.015	680.681	35.0	2	-2.0	-1.0	28.0524	70.0	2.22	Outcome2	13.1	-2.0	0.0	No	n/a	-15.0975056689342	n/a	n/a	n/a	ShowResult	Loss
123.19	2.098	0.017	681.698	35.0	2	-2.0	-1.0	28.0524	70.0	2.22	Outcome2	13.1	-2.0	0.0	No	n/a	-15.0975056689342	n/a	n/a	n/a	ISITrial	Loss
125.306	3.0	0.018	683.814	36.0	2	-5.0	-5.0	27.4274	70.0	0.4	Certain	-12.8	2.9	3.33575	Yes	4.0	-15.6984126984127	1.67	126.976	n/a	GetAnswer	Mixed
126.988	4.0	0.012	685.496	36.0	2	-5.0	-5.0	27.4274	70.0	0.4	Certain	-12.8	2.9	3.33575	Yes	n/a	-15.6984126984127	n/a	n/a	n/a	ShowChoice	Mixed
131.004	1.0	0.016	689.512	36.0	2	-5.0	-5.0	27.4274	70.0	0.4	Certain	-12.8	2.9	3.33575	Yes	n/a	-15.6984126984127	n/a	n/a	n/a	ShowResult	Mixed
132.02	5.156	0.016	690.528	36.0	2	-5.0	-5.0	27.4274	70.0	0.4	Certain	-12.8	2.9	3.33575	Yes	n/a	-15.6984126984127	n/a	n/a	n/a	ISITrial	Mixed
137.202	3.336	0.026	695.71	36.0	2	-5.0	-5.0	27.4274	70.0	0.4	Certain	-12.8	2.9	3.33575	Yes	n/a	-15.6984126984127	n/a	n/a	n/a	TrialHappPreview	Mixed
140.567	4.015	0.029	699.075	36.0	2	-5.0	-5.0	27.4274	70.0	0.4	Certain	-12.8	2.9	3.33575	Yes	n/a	-15.6984126984127	n/a	n/a	616.0	TrialHappiness	Mixed
140.568	3.462	n/a	699.51	36.0	2	-5.0	-5.0	27.4274	70.0	0.4	Certain	-12.8	2.9	3.33575	Yes	n/a	-15.6984126984127	n/a	n/a	616.0	TrialHappinessSliderResponse	Mixed
144.582	5.343	4.015	703.09	36.0	2	-5.0	-5.0	27.4274	70.0	0.4	Certain	-12.8	2.9	3.33575	Yes	n/a	-15.6984126984127	n/a	n/a	n/a	ISIRate	Mixed
149.947	3.0	0.022	708.455	37.0	2	0.0	0.0	27.4274	70.0	5.0	Certain	8.3	-8.27	0.0	No	4.0	-16.571428571428598	1.271	151.218	n/a	GetAnswer	Gain
151.23	4.0	0.012	709.738	37.0	2	0.0	0.0	27.4274	70.0	5.0	Certain	8.3	-8.27	0.0	No	n/a	-16.571428571428598	n/a	n/a	n/a	ShowChoice	Gain
155.245	1.0	0.015	713.753	37.0	2	0.0	0.0	27.4274	70.0	5.0	Certain	8.3	-8.27	0.0	No	n/a	-16.571428571428598	n/a	n/a	n/a	ShowResult	Gain
156.261	3.598	0.016	714.769	37.0	2	0.0	0.0	27.4274	70.0	5.0	Certain	8.3	-8.27	0.0	No	n/a	-16.571428571428598	n/a	n/a	n/a	ISITrial	Gain
159.877	3.0	0.018	718.385	38.0	2	0.92	0.0	27.5424	70.0	1.0	Outcome2	-1.96	0.92	0.0	No	2.0	2.87698412698413	1.392	161.269	n/a	GetAnswer	Mixed
161.293	4.0	0.024	719.801	38.0	2	0.92	0.0	27.5424	70.0	1.0	Outcome2	-1.96	0.92	0.0	No	n/a	2.87698412698413	n/a	n/a	n/a	ShowChoice	Mixed
165.308	1.0	0.015	723.816	38.0	2	0.92	0.0	27.5424	70.0	1.0	Outcome2	-1.96	0.92	0.0	No	n/a	2.87698412698413	n/a	n/a	n/a	ShowResult	Mixed
166.325	4.787	0.017	724.833	38.0	2	0.92	0.0	27.5424	70.0	1.0	Outcome2	-1.96	0.92	0.0	No	n/a	2.87698412698413	n/a	n/a	n/a	ISITrial	Mixed
171.14	3.0	0.028	729.648	39.0	2	-7.31	1.0	26.6286	70.0	1.68	Outcome2	10.5	-7.31	2.86425	Yes	2.0	-17.809523809523803	1.191	172.331	n/a	GetAnswer	Loss
172.356	4.0	0.025	730.864	39.0	2	-7.31	1.0	26.6286	70.0	1.68	Outcome2	10.5	-7.31	2.86425	Yes	n/a	-17.809523809523803	n/a	n/a	n/a	ShowChoice	Loss
176.371	1.0	0.015	734.879	39.0	2	-7.31	1.0	26.6286	70.0	1.68	Outcome2	10.5	-7.31	2.86425	Yes	n/a	-17.809523809523803	n/a	n/a	n/a	ShowResult	Loss
177.387	2.348	0.016	735.895	39.0	2	-7.31	1.0	26.6286	70.0	1.68	Outcome2	10.5	-7.31	2.86425	Yes	n/a	-17.809523809523803	n/a	n/a	n/a	ISITrial	Loss
179.753	2.864	0.018	738.261	39.0	2	-7.31	1.0	26.6286	70.0	1.68	Outcome2	10.5	-7.31	2.86425	Yes	n/a	-17.809523809523803	n/a	n/a	n/a	TrialHappPreview	Loss
182.636	4.015	0.019	741.144	39.0	2	-7.31	1.0	26.6286	70.0	1.68	Outcome2	10.5	-7.31	2.86425	Yes	n/a	-17.809523809523803	n/a	n/a	440.0	TrialHappiness	Loss
182.636	0.386	n/a	741.614	39.0	2	-7.31	1.0	26.6286	70.0	1.68	Outcome2	10.5	-7.31	2.86425	Yes	n/a	-17.809523809523803	n/a	n/a	440.0	TrialHappinessSliderResponse	Loss
186.651	3.457	4.015	745.159	39.0	2	-7.31	1.0	26.6286	70.0	1.68	Outcome2	10.5	-7.31	2.86425	Yes	n/a	-17.809523809523803	n/a	n/a	n/a	ISIRate	Loss
190.133	3.0	0.025	748.641	40.0	2	1.18	0.0	26.7761	70.0	1.82	Outcome2	-1.09	1.18	0.0	No	2.0	2.2651171579743	1.295	191.428	n/a	GetAnswer	Gain
191.449	4.0	0.021	749.957	40.0	2	1.18	0.0	26.7761	70.0	1.82	Outcome2	-1.09	1.18	0.0	No	n/a	2.2651171579743	n/a	n/a	n/a	ShowChoice	Gain
195.464	1.0	0.015	753.972	40.0	2	1.18	0.0	26.7761	70.0	1.82	Outcome2	-1.09	1.18	0.0	No	n/a	2.2651171579743	n/a	n/a	n/a	ShowResult	Gain
196.481	3.158	0.017	754.989	40.0	2	1.18	0.0	26.7761	70.0	1.82	Outcome2	-1.09	1.18	0.0	No	n/a	2.2651171579743	n/a	n/a	n/a	ISITrial	Gain
199.663	3.0	0.024	758.171	41.0	2	-2.0	-2.0	26.5261	70.0	3.6	Certain	5.9	-9.95	4.0	Yes	4.0	-15.8548752834467	1.353	201.016	n/a	GetAnswer	Gain
201.029	4.0	0.013	759.537	41.0	2	-2.0	-2.0	26.5261	70.0	3.6	Certain	5.9	-9.95	4.0	Yes	n/a	-15.8548752834467	n/a	n/a	n/a	ShowChoice	Gain
205.044	1.0	0.015	763.552	41.0	2	-2.0	-2.0	26.5261	70.0	3.6	Certain	5.9	-9.95	4.0	Yes	n/a	-15.8548752834467	n/a	n/a	n/a	ShowResult	Gain
206.061	4.506	0.017	764.569	41.0	2	-2.0	-2.0	26.5261	70.0	3.6	Certain	5.9	-9.95	4.0	Yes	n/a	-15.8548752834467	n/a	n/a	n/a	ISITrial	Gain
210.592	4.0	0.025	769.1	41.0	2	-2.0	-2.0	26.5261	70.0	3.6	Certain	5.9	-9.95	4.0	Yes	n/a	-15.8548752834467	n/a	n/a	n/a	TrialHappPreview	Gain
214.608	4.015	0.016	773.116	41.0	2	-2.0	-2.0	26.5261	70.0	3.6	Certain	5.9	-9.95	4.0	Yes	n/a	-15.8548752834467	n/a	n/a	384.0	TrialHappiness	Gain
214.608	3.115	n/a	773.493	41.0	2	-2.0	-2.0	26.5261	70.0	3.6	Certain	5.9	-9.95	4.0	Yes	n/a	-15.8548752834467	n/a	n/a	384.0	TrialHappinessSliderResponse	Gain
218.623	8.0	4.015	777.131	41.0	2	-2.0	-2.0	26.5261	70.0	3.6	Certain	5.9	-9.95	4.0	Yes	n/a	-15.8548752834467	n/a	n/a	n/a	ISIRate	Gain
226.653	3.0	0.03	785.161	42.0	2	-9.0	-9.0	25.4011	70.0	0.3	Certain	-1.3	-16.62	0.0	No	4.0	-15.3219954648526	1.154	227.807	n/a	GetAnswer	Mixed
227.82	4.0	0.013	786.328	42.0	2	-9.0	-9.0	25.4011	70.0	0.3	Certain	-1.3	-16.62	0.0	No	n/a	-15.3219954648526	n/a	n/a	n/a	ShowChoice	Mixed
231.835	1.0	0.015	790.343	42.0	2	-9.0	-9.0	25.4011	70.0	0.3	Certain	-1.3	-16.62	0.0	No	n/a	-15.3219954648526	n/a	n/a	n/a	ShowResult	Mixed
232.851	6.248	0.016	791.359	42.0	2	-9.0	-9.0	25.4011	70.0	0.3	Certain	-1.3	-16.62	0.0	No	n/a	-15.3219954648526	n/a	n/a	n/a	ISITrial	Mixed
239.116	3.0	0.017	797.624	43.0	2	-10.58	-2.0	24.0786	70.0	2.22	Outcome1	-10.58	5.1	2.77575	Yes	2.0	-15.6780045351474	1.233	240.349	n/a	GetAnswer	Gain
240.365	4.0	0.016	798.873	43.0	2	-10.58	-2.0	24.0786	70.0	2.22	Outcome1	-10.58	5.1	2.77575	Yes	n/a	-15.6780045351474	n/a	n/a	n/a	ShowChoice	Gain
244.38	1.0	0.015	802.888	43.0	2	-10.58	-2.0	24.0786	70.0	2.22	Outcome1	-10.58	5.1	2.77575	Yes	n/a	-15.6780045351474	n/a	n/a	n/a	ShowResult	Gain
245.397	4.596	0.017	803.905	43.0	2	-10.58	-2.0	24.0786	70.0	2.22	Outcome1	-10.58	5.1	2.77575	Yes	n/a	-15.6780045351474	n/a	n/a	n/a	ISITrial	Gain
250.012	2.776	0.019	808.52	43.0	2	-10.58	-2.0	24.0786	70.0	2.22	Outcome1	-10.58	5.1	2.77575	Yes	n/a	-15.6780045351474	n/a	n/a	n/a	TrialHappPreview	Gain
252.811	4.015	0.023	811.319	43.0	2	-10.58	-2.0	24.0786	70.0	2.22	Outcome1	-10.58	5.1	2.77575	Yes	n/a	-15.6780045351474	n/a	n/a	204.0	TrialHappiness	Gain
252.811	2.349	n/a	812.149	43.0	2	-10.58	-2.0	24.0786	70.0	2.22	Outcome1	-10.58	5.1	2.77575	Yes	n/a	-15.6780045351474	n/a	n/a	204.0	TrialHappinessSliderResponse	Gain
256.826	3.103	4.015	815.334	43.0	2	-10.58	-2.0	24.0786	70.0	2.22	Outcome1	-10.58	5.1	2.77575	Yes	n/a	-15.6780045351474	n/a	n/a	n/a	ISIRate	Gain
259.958	3.0	0.029	818.466	44.0	2	-6.0	-6.0	23.3286	70.0	0.3	Certain	0.7	-12.27	0.0	No	4.0	-12.9727891156463	1.57	261.528	n/a	GetAnswer	Mixed
261.541	4.0	0.013	820.049	44.0	2	-6.0	-6.0	23.3286	70.0	0.3	Certain	0.7	-12.27	0.0	No	n/a	-12.9727891156463	n/a	n/a	n/a	ShowChoice	Mixed
265.556	1.0	0.015	824.064	44.0	2	-6.0	-6.0	23.3286	70.0	0.3	Certain	0.7	-12.27	0.0	No	n/a	-12.9727891156463	n/a	n/a	n/a	ShowResult	Mixed
266.573	2.42	0.017	825.081	44.0	2	-6.0	-6.0	23.3286	70.0	0.3	Certain	0.7	-12.27	0.0	No	n/a	-12.9727891156463	n/a	n/a	n/a	ISITrial	Mixed
269.022	3.0	0.029	827.53	45.0	2	-1.0	-1.0	23.2036	70.0	0.82	Certain	-1.57	-0.12	0.0	No	4.0	1.44822373393802	1.339	270.361	n/a	GetAnswer	Mixed
270.388	4.0	0.027	828.896	45.0	2	-1.0	-1.0	23.2036	70.0	0.82	Certain	-1.57	-0.12	0.0	No	n/a	1.44822373393802	n/a	n/a	n/a	ShowChoice	Mixed
274.403	1.0	0.015	832.911	45.0	2	-1.0	-1.0	23.2036	70.0	0.82	Certain	-1.57	-0.12	0.0	No	n/a	1.44822373393802	n/a	n/a	n/a	ShowResult	Mixed
275.419	3.144	0.016	833.927	45.0	2	-1.0	-1.0	23.2036	70.0	0.82	Certain	-1.57	-0.12	0.0	No	n/a	1.44822373393802	n/a	n/a	n/a	ISITrial	Mixed
278.585	3.0	0.022	837.093	46.0	2	0.0	0.0	23.2036	70.0	0.2	Certain	-0.84	0.62	3.84125	Yes	4.0	1.4608843537415002	1.48	280.065	n/a	GetAnswer	Mixed
280.085	4.0	0.02	838.593	46.0	2	0.0	0.0	23.2036	70.0	0.2	Certain	-0.84	0.62	3.84125	Yes	n/a	1.4608843537415002	n/a	n/a	n/a	ShowChoice	Mixed
284.1	1.0	0.015	842.608	46.0	2	0.0	0.0	23.2036	70.0	0.2	Certain	-0.84	0.62	3.84125	Yes	n/a	1.4608843537415002	n/a	n/a	n/a	ShowResult	Mixed
285.116	2.246	0.016	843.624	46.0	2	0.0	0.0	23.2036	70.0	0.2	Certain	-0.84	0.62	3.84125	Yes	n/a	1.4608843537415002	n/a	n/a	n/a	ISITrial	Mixed
287.382	3.841	0.02	845.89	46.0	2	0.0	0.0	23.2036	70.0	0.2	Certain	-0.84	0.62	3.84125	Yes	n/a	1.4608843537415002	n/a	n/a	n/a	TrialHappPreview	Mixed
291.247	4.016	0.024	849.755	46.0	2	0.0	0.0	23.2036	70.0	0.2	Certain	-0.84	0.62	3.84125	Yes	4{-4}4{-4}4{-4}2{-2}	1.4608843537415002	3.117	294.364	332.0	TrialHappiness	Mixed
291.248	2.824	n/a	850.049	46.0	2	0.0	0.0	23.2036	70.0	0.2	Certain	-0.84	0.62	3.84125	Yes	n/a	1.4608843537415002	n/a	n/a	332.0	TrialHappinessSliderResponse	Mixed
295.263	7.365	4.016	853.771	46.0	2	0.0	0.0	23.2036	70.0	0.2	Certain	-0.84	0.62	3.84125	Yes	n/a	1.4608843537415002	n/a	n/a	n/a	ISIRate	Mixed
302.643	3.0	0.015	861.151	47.0	2	-6.0	-6.0	22.4536	70.0	0.52	Certain	-14.51	1.1	0.0	No	4.0	-15.6054421768707	1.405	304.048	n/a	GetAnswer	Mixed
304.059	4.0	0.011	862.567	47.0	2	-6.0	-6.0	22.4536	70.0	0.52	Certain	-14.51	1.1	0.0	No	n/a	-15.6054421768707	n/a	n/a	n/a	ShowChoice	Mixed
308.075	1.0	0.016	866.583	47.0	2	-6.0	-6.0	22.4536	70.0	0.52	Certain	-14.51	1.1	0.0	No	n/a	-15.6054421768707	n/a	n/a	n/a	ShowResult	Mixed
309.091	2.0	0.016	867.599	47.0	2	-6.0	-6.0	22.4536	70.0	0.52	Certain	-14.51	1.1	0.0	No	n/a	-15.6054421768707	n/a	n/a	n/a	ISITrial	Mixed
311.107	3.0	0.016	869.615	48.0	2	-5.6	2.0	21.7536	70.0	5.0	Outcome1	-5.6	10.3	2.83175	Yes	2.0	-15.9024943310658	1.258	312.365	n/a	GetAnswer	Gain
312.39	4.0	0.025	870.898	48.0	2	-5.6	2.0	21.7536	70.0	5.0	Outcome1	-5.6	10.3	2.83175	Yes	n/a	-15.9024943310658	n/a	n/a	n/a	ShowChoice	Gain
316.405	1.0	0.015	874.913	48.0	2	-5.6	2.0	21.7536	70.0	5.0	Outcome1	-5.6	10.3	2.83175	Yes	n/a	-15.9024943310658	n/a	n/a	n/a	ShowResult	Gain
317.421	3.692	0.016	875.929	48.0	2	-5.6	2.0	21.7536	70.0	5.0	Outcome1	-5.6	10.3	2.83175	Yes	n/a	-15.9024943310658	n/a	n/a	n/a	ISITrial	Gain
321.137	2.832	0.024	879.645	48.0	2	-5.6	2.0	21.7536	70.0	5.0	Outcome1	-5.6	10.3	2.83175	Yes	n/a	-15.9024943310658	n/a	n/a	n/a	TrialHappPreview	Gain
323.986	4.015	0.017	882.494	48.0	2	-5.6	2.0	21.7536	70.0	5.0	Outcome1	-5.6	10.3	2.83175	Yes	n/a	-15.9024943310658	n/a	n/a	148.0	TrialHappiness	Gain
323.986	2.994	n/a	882.758	48.0	2	-5.6	2.0	21.7536	70.0	5.0	Outcome1	-5.6	10.3	2.83175	Yes	n/a	-15.9024943310658	n/a	n/a	148.0	TrialHappinessSliderResponse	Gain
328.001	3.327	4.015	886.509	48.0	2	-5.6	2.0	21.7536	70.0	5.0	Outcome1	-5.6	10.3	2.83175	Yes	n/a	-15.9024943310658	n/a	n/a	n/a	ISIRate	Gain
331.35	3.0	0.022	889.858	49.0	2	-6.57	0.0	20.9324	70.0	1.68	Outcome1	-6.57	6.5	0.0	No	2.0	-13.0702947845805	1.405	332.755	n/a	GetAnswer	Gain
332.766	4.0	0.011	891.274	49.0	2	-6.57	0.0	20.9324	70.0	1.68	Outcome1	-6.57	6.5	0.0	No	n/a	-13.0702947845805	n/a	n/a	n/a	ShowChoice	Gain
336.781	1.0	0.015	895.289	49.0	2	-6.57	0.0	20.9324	70.0	1.68	Outcome1	-6.57	6.5	0.0	No	n/a	-13.0702947845805	n/a	n/a	n/a	ShowResult	Gain
337.798	8.0	0.017	896.306	49.0	2	-6.57	0.0	20.9324	70.0	1.68	Outcome1	-6.57	6.5	0.0	No	n/a	-13.0702947845805	n/a	n/a	n/a	ISITrial	Gain
345.828	3.0	0.03	904.336	50.0	2	1.12	0.0	21.0724	70.0	1.68	Outcome2	-0.18	1.12	3.54725	Yes	2.0	1.30291005291005	1.233	347.061	n/a	GetAnswer	Gain
347.078	4.0	0.017	905.586	50.0	2	1.12	0.0	21.0724	70.0	1.68	Outcome2	-0.18	1.12	3.54725	Yes	n/a	1.30291005291005	n/a	n/a	n/a	ShowChoice	Gain
351.093	1.0	0.015	909.601	50.0	2	1.12	0.0	21.0724	70.0	1.68	Outcome2	-0.18	1.12	3.54725	Yes	n/a	1.30291005291005	n/a	n/a	n/a	ShowResult	Gain
352.109	7.537	0.016	910.617	50.0	2	1.12	0.0	21.0724	70.0	1.68	Outcome2	-0.18	1.12	3.54725	Yes	n/a	1.30291005291005	n/a	n/a	n/a	ISITrial	Gain
359.656	3.547	0.01	918.164	50.0	2	1.12	0.0	21.0724	70.0	1.68	Outcome2	-0.18	1.12	3.54725	Yes	n/a	1.30291005291005	n/a	n/a	n/a	TrialHappPreview	Gain
363.222	4.015	0.019	921.73	50.0	2	1.12	0.0	21.0724	70.0	1.68	Outcome2	-0.18	1.12	3.54725	Yes	n/a	1.30291005291005	n/a	n/a	300.0	TrialHappiness	Gain
363.223	2.996	n/a	922.418	50.0	2	1.12	0.0	21.0724	70.0	1.68	Outcome2	-0.18	1.12	3.54725	Yes	n/a	1.30291005291005	n/a	n/a	300.0	TrialHappinessSliderResponse	Gain
367.237	6.189	4.015	925.745	50.0	2	1.12	0.0	21.0724	70.0	1.68	Outcome2	-0.18	1.12	3.54725	Yes	n/a	1.30291005291005	n/a	n/a	n/a	ISIRate	Gain
373.452	3.0	0.026	931.96	51.0	2	-6.13	2.0	20.3062	70.0	3.16	Outcome1	-6.13	9.7	0.0	No	2.0	-15.8321995464853	1.073	374.525	n/a	GetAnswer	Gain
374.551	4.0	0.026	933.059	51.0	2	-6.13	2.0	20.3062	70.0	3.16	Outcome1	-6.13	9.7	0.0	No	n/a	-15.8321995464853	n/a	n/a	n/a	ShowChoice	Gain
378.566	1.0	0.015	937.074	51.0	2	-6.13	2.0	20.3062	70.0	3.16	Outcome1	-6.13	9.7	0.0	No	n/a	-15.8321995464853	n/a	n/a	n/a	ShowResult	Gain
379.583	5.508	0.017	938.091	51.0	2	-6.13	2.0	20.3062	70.0	3.16	Outcome1	-6.13	9.7	0.0	No	n/a	-15.8321995464853	n/a	n/a	n/a	ISITrial	Gain
385.114	3.0	0.023	943.622	52.0	2	2.17	1.0	20.5774	70.0	1.82	Outcome2	0.22	2.17	0.0	No	2.0	1.94954648526077	1.06	386.174	n/a	GetAnswer	Gain
386.197	4.0	0.023	944.705	52.0	2	2.17	1.0	20.5774	70.0	1.82	Outcome2	0.22	2.17	0.0	No	n/a	1.94954648526077	n/a	n/a	n/a	ShowChoice	Gain
390.212	1.0	0.015	948.72	52.0	2	2.17	1.0	20.5774	70.0	1.82	Outcome2	0.22	2.17	0.0	No	n/a	1.94954648526077	n/a	n/a	n/a	ShowResult	Gain
391.229	5.913	0.017	949.737	52.0	2	2.17	1.0	20.5774	70.0	1.82	Outcome2	0.22	2.17	0.0	No	n/a	1.94954648526077	n/a	n/a	n/a	ISITrial	Gain
397.16	3.0	0.018	955.668	53.0	2	-4.0	-4.0	20.0774	70.0	2.0	Certain	-12.05	4.3	2.99675	Yes	4.0	-16.353741496598598	1.538	398.698	n/a	GetAnswer	Mixed
398.709	4.0	0.011	957.217	53.0	2	-4.0	-4.0	20.0774	70.0	2.0	Certain	-12.05	4.3	2.99675	Yes	n/a	-16.353741496598598	n/a	n/a	n/a	ShowChoice	Mixed
402.725	1.0	0.016	961.233	53.0	2	-4.0	-4.0	20.0774	70.0	2.0	Certain	-12.05	4.3	2.99675	Yes	n/a	-16.353741496598598	n/a	n/a	n/a	ShowResult	Mixed
403.741	3.66	0.016	962.249	53.0	2	-4.0	-4.0	20.0774	70.0	2.0	Certain	-12.05	4.3	2.99675	Yes	n/a	-16.353741496598598	n/a	n/a	n/a	ISITrial	Mixed
407.423	2.997	0.022	965.931	53.0	2	-4.0	-4.0	20.0774	70.0	2.0	Certain	-12.05	4.3	2.99675	Yes	n/a	-16.353741496598598	n/a	n/a	n/a	TrialHappPreview	Mixed
410.439	4.015	0.019	968.947	53.0	2	-4.0	-4.0	20.0774	70.0	2.0	Certain	-12.05	4.3	2.99675	Yes	n/a	-16.353741496598598	n/a	n/a	472.0	TrialHappiness	Mixed
410.439	0.222	n/a	971.464	53.0	2	-4.0	-4.0	20.0774	70.0	2.0	Certain	-12.05	4.3	2.99675	Yes	n/a	-16.353741496598598	n/a	n/a	472.0	TrialHappinessSliderResponse	Mixed
414.454	3.987	4.015	972.962	53.0	2	-4.0	-4.0	20.0774	70.0	2.0	Certain	-12.05	4.3	2.99675	Yes	n/a	-16.353741496598598	n/a	n/a	n/a	ISIRate	Mixed
418.469	3.0	0.028	976.977	54.0	2	2.92	1.0	20.4424	70.0	3.16	Outcome1	2.92	0.23	0.0	No	2.0	2.69179894179894	1.119	419.588	n/a	GetAnswer	Loss
419.602	4.0	0.014	978.11	54.0	2	2.92	1.0	20.4424	70.0	3.16	Outcome1	2.92	0.23	0.0	No	n/a	2.69179894179894	n/a	n/a	n/a	ShowChoice	Loss
423.617	1.0	0.015	982.125	54.0	2	2.92	1.0	20.4424	70.0	3.16	Outcome1	2.92	0.23	0.0	No	n/a	2.69179894179894	n/a	n/a	n/a	ShowResult	Loss
424.634	8.0	0.017	983.142	54.0	2	2.92	1.0	20.4424	70.0	3.16	Outcome1	2.92	0.23	0.0	No	n/a	2.69179894179894	n/a	n/a	n/a	ISITrial	Loss
441.062	0.161	n/a	1000.054	n/a	2	n/a	n/a	n/a	n/a	n/a	n/a	n/a	n/a	n/a	n/a	n/a	n/a	n/a	n/a	504.0	BlockStartHappinessSliderResponse	n/a
-73.458	-0.001	0.03	991.172	n/a	3	n/a	n/a	n/a	n/a	n/a	n/a	n/a	n/a	n/a	n/a	2.0	n/a	4.37	-69.088	n/a	Rest	n/a
-69.076	4.0	0.012	995.554	n/a	3	n/a	n/a	n/a	n/a	n/a	n/a	n/a	n/a	n/a	n/a	n/a	n/a	n/a	n/a	n/a	BlockHappyPreview	n/a
-65.061	0.645	0.015	999.569	n/a	3	n/a	n/a	n/a	n/a	n/a	n/a	n/a	n/a	n/a	n/a	n/a	n/a	n/a	n/a	504.0	BlockStartHappiness	n/a
-7.414	-0.001	0.021	1057.216	n/a	3	n/a	n/a	n/a	n/a	n/a	n/a	n/a	n/a	n/a	n/a	5.0	n/a	7.391	-0.023	n/a	ScanWait	n/a
0.0	10.0	0.023	1064.63	n/a	3	n/a	n/a	n/a	n/a	n/a	n/a	n/a	n/a	n/a	n/a	n/a	n/a	n/a	n/a	n/a	GetReady	n/a
10.013	3.0	0.013	1074.643	55.0	3	-0.33	0.0	20.4012	955.0	0.82	Outcome1	-0.33	1.5	2.53325	Yes	2.0	-1.83021895054738	1.176	11.189	n/a	GetAnswer	Mixed
11.212	4.0	0.023	1075.842	55.0	3	-0.33	0.0	20.4012	955.0	0.82	Outcome1	-0.33	1.5	2.53325	Yes	n/a	-1.83021895054738	n/a	n/a	n/a	ShowChoice	Mixed
15.228	1.0	0.016	1079.858	55.0	3	-0.33	0.0	20.4012	955.0	0.82	Outcome1	-0.33	1.5	2.53325	Yes	n/a	-1.83021895054738	n/a	n/a	n/a	ShowResult	Mixed
16.244	7.709	0.016	1080.874	55.0	3	-0.33	0.0	20.4012	955.0	0.82	Outcome1	-0.33	1.5	2.53325	Yes	n/a	-1.83021895054738	n/a	n/a	n/a	ISITrial	Mixed
23.974	2.533	0.021	1088.604	55.0	3	-0.33	0.0	20.4012	955.0	0.82	Outcome1	-0.33	1.5	2.53325	Yes	n/a	-1.83021895054738	n/a	n/a	n/a	TrialHappPreview	Mixed
26.524	4.015	0.017	1091.154	55.0	3	-0.33	0.0	20.4012	955.0	0.82	Outcome1	-0.33	1.5	2.53325	Yes	n/a	-1.83021895054738	n/a	n/a	320.0	TrialHappiness	Mixed
26.524	3.597	n/a	1091.441	55.0	3	-0.33	0.0	20.4012	955.0	0.82	Outcome1	-0.33	1.5	2.53325	Yes	n/a	-1.83021895054738	n/a	n/a	320.0	TrialHappinessSliderResponse	Mixed
30.539	2.133	4.015	1095.169	55.0	3	-0.33	0.0	20.4012	955.0	0.82	Outcome1	-0.33	1.5	2.53325	Yes	n/a	-1.83021895054738	n/a	n/a	n/a	ISIRate	Mixed
32.688	3.0	0.016	1097.318	56.0	3	-2.0	-2.0	20.1512	955.0	0.66	Certain	-8.0	3.3	0.0	No	4.0	11.2978482446206	1.307	33.995	n/a	GetAnswer	Mixed
34.021	4.0	0.026	1098.651	56.0	3	-2.0	-2.0	20.1512	955.0	0.66	Certain	-8.0	3.3	0.0	No	n/a	11.2978482446206	n/a	n/a	n/a	ShowChoice	Mixed
38.036	1.0	0.015	1102.666	56.0	3	-2.0	-2.0	20.1512	955.0	0.66	Certain	-8.0	3.3	0.0	No	n/a	11.2978482446206	n/a	n/a	n/a	ShowResult	Mixed
39.052	4.697	0.016	1103.682	56.0	3	-2.0	-2.0	20.1512	955.0	0.66	Certain	-8.0	3.3	0.0	No	n/a	11.2978482446206	n/a	n/a	n/a	ISITrial	Mixed
43.767	3.0	0.018	1108.397	57.0	3	8.22	4.11	21.1787	955.0	2.0	Outcome2	10.9	8.22	0.0	No	2.0	-2.6794073235183102	0.961	44.728	n/a	GetAnswer	Loss
44.75	4.0	0.022	1109.38	57.0	3	8.22	4.11	21.1787	955.0	2.0	Outcome2	10.9	8.22	0.0	No	n/a	-2.6794073235183102	n/a	n/a	n/a	ShowChoice	Loss
48.766	1.0	0.016	1113.396	57.0	3	8.22	4.11	21.1787	955.0	2.0	Outcome2	10.9	8.22	0.0	No	n/a	-2.6794073235183102	n/a	n/a	n/a	ShowResult	Loss
49.782	4.291	0.016	1114.412	57.0	3	8.22	4.11	21.1787	955.0	2.0	Outcome2	10.9	8.22	0.0	No	n/a	-2.6794073235183102	n/a	n/a	n/a	ISITrial	Loss
54.097	3.0	0.024	1118.727	58.0	3	-7.0	-7.0	20.3037	955.0	0.52	Certain	-0.9	-13.64	3.04575	Yes	4.0	12.7361268403171	1.349	55.446	n/a	GetAnswer	Mixed
55.463	4.0	0.017	1120.093	58.0	3	-7.0	-7.0	20.3037	955.0	0.52	Certain	-0.9	-13.64	3.04575	Yes	n/a	12.7361268403171	n/a	n/a	n/a	ShowChoice	Mixed
59.479	1.0	0.016	1124.109	58.0	3	-7.0	-7.0	20.3037	955.0	0.52	Certain	-0.9	-13.64	3.04575	Yes	n/a	12.7361268403171	n/a	n/a	n/a	ShowResult	Mixed
60.495	2.037	0.016	1125.125	58.0	3	-7.0	-7.0	20.3037	955.0	0.52	Certain	-0.9	-13.64	3.04575	Yes	n/a	12.7361268403171	n/a	n/a	n/a	ISITrial	Mixed
62.544	3.046	0.012	1127.174	58.0	3	-7.0	-7.0	20.3037	955.0	0.52	Certain	-0.9	-13.64	3.04575	Yes	n/a	12.7361268403171	n/a	n/a	n/a	TrialHappPreview	Mixed
65.61	4.015	0.02	1130.24	58.0	3	-7.0	-7.0	20.3037	955.0	0.52	Certain	-0.9	-13.64	3.04575	Yes	n/a	12.7361268403171	n/a	n/a	344.0	TrialHappiness	Mixed
65.61	0.924	n/a	1130.522	58.0	3	-7.0	-7.0	20.3037	955.0	0.52	Certain	-0.9	-13.64	3.04575	Yes	n/a	12.7361268403171	n/a	n/a	344.0	TrialHappinessSliderResponse	Mixed
69.625	4.183	4.015	1134.255	58.0	3	-7.0	-7.0	20.3037	955.0	0.52	Certain	-0.9	-13.64	3.04575	Yes	n/a	12.7361268403171	n/a	n/a	n/a	ISIRate	Mixed
73.824	3.0	0.016	1138.454	59.0	3	4.9	-1.0	20.9162	955.0	2.0	Outcome1	4.9	-8.15	0.0	No	2.0	13.047565118912802	1.117	74.941	n/a	GetAnswer	Gain
74.956	4.0	0.015	1139.586	59.0	3	4.9	-1.0	20.9162	955.0	2.0	Outcome1	4.9	-8.15	0.0	No	n/a	13.047565118912802	n/a	n/a	n/a	ShowChoice	Gain
78.972	1.0	0.016	1143.602	59.0	3	4.9	-1.0	20.9162	955.0	2.0	Outcome1	4.9	-8.15	0.0	No	n/a	13.047565118912802	n/a	n/a	n/a	ShowResult	Gain
79.988	5.064	0.016	1144.618	59.0	3	4.9	-1.0	20.9162	955.0	2.0	Outcome1	4.9	-8.15	0.0	No	n/a	13.047565118912802	n/a	n/a	n/a	ISITrial	Gain
85.07	3.0	0.018	1149.7	60.0	3	-5.0	-5.0	20.2912	955.0	0.66	Certain	-12.44	1.3	3.5625	Yes	4.0	13.7395243488109	1.466	86.536	n/a	GetAnswer	Mixed
86.552	4.0	0.016	1151.182	60.0	3	-5.0	-5.0	20.2912	955.0	0.66	Certain	-12.44	1.3	3.5625	Yes	n/a	13.7395243488109	n/a	n/a	n/a	ShowChoice	Mixed
90.568	1.0	0.016	1155.198	60.0	3	-5.0	-5.0	20.2912	955.0	0.66	Certain	-12.44	1.3	3.5625	Yes	n/a	13.7395243488109	n/a	n/a	n/a	ShowResult	Mixed
91.584	8.0	0.016	1156.214	60.0	3	-5.0	-5.0	20.2912	955.0	0.66	Certain	-12.44	1.3	3.5625	Yes	n/a	13.7395243488109	n/a	n/a	n/a	ISITrial	Mixed
99.598	3.562	0.014	1164.228	60.0	3	-5.0	-5.0	20.2912	955.0	0.66	Certain	-12.44	1.3	3.5625	Yes	n/a	13.7395243488109	n/a	n/a	n/a	TrialHappPreview	Mixed
103.18	4.015	0.02	1167.81	60.0	3	-5.0	-5.0	20.2912	955.0	0.66	Certain	-12.44	1.3	3.5625	Yes	n/a	13.7395243488109	n/a	n/a	348.0	TrialHappiness	Mixed
103.181	2.219	n/a	1168.141	60.0	3	-5.0	-5.0	20.2912	955.0	0.66	Certain	-12.44	1.3	3.5625	Yes	n/a	13.7395243488109	n/a	n/a	348.0	TrialHappinessSliderResponse	Mixed
107.195	6.25	4.015	1171.825	60.0	3	-5.0	-5.0	20.2912	955.0	0.66	Certain	-12.44	1.3	3.5625	Yes	n/a	13.7395243488109	n/a	n/a	n/a	ISIRate	Mixed
113.476	3.0	0.031	1178.106	61.0	3	7.9	3.95	21.2787	955.0	1.82	Outcome2	10.7	7.9	0.0	No	2.0	-2.800962627406569	0.815	114.291	n/a	GetAnswer	Loss
114.309	4.0	0.018	1178.939	61.0	3	7.9	3.95	21.2787	955.0	1.82	Outcome2	10.7	7.9	0.0	No	n/a	-2.800962627406569	n/a	n/a	n/a	ShowChoice	Loss
118.325	1.0	0.016	1182.955	61.0	3	7.9	3.95	21.2787	955.0	1.82	Outcome2	10.7	7.9	0.0	No	n/a	-2.800962627406569	n/a	n/a	n/a	ShowResult	Loss
119.341	4.586	0.016	1183.971	61.0	3	7.9	3.95	21.2787	955.0	1.82	Outcome2	10.7	7.9	0.0	No	n/a	-2.800962627406569	n/a	n/a	n/a	ISITrial	Loss
123.956	3.0	0.029	1188.586	62.0	3	11.3	-1.88	22.6912	955.0	2.48	Outcome1	11.3	-3.75	3.74875	Yes	2.0	15.0509626274066	1.182	125.138	n/a	GetAnswer	Loss
125.155	4.0	0.017	1189.785	62.0	3	11.3	-1.88	22.6912	955.0	2.48	Outcome1	11.3	-3.75	3.74875	Yes	n/a	15.0509626274066	n/a	n/a	n/a	ShowChoice	Loss
129.171	1.0	0.016	1193.801	62.0	3	11.3	-1.88	22.6912	955.0	2.48	Outcome1	11.3	-3.75	3.74875	Yes	n/a	15.0509626274066	n/a	n/a	n/a	ShowResult	Loss
130.187	5.212	0.016	1194.817	62.0	3	11.3	-1.88	22.6912	955.0	2.48	Outcome1	11.3	-3.75	3.74875	Yes	n/a	15.0509626274066	n/a	n/a	n/a	ISITrial	Loss
135.419	3.749	0.02	1200.049	62.0	3	11.3	-1.88	22.6912	955.0	2.48	Outcome1	11.3	-3.75	3.74875	Yes	n/a	15.0509626274066	n/a	n/a	n/a	TrialHappPreview	Loss
139.184	4.015	0.016	1203.814	62.0	3	11.3	-1.88	22.6912	955.0	2.48	Outcome1	11.3	-3.75	3.74875	Yes	n/a	15.0509626274066	n/a	n/a	372.0	TrialHappiness	Loss
139.184	3.646	n/a	1204.151	62.0	3	11.3	-1.88	22.6912	955.0	2.48	Outcome1	11.3	-3.75	3.74875	Yes	n/a	15.0509626274066	n/a	n/a	372.0	TrialHappinessSliderResponse	Loss
143.199	6.995	4.015	1207.829	62.0	3	11.3	-1.88	22.6912	955.0	2.48	Outcome1	11.3	-3.75	3.74875	Yes	n/a	15.0509626274066	n/a	n/a	n/a	ISIRate	Loss
150.213	3.0	0.019	1214.843	63.0	3	-1.0	-1.0	22.5662	955.0	4.2	Certain	-9.23	6.1	0.0	No	4.0	15.3306908267271	1.167	151.38	n/a	GetAnswer	Gain
151.396	4.0	0.016	1216.026	63.0	3	-1.0	-1.0	22.5662	955.0	4.2	Certain	-9.23	6.1	0.0	No	n/a	15.3306908267271	n/a	n/a	n/a	ShowChoice	Gain
155.411	1.0	0.015	1220.041	63.0	3	-1.0	-1.0	22.5662	955.0	4.2	Certain	-9.23	6.1	0.0	No	n/a	15.3306908267271	n/a	n/a	n/a	ShowResult	Gain
156.428	5.595	0.017	1221.058	63.0	3	-1.0	-1.0	22.5662	955.0	4.2	Certain	-9.23	6.1	0.0	No	n/a	15.3306908267271	n/a	n/a	n/a	ISITrial	Gain
162.042	3.0	0.019	1226.672	64.0	3	11.1	-2.44	23.9537	955.0	2.22	Outcome2	-4.89	11.1	0.0	No	2.0	15.9909399773499	1.147	163.189	n/a	GetAnswer	Loss
163.209	4.0	0.02	1227.839	64.0	3	11.1	-2.44	23.9537	955.0	2.22	Outcome2	-4.89	11.1	0.0	No	n/a	15.9909399773499	n/a	n/a	n/a	ShowChoice	Loss
167.224	1.0	0.015	1231.854	64.0	3	11.1	-2.44	23.9537	955.0	2.22	Outcome2	-4.89	11.1	0.0	No	n/a	15.9909399773499	n/a	n/a	n/a	ShowResult	Loss
168.24	5.47	0.016	1232.87	64.0	3	11.1	-2.44	23.9537	955.0	2.22	Outcome2	-4.89	11.1	0.0	No	n/a	15.9909399773499	n/a	n/a	n/a	ISITrial	Loss
173.738	3.0	0.028	1238.368	65.0	3	-6.0	-6.0	23.2037	955.0	1.2	Certain	-14.75	1.9	2.99675	Yes	4.0	16.6511891279728	1.347	175.085	n/a	GetAnswer	Mixed
175.105	4.0	0.02	1239.735	65.0	3	-6.0	-6.0	23.2037	955.0	1.2	Certain	-14.75	1.9	2.99675	Yes	n/a	16.6511891279728	n/a	n/a	n/a	ShowChoice	Mixed
179.12	1.0	0.015	1243.75	65.0	3	-6.0	-6.0	23.2037	955.0	1.2	Certain	-14.75	1.9	2.99675	Yes	n/a	16.6511891279728	n/a	n/a	n/a	ShowResult	Mixed
180.136	3.344	0.016	1244.766	65.0	3	-6.0	-6.0	23.2037	955.0	1.2	Certain	-14.75	1.9	2.99675	Yes	n/a	16.6511891279728	n/a	n/a	n/a	ISITrial	Mixed
183.502	2.997	0.022	1248.132	65.0	3	-6.0	-6.0	23.2037	955.0	1.2	Certain	-14.75	1.9	2.99675	Yes	n/a	16.6511891279728	n/a	n/a	n/a	TrialHappPreview	Mixed
186.517	4.015	0.018	1251.147	65.0	3	-6.0	-6.0	23.2037	955.0	1.2	Certain	-14.75	1.9	2.99675	Yes	n/a	16.6511891279728	n/a	n/a	512.0	TrialHappiness	Mixed
186.518	3.492	n/a	1251.476	65.0	3	-6.0	-6.0	23.2037	955.0	1.2	Certain	-14.75	1.9	2.99675	Yes	n/a	16.6511891279728	n/a	n/a	512.0	TrialHappinessSliderResponse	Mixed
190.532	3.987	4.015	1255.162	65.0	3	-6.0	-6.0	23.2037	955.0	1.2	Certain	-14.75	1.9	2.99675	Yes	n/a	16.6511891279728	n/a	n/a	n/a	ISIRate	Mixed
194.548	3.0	0.029	1259.178	66.0	3	-1.52	0.0	23.0137	955.0	0.4	Outcome2	0.9	-1.52	0.0	No	2.0	-2.41506228765572	1.287	195.835	n/a	GetAnswer	Mixed
195.847	4.0	0.012	1260.477	66.0	3	-1.52	0.0	23.0137	955.0	0.4	Outcome2	0.9	-1.52	0.0	No	n/a	-2.41506228765572	n/a	n/a	n/a	ShowChoice	Mixed
199.862	1.0	0.015	1264.492	66.0	3	-1.52	0.0	23.0137	955.0	0.4	Outcome2	0.9	-1.52	0.0	No	n/a	-2.41506228765572	n/a	n/a	n/a	ShowResult	Mixed
200.879	3.959	0.017	1265.509	66.0	3	-1.52	0.0	23.0137	955.0	0.4	Outcome2	0.9	-1.52	0.0	No	n/a	-2.41506228765572	n/a	n/a	n/a	ISITrial	Mixed
204.861	3.0	0.023	1269.491	67.0	3	3.5	-4.0	23.4512	955.0	0.82	Outcome2	-11.93	3.5	2.9185	Yes	2.0	15.4348810872027	1.435	206.296	n/a	GetAnswer	Mixed
206.31	4.0	0.014	1270.94	67.0	3	3.5	-4.0	23.4512	955.0	0.82	Outcome2	-11.93	3.5	2.9185	Yes	n/a	15.4348810872027	n/a	n/a	n/a	ShowChoice	Mixed
210.325	1.0	0.015	1274.955	67.0	3	3.5	-4.0	23.4512	955.0	0.82	Outcome2	-11.93	3.5	2.9185	Yes	n/a	15.4348810872027	n/a	n/a	n/a	ShowResult	Mixed
211.342	4.199	0.017	1275.972	67.0	3	3.5	-4.0	23.4512	955.0	0.82	Outcome2	-11.93	3.5	2.9185	Yes	n/a	15.4348810872027	n/a	n/a	n/a	ISITrial	Mixed
215.557	2.918	0.016	1280.187	67.0	3	3.5	-4.0	23.4512	955.0	0.82	Outcome2	-11.93	3.5	2.9185	Yes	n/a	15.4348810872027	n/a	n/a	n/a	TrialHappPreview	Mixed
218.489	4.016	0.014	1283.119	67.0	3	3.5	-4.0	23.4512	955.0	0.82	Outcome2	-11.93	3.5	2.9185	Yes	n/a	15.4348810872027	n/a	n/a	464.0	TrialHappiness	Mixed
218.49	2.642	n/a	1283.489	67.0	3	3.5	-4.0	23.4512	955.0	0.82	Outcome2	-11.93	3.5	2.9185	Yes	n/a	15.4348810872027	n/a	n/a	464.0	TrialHappinessSliderResponse	Mixed
222.505	3.674	4.016	1287.135	67.0	3	3.5	-4.0	23.4512	955.0	0.82	Outcome2	-11.93	3.5	2.9185	Yes	n/a	15.4348810872027	n/a	n/a	n/a	ISIRate	Mixed
226.203	3.0	0.024	1290.833	68.0	3	-1.0	-1.0	23.3262	955.0	1.82	Certain	6.7	-10.05	0.0	No	4.0	16.7519818799547	1.353	227.556	n/a	GetAnswer	Gain
227.569	4.0	0.013	1292.199	68.0	3	-1.0	-1.0	23.3262	955.0	1.82	Certain	6.7	-10.05	0.0	No	n/a	16.7519818799547	n/a	n/a	n/a	ShowChoice	Gain
231.585	1.0	0.016	1296.215	68.0	3	-1.0	-1.0	23.3262	955.0	1.82	Certain	6.7	-10.05	0.0	No	n/a	16.7519818799547	n/a	n/a	n/a	ShowResult	Gain
232.601	2.185	0.016	1297.231	68.0	3	-1.0	-1.0	23.3262	955.0	1.82	Certain	6.7	-10.05	0.0	No	n/a	16.7519818799547	n/a	n/a	n/a	ISITrial	Gain
234.817	3.0	0.031	1299.447	69.0	3	1.0	1.0	23.4512	955.0	2.8	Certain	9.5	-7.81	0.0	No	4.0	17.3080407701019	1.159	235.976	n/a	GetAnswer	Gain
236.0	4.0	0.024	1300.63	69.0	3	1.0	1.0	23.4512	955.0	2.8	Certain	9.5	-7.81	0.0	No	n/a	17.3080407701019	n/a	n/a	n/a	ShowChoice	Gain
240.015	1.0	0.015	1304.645	69.0	3	1.0	1.0	23.4512	955.0	2.8	Certain	9.5	-7.81	0.0	No	n/a	17.3080407701019	n/a	n/a	n/a	ShowResult	Gain
241.031	2.0	0.016	1305.661	69.0	3	1.0	1.0	23.4512	955.0	2.8	Certain	9.5	-7.81	0.0	No	n/a	17.3080407701019	n/a	n/a	n/a	ISITrial	Gain
243.047	3.0	0.016	1307.677	70.0	3	-1.5	-10.0	23.2637	955.0	0.2	Outcome1	-1.5	-19.36	3.65125	Yes	2.0	17.864099660249103	1.773	244.82	n/a	GetAnswer	Mixed
244.847	4.0	0.027	1309.477	70.0	3	-1.5	-10.0	23.2637	955.0	0.2	Outcome1	-1.5	-19.36	3.65125	Yes	n/a	17.864099660249103	n/a	n/a	n/a	ShowChoice	Mixed
248.862	1.0	0.015	1313.492	70.0	3	-1.5	-10.0	23.2637	955.0	0.2	Outcome1	-1.5	-19.36	3.65125	Yes	n/a	17.864099660249103	n/a	n/a	n/a	ShowResult	Mixed
249.878	2.623	0.016	1314.508	70.0	3	-1.5	-10.0	23.2637	955.0	0.2	Outcome1	-1.5	-19.36	3.65125	Yes	n/a	17.864099660249103	n/a	n/a	n/a	ISITrial	Mixed
252.527	3.651	0.026	1317.157	70.0	3	-1.5	-10.0	23.2637	955.0	0.2	Outcome1	-1.5	-19.36	3.65125	Yes	n/a	17.864099660249103	n/a	n/a	n/a	TrialHappPreview	Mixed
256.209	4.016	0.031	1320.839	70.0	3	-1.5	-10.0	23.2637	955.0	0.2	Outcome1	-1.5	-19.36	3.65125	Yes	n/a	17.864099660249103	n/a	n/a	572.0	TrialHappiness	Mixed
256.21	2.619	n/a	1321.174	70.0	3	-1.5	-10.0	23.2637	955.0	0.2	Outcome1	-1.5	-19.36	3.65125	Yes	n/a	17.864099660249103	n/a	n/a	572.0	TrialHappinessSliderResponse	Mixed
260.225	6.605	4.016	1324.855	70.0	3	-1.5	-10.0	23.2637	955.0	0.2	Outcome1	-1.5	-19.36	3.65125	Yes	n/a	17.864099660249103	n/a	n/a	n/a	ISIRate	Mixed
266.856	3.0	0.026	1331.486	71.0	3	10.91	5.46	24.6275	955.0	2.48	Outcome2	13.3	10.91	0.0	No	2.0	-2.3942053605134	1.201	268.057	n/a	GetAnswer	Loss
268.072	4.0	0.015	1332.702	71.0	3	10.91	5.46	24.6275	955.0	2.48	Outcome2	13.3	10.91	0.0	No	n/a	-2.3942053605134	n/a	n/a	n/a	ShowChoice	Loss
272.087	1.0	0.015	1336.717	71.0	3	10.91	5.46	24.6275	955.0	2.48	Outcome2	13.3	10.91	0.0	No	n/a	-2.3942053605134	n/a	n/a	n/a	ShowResult	Loss
273.103	5.499	0.016	1337.733	71.0	3	10.91	5.46	24.6275	955.0	2.48	Outcome2	13.3	10.91	0.0	No	n/a	-2.3942053605134	n/a	n/a	n/a	ISITrial	Loss
278.635	3.0	0.033	1343.265	72.0	3	7.7	-1.0	25.59	955.0	3.16	Outcome1	7.7	-9.32	3.0805	Yes	2.0	17.0192525481314	1.544	280.179	n/a	GetAnswer	Gain
280.201	4.0	0.022	1344.831	72.0	3	7.7	-1.0	25.59	955.0	3.16	Outcome1	7.7	-9.32	3.0805	Yes	n/a	17.0192525481314	n/a	n/a	n/a	ShowChoice	Gain
284.216	1.0	0.015	1348.846	72.0	3	7.7	-1.0	25.59	955.0	3.16	Outcome1	7.7	-9.32	3.0805	Yes	n/a	17.0192525481314	n/a	n/a	n/a	ShowResult	Gain
285.232	5.672	0.016	1349.862	72.0	3	7.7	-1.0	25.59	955.0	3.16	Outcome1	7.7	-9.32	3.0805	Yes	n/a	17.0192525481314	n/a	n/a	n/a	ISITrial	Gain
290.93	3.08	0.026	1355.56	72.0	3	7.7	-1.0	25.59	955.0	3.16	Outcome1	7.7	-9.32	3.0805	Yes	n/a	17.0192525481314	n/a	n/a	n/a	TrialHappPreview	Gain
294.029	4.016	0.019	1358.659	72.0	3	7.7	-1.0	25.59	955.0	3.16	Outcome1	7.7	-9.32	3.0805	Yes	n/a	17.0192525481314	n/a	n/a	660.0	TrialHappiness	Gain
294.03	1.918	n/a	1359.228	72.0	3	7.7	-1.0	25.59	955.0	3.16	Outcome1	7.7	-9.32	3.0805	Yes	n/a	17.0192525481314	n/a	n/a	660.0	TrialHappinessSliderResponse	Gain
298.045	4.322	4.016	1362.675	72.0	3	7.7	-1.0	25.59	955.0	3.16	Outcome1	7.7	-9.32	3.0805	Yes	n/a	17.0192525481314	n/a	n/a	n/a	ISIRate	Gain
302.393	3.0	0.026	1367.023	73.0	3	-8.0	-8.0	24.59	955.0	0.66	Certain	-0.7	-16.66	0.0	No	4.0	15.9580973952435	1.924	304.317	n/a	GetAnswer	Mixed
304.342	4.0	0.025	1368.972	73.0	3	-8.0	-8.0	24.59	955.0	0.66	Certain	-0.7	-16.66	0.0	No	n/a	15.9580973952435	n/a	n/a	n/a	ShowChoice	Mixed
308.358	1.0	0.016	1372.988	73.0	3	-8.0	-8.0	24.59	955.0	0.66	Certain	-0.7	-16.66	0.0	No	n/a	15.9580973952435	n/a	n/a	n/a	ShowResult	Mixed
309.374	4.616	0.016	1374.004	73.0	3	-8.0	-8.0	24.59	955.0	0.66	Certain	-0.7	-16.66	0.0	No	n/a	15.9580973952435	n/a	n/a	n/a	ISITrial	Mixed
314.006	3.0	0.016	1378.636	74.0	3	7.16	3.58	25.485	955.0	2.48	Outcome2	9.3	7.16	3.05625	Yes	2.0	-2.13722159305398	1.007	315.013	n/a	GetAnswer	Gain
315.039	4.0	0.026	1379.669	74.0	3	7.16	3.58	25.485	955.0	2.48	Outcome2	9.3	7.16	3.05625	Yes	n/a	-2.13722159305398	n/a	n/a	n/a	ShowChoice	Gain
319.054	1.0	0.015	1383.684	74.0	3	7.16	3.58	25.485	955.0	2.48	Outcome2	9.3	7.16	3.05625	Yes	n/a	-2.13722159305398	n/a	n/a	n/a	ShowResult	Gain
320.07	3.909	0.016	1384.7	74.0	3	7.16	3.58	25.485	955.0	2.48	Outcome2	9.3	7.16	3.05625	Yes	n/a	-2.13722159305398	n/a	n/a	n/a	ISITrial	Gain
324.002	3.056	0.023	1388.632	74.0	3	7.16	3.58	25.485	955.0	2.48	Outcome2	9.3	7.16	3.05625	Yes	n/a	-2.13722159305398	n/a	n/a	n/a	TrialHappPreview	Gain
327.084	4.016	0.026	1391.714	74.0	3	7.16	3.58	25.485	955.0	2.48	Outcome2	9.3	7.16	3.05625	Yes	n/a	-2.13722159305398	n/a	n/a	420.0	TrialHappiness	Gain
327.085	1.759	n/a	1392.001	74.0	3	7.16	3.58	25.485	955.0	2.48	Outcome2	9.3	7.16	3.05625	Yes	n/a	-2.13722159305398	n/a	n/a	420.0	TrialHappinessSliderResponse	Gain
331.1	4.225	4.016	1395.73	74.0	3	7.16	3.58	25.485	955.0	2.48	Outcome2	9.3	7.16	3.05625	Yes	n/a	-2.13722159305398	n/a	n/a	n/a	ISIRate	Gain
335.348	3.0	0.023	1399.978	75.0	3	2.0	2.0	25.735	955.0	1.68	Certain	-8.2	12.5	0.0	No	4.0	20.7032842582106	1.244	336.592	n/a	GetAnswer	Loss
336.614	4.0	0.022	1401.244	75.0	3	2.0	2.0	25.735	955.0	1.68	Certain	-8.2	12.5	0.0	No	n/a	20.7032842582106	n/a	n/a	n/a	ShowChoice	Loss
340.63	1.0	0.016	1405.26	75.0	3	2.0	2.0	25.735	955.0	1.68	Certain	-8.2	12.5	0.0	No	n/a	20.7032842582106	n/a	n/a	n/a	ShowResult	Loss
341.646	4.979	0.016	1406.276	75.0	3	2.0	2.0	25.735	955.0	1.68	Certain	-8.2	12.5	0.0	No	n/a	20.7032842582106	n/a	n/a	n/a	ISITrial	Loss
346.644	3.0	0.019	1411.274	76.0	3	0.5	-10.0	25.7975	955.0	0.2	Outcome2	-20.81	0.5	0.0	No	2.0	21.3091732729332	1.79	348.434	n/a	GetAnswer	Mixed
348.46	4.0	0.026	1413.09	76.0	3	0.5	-10.0	25.7975	955.0	0.2	Outcome2	-20.81	0.5	0.0	No	n/a	21.3091732729332	n/a	n/a	n/a	ShowChoice	Mixed
352.475	1.0	0.015	1417.105	76.0	3	0.5	-10.0	25.7975	955.0	0.2	Outcome2	-20.81	0.5	0.0	No	n/a	21.3091732729332	n/a	n/a	n/a	ShowResult	Mixed
353.492	3.931	0.017	1418.122	76.0	3	0.5	-10.0	25.7975	955.0	0.2	Outcome2	-20.81	0.5	0.0	No	n/a	21.3091732729332	n/a	n/a	n/a	ISITrial	Mixed
357.44	3.0	0.017	1422.07	77.0	3	-0.54	1.0	25.73	955.0	0.3	Outcome1	-0.54	2.7	4.0	Yes	2.0	-3.23999622499056	1.337	358.777	n/a	GetAnswer	Mixed
358.79	4.0	0.013	1423.42	77.0	3	-0.54	1.0	25.73	955.0	0.3	Outcome1	-0.54	2.7	4.0	Yes	n/a	-3.23999622499056	n/a	n/a	n/a	ShowChoice	Mixed
362.805	1.0	0.015	1427.435	77.0	3	-0.54	1.0	25.73	955.0	0.3	Outcome1	-0.54	2.7	4.0	Yes	n/a	-3.23999622499056	n/a	n/a	n/a	ShowResult	Mixed
363.821	7.022	0.016	1428.451	77.0	3	-0.54	1.0	25.73	955.0	0.3	Outcome1	-0.54	2.7	4.0	Yes	n/a	-3.23999622499056	n/a	n/a	n/a	ISITrial	Mixed
370.869	4.0	0.026	1435.499	77.0	3	-0.54	1.0	25.73	955.0	0.3	Outcome1	-0.54	2.7	4.0	Yes	n/a	-3.23999622499056	n/a	n/a	n/a	TrialHappPreview	Mixed
374.884	4.015	0.015	1439.514	77.0	3	-0.54	1.0	25.73	955.0	0.3	Outcome1	-0.54	2.7	4.0	Yes	2{-2}2{-2}	-3.23999622499056	3.106	377.99	544.0	TrialHappiness	Mixed
374.885	0.908	n/a	1441.713	77.0	3	-0.54	1.0	25.73	955.0	0.3	Outcome1	-0.54	2.7	4.0	Yes	n/a	-3.23999622499056	n/a	n/a	544.0	TrialHappinessSliderResponse	Mixed
378.899	8.0	4.015	1443.529	77.0	3	-0.54	1.0	25.73	955.0	0.3	Outcome1	-0.54	2.7	4.0	Yes	n/a	-3.23999622499056	n/a	n/a	n/a	ISIRate	Mixed
386.93	3.0	0.031	1451.56	78.0	3	-3.0	-3.0	25.355	955.0	2.0	Certain	6.9	-13.51	0.0	No	4.0	20.414496036240102	1.552	388.482	n/a	GetAnswer	Gain
388.496	4.0	0.014	1453.126	78.0	3	-3.0	-3.0	25.355	955.0	2.0	Certain	6.9	-13.51	0.0	No	n/a	20.414496036240102	n/a	n/a	n/a	ShowChoice	Gain
392.511	1.0	0.015	1457.141	78.0	3	-3.0	-3.0	25.355	955.0	2.0	Certain	6.9	-13.51	0.0	No	n/a	20.414496036240102	n/a	n/a	n/a	ShowResult	Gain
393.528	2.078	0.017	1458.158	78.0	3	-3.0	-3.0	25.355	955.0	2.0	Certain	6.9	-13.51	0.0	No	n/a	20.414496036240102	n/a	n/a	n/a	ISITrial	Gain
395.627	3.0	0.021	1460.257	79.0	3	-2.0	-2.0	25.105	955.0	0.4	Certain	-1.1	-3.93	2.7295	Yes	4.0	-2.8260664401661004	1.708	397.335	n/a	GetAnswer	Mixed
397.36	4.0	0.024	1461.99	79.0	3	-2.0	-2.0	25.105	955.0	0.4	Certain	-1.1	-3.93	2.7295	Yes	n/a	-2.8260664401661004	n/a	n/a	n/a	ShowChoice	Mixed
401.375	1.0	0.015	1466.005	79.0	3	-2.0	-2.0	25.105	955.0	0.4	Certain	-1.1	-3.93	2.7295	Yes	n/a	-2.8260664401661004	n/a	n/a	n/a	ShowResult	Mixed
402.391	3.829	0.016	1467.021	79.0	3	-2.0	-2.0	25.105	955.0	0.4	Certain	-1.1	-3.93	2.7295	Yes	n/a	-2.8260664401661004	n/a	n/a	n/a	ISITrial	Mixed
406.24	2.73	0.02	1470.87	79.0	3	-2.0	-2.0	25.105	955.0	0.4	Certain	-1.1	-3.93	2.7295	Yes	n/a	-2.8260664401661004	n/a	n/a	n/a	TrialHappPreview	Mixed
408.989	4.015	0.019	1473.619	79.0	3	-2.0	-2.0	25.105	955.0	0.4	Certain	-1.1	-3.93	2.7295	Yes	n/a	-2.8260664401661004	n/a	n/a	496.0	TrialHappiness	Mixed
408.989	0.918	n/a	1476.48	79.0	3	-2.0	-2.0	25.105	955.0	0.4	Certain	-1.1	-3.93	2.7295	Yes	n/a	-2.8260664401661004	n/a	n/a	496.0	TrialHappinessSliderResponse	Mixed
413.004	2.918	4.015	1477.634	79.0	3	-2.0	-2.0	25.105	955.0	0.4	Certain	-1.1	-3.93	2.7295	Yes	n/a	-2.8260664401661004	n/a	n/a	n/a	ISIRate	Mixed
415.953	3.0	0.031	1480.583	80.0	3	8.24	4.12	26.135	955.0	2.48	Outcome1	8.24	11.3	0.0	No	2.0	-3.05964514911287	1.303	417.256	n/a	GetAnswer	Loss
417.269	4.0	0.013	1481.899	80.0	3	8.24	4.12	26.135	955.0	2.48	Outcome1	8.24	11.3	0.0	No	n/a	-3.05964514911287	n/a	n/a	n/a	ShowChoice	Loss
421.284	1.0	0.015	1485.914	80.0	3	8.24	4.12	26.135	955.0	2.48	Outcome1	8.24	11.3	0.0	No	n/a	-3.05964514911287	n/a	n/a	n/a	ShowResult	Loss
422.301	3.336	0.017	1486.931	80.0	3	8.24	4.12	26.135	955.0	2.48	Outcome1	8.24	11.3	0.0	No	n/a	-3.05964514911287	n/a	n/a	n/a	ISITrial	Loss
425.666	3.0	0.029	1490.296	81.0	3	8.3	-3.0	27.1725	955.0	5.0	Outcome1	8.3	-14.38	3.92375	Yes	2.0	22.680634201585494	1.757	427.423	n/a	GetAnswer	Gain
427.449	4.0	0.026	1492.079	81.0	3	8.3	-3.0	27.1725	955.0	5.0	Outcome1	8.3	-14.38	3.92375	Yes	n/a	22.680634201585494	n/a	n/a	n/a	ShowChoice	Gain
431.464	1.0	0.015	1496.094	81.0	3	8.3	-3.0	27.1725	955.0	5.0	Outcome1	8.3	-14.38	3.92375	Yes	n/a	22.680634201585494	n/a	n/a	n/a	ShowResult	Gain
432.481	3.919	0.017	1497.111	81.0	3	8.3	-3.0	27.1725	955.0	5.0	Outcome1	8.3	-14.38	3.92375	Yes	n/a	22.680634201585494	n/a	n/a	n/a	ISITrial	Gain
436.412	3.924	0.012	1501.042	81.0	3	8.3	-3.0	27.1725	955.0	5.0	Outcome1	8.3	-14.38	3.92375	Yes	n/a	22.680634201585494	n/a	n/a	n/a	TrialHappPreview	Gain
440.361	4.015	0.025	1504.991	81.0	3	8.3	-3.0	27.1725	955.0	5.0	Outcome1	8.3	-14.38	3.92375	Yes	n/a	22.680634201585494	n/a	n/a	692.0	TrialHappiness	Gain
440.362	3.503	n/a	1505.428	81.0	3	8.3	-3.0	27.1725	955.0	5.0	Outcome1	8.3	-14.38	3.92375	Yes	n/a	22.680634201585494	n/a	n/a	692.0	TrialHappinessSliderResponse	Gain
444.376	7.695	4.015	1509.006	81.0	3	8.3	-3.0	27.1725	955.0	5.0	Outcome1	8.3	-14.38	3.92375	Yes	n/a	22.680634201585494	n/a	n/a	n/a	ISIRate	Gain
452.09	3.0	0.019	1516.72	n/a	3	n/a	n/a	n/a	n/a	n/a	n/a	n/a	n/a	n/a	n/a	n/a	n/a	n/a	n/a	n/a	CurrentEarnings	n/a
455.106	-0.001	0.016	1519.736	n/a	3	n/a	n/a	n/a	n/a	n/a	n/a	n/a	n/a	n/a	n/a	{SPACE}	n/a	4.04	459.146	n/a	Goodbye	n/a
