onset	duration	onset_delay	onset_unadjusted	trial_number	block	amount_change	certain_amount	current_amount	mood_target	multiplier	outcome	outcome1_amount	outcome2_amount	question_duration	rating	response	rpe	rt	rt_time	slider_response	trial_phase	trial_type
-104.613	-0.001	0.021	57.365	n/a	0	n/a	n/a	n/a	n/a	n/a	n/a	n/a	n/a	n/a	n/a	{SPACE}	n/a	9.721	-94.892	n/a	Welcome	n/a
-94.868	5.0	0.024	67.11	n/a	0	n/a	n/a	n/a	n/a	n/a	n/a	n/a	n/a	n/a	n/a	n/a	n/a	n/a	n/a	n/a	LifeHappyPreview	n/a
-89.836	4.591	0.032	72.142	n/a	0	n/a	n/a	n/a	n/a	n/a	n/a	n/a	n/a	n/a	n/a	n/a	n/a	n/a	n/a	744.0	LifeHappiness	n/a
-89.835	0.765	n/a	75.969	n/a	0	n/a	n/a	n/a	n/a	n/a	n/a	n/a	n/a	n/a	n/a	n/a	n/a	n/a	n/a	744.0	LifeHappinessSliderResponse	n/a
-74.323	4.0	0.026	87.655	n/a	0	n/a	n/a	n/a	n/a	n/a	n/a	n/a	n/a	n/a	n/a	n/a	n/a	n/a	n/a	n/a	BlockHappyPreview	n/a
-70.311	1.026	0.012	91.667	n/a	0	n/a	n/a	n/a	n/a	n/a	n/a	n/a	n/a	n/a	n/a	n/a	n/a	n/a	n/a	576.0	BlockStartHappiness	n/a
-70.31	0.287	n/a	92.407	n/a	0	n/a	n/a	n/a	n/a	n/a	n/a	n/a	n/a	n/a	n/a	n/a	n/a	n/a	n/a	576.0	BlockStartHappinessSliderResponse	n/a
-4.664	-0.001	0.022	157.314	n/a	0	n/a	n/a	n/a	n/a	n/a	n/a	n/a	n/a	n/a	n/a	5.0	n/a	4.634	-0.03	n/a	ScanWait	n/a
0.0	10.0	0.03	161.978	n/a	1	n/a	n/a	n/a	n/a	n/a	n/a	n/a	n/a	n/a	n/a	n/a	n/a	n/a	n/a	n/a	GetReady	n/a
10.03	3.0	0.03	172.008	1.0	1	1.5	-1.0	10.1875	955.0	0.82	Outcome2	-4.94	1.5	0.0	No	2.0	6.43827859569649	1.928	11.958	n/a	GetAnswer	Mixed
11.986	4.0	0.028	173.964	1.0	1	1.5	-1.0	10.1875	955.0	0.82	Outcome2	-4.94	1.5	0.0	No	n/a	6.43827859569649	n/a	n/a	n/a	ShowChoice	Mixed
16.014	1.0	0.028	177.992	1.0	1	1.5	-1.0	10.1875	955.0	0.82	Outcome2	-4.94	1.5	0.0	No	n/a	6.43827859569649	n/a	n/a	n/a	ShowResult	Mixed
17.034	2.431	0.02	179.012	1.0	1	1.5	-1.0	10.1875	955.0	0.82	Outcome2	-4.94	1.5	0.0	No	n/a	6.43827859569649	n/a	n/a	n/a	ISITrial	Mixed
19.491	3.0	0.026	181.469	2.0	1	5.26	5.26	10.845	955.0	4.2	Certain	12.1	10.53	0.0	No	4.0	-1.5738014345035902	0.72	20.211	n/a	GetAnswer	Loss
20.227	4.0	0.016	182.205	2.0	1	5.26	5.26	10.845	955.0	4.2	Certain	12.1	10.53	0.0	No	n/a	-1.5738014345035902	n/a	n/a	n/a	ShowChoice	Loss
24.239	1.0	0.012	186.217	2.0	1	5.26	5.26	10.845	955.0	4.2	Certain	12.1	10.53	0.0	No	n/a	-1.5738014345035902	n/a	n/a	n/a	ShowResult	Loss
25.259	4.568	0.02	187.237	2.0	1	5.26	5.26	10.845	955.0	4.2	Certain	12.1	10.53	0.0	No	n/a	-1.5738014345035902	n/a	n/a	n/a	ISITrial	Loss
29.856	3.0	0.029	191.834	3.0	1	2.0	2.0	11.095	955.0	4.2	Certain	6.1	-1.2	2.868	Yes	4.0	7.296715741789349	1.58	31.436	n/a	GetAnswer	Gain
31.461	4.0	0.025	193.439	3.0	1	2.0	2.0	11.095	955.0	4.2	Certain	6.1	-1.2	2.868	Yes	n/a	7.296715741789349	n/a	n/a	n/a	ShowChoice	Gain
35.489	1.0	0.028	197.467	3.0	1	2.0	2.0	11.095	955.0	4.2	Certain	6.1	-1.2	2.868	Yes	n/a	7.296715741789349	n/a	n/a	n/a	ShowResult	Gain
36.509	3.243	0.02	198.487	3.0	1	2.0	2.0	11.095	955.0	4.2	Certain	6.1	-1.2	2.868	Yes	n/a	7.296715741789349	n/a	n/a	n/a	ISITrial	Gain
39.769	2.868	0.017	201.747	3.0	1	2.0	2.0	11.095	955.0	4.2	Certain	6.1	-1.2	2.868	Yes	n/a	7.296715741789349	n/a	n/a	n/a	TrialHappPreview	Gain
42.661	4.028	0.024	204.639	3.0	1	2.0	2.0	11.095	955.0	4.2	Certain	6.1	-1.2	2.868	Yes	n/a	7.296715741789349	n/a	n/a	520.0	TrialHappiness	Gain
42.661	0.165	n/a	206.692	3.0	1	2.0	2.0	11.095	955.0	4.2	Certain	6.1	-1.2	2.868	Yes	n/a	7.296715741789349	n/a	n/a	520.0	TrialHappinessSliderResponse	Gain
46.689	3.472	4.028	208.667	3.0	1	2.0	2.0	11.095	955.0	4.2	Certain	6.1	-1.2	2.868	Yes	n/a	7.296715741789349	n/a	n/a	n/a	ISIRate	Gain
50.183	3.0	0.022	212.161	4.0	1	-1.0	-1.0	10.97	955.0	0.66	Certain	-2.57	-0.7	0.0	No	4.0	-1.87259343148358	1.665	51.848	n/a	GetAnswer	Mixed
51.872	4.0	0.024	213.85	4.0	1	-1.0	-1.0	10.97	955.0	0.66	Certain	-2.57	-0.7	0.0	No	n/a	-1.87259343148358	n/a	n/a	n/a	ShowChoice	Mixed
55.9	1.0	0.028	217.878	4.0	1	-1.0	-1.0	10.97	955.0	0.66	Certain	-2.57	-0.7	0.0	No	n/a	-1.87259343148358	n/a	n/a	n/a	ShowResult	Mixed
56.92	2.011	0.02	218.898	4.0	1	-1.0	-1.0	10.97	955.0	0.66	Certain	-2.57	-0.7	0.0	No	n/a	-1.87259343148358	n/a	n/a	n/a	ISITrial	Mixed
58.96	3.0	0.029	220.938	5.0	1	5.7	1.0	11.6825	955.0	3.16	Outcome1	5.7	-3.47	2.5825	Yes	2.0	9.16987542468856	0.9	59.86	n/a	GetAnswer	Gain
59.879	4.0	0.019	221.857	5.0	1	5.7	1.0	11.6825	955.0	3.16	Outcome1	5.7	-3.47	2.5825	Yes	n/a	9.16987542468856	n/a	n/a	n/a	ShowChoice	Gain
63.908	1.0	0.029	225.886	5.0	1	5.7	1.0	11.6825	955.0	3.16	Outcome1	5.7	-3.47	2.5825	Yes	n/a	9.16987542468856	n/a	n/a	n/a	ShowResult	Gain
64.927	5.129	0.019	226.905	5.0	1	5.7	1.0	11.6825	955.0	3.16	Outcome1	5.7	-3.47	2.5825	Yes	n/a	9.16987542468856	n/a	n/a	n/a	ISITrial	Gain
70.076	2.582	0.02	232.054	5.0	1	5.7	1.0	11.6825	955.0	3.16	Outcome1	5.7	-3.47	2.5825	Yes	n/a	9.16987542468856	n/a	n/a	n/a	TrialHappPreview	Gain
72.684	4.029	0.026	234.662	5.0	1	5.7	1.0	11.6825	955.0	3.16	Outcome1	5.7	-3.47	2.5825	Yes	n/a	9.16987542468856	n/a	n/a	560.0	TrialHappiness	Gain
72.685	0.77	n/a	235.354	5.0	1	5.7	1.0	11.6825	955.0	3.16	Outcome1	5.7	-3.47	2.5825	Yes	n/a	9.16987542468856	n/a	n/a	560.0	TrialHappinessSliderResponse	Gain
76.713	2.33	4.029	238.691	5.0	1	5.7	1.0	11.6825	955.0	3.16	Outcome1	5.7	-3.47	2.5825	Yes	n/a	9.16987542468856	n/a	n/a	n/a	ISIRate	Gain
79.07	3.0	0.027	241.048	6.0	1	11.5	1.26	13.12	955.0	2.8	Outcome1	11.5	2.52	0.0	No	2.0	8.98301245753114	1.024	80.094	n/a	GetAnswer	Loss
80.123	4.0	0.029	242.101	6.0	1	11.5	1.26	13.12	955.0	2.8	Outcome1	11.5	2.52	0.0	No	n/a	8.98301245753114	n/a	n/a	n/a	ShowChoice	Loss
84.152	1.0	0.029	246.13	6.0	1	11.5	1.26	13.12	955.0	2.8	Outcome1	11.5	2.52	0.0	No	n/a	8.98301245753114	n/a	n/a	n/a	ShowResult	Loss
85.171	6.232	0.019	247.149	6.0	1	11.5	1.26	13.12	955.0	2.8	Outcome1	11.5	2.52	0.0	No	n/a	8.98301245753114	n/a	n/a	n/a	ISITrial	Loss
91.423	3.0	0.02	253.401	7.0	1	5.1	0.0	13.7575	955.0	2.22	Outcome1	5.1	-4.33	0.0	No	2.0	9.43035107587769	1.426	92.849	n/a	GetAnswer	Gain
92.878	4.0	0.029	254.856	7.0	1	5.1	0.0	13.7575	955.0	2.22	Outcome1	5.1	-4.33	0.0	No	n/a	9.43035107587769	n/a	n/a	n/a	ShowChoice	Gain
96.89	1.0	0.012	258.868	7.0	1	5.1	0.0	13.7575	955.0	2.22	Outcome1	5.1	-4.33	0.0	No	n/a	9.43035107587769	n/a	n/a	n/a	ShowResult	Gain
97.909	2.305	0.019	259.887	7.0	1	5.1	0.0	13.7575	955.0	2.22	Outcome1	5.1	-4.33	0.0	No	n/a	9.43035107587769	n/a	n/a	n/a	ISITrial	Gain
100.233	3.0	0.019	262.211	8.0	1	9.7	-0.09	14.97	955.0	3.16	Outcome1	9.7	-0.18	3.1125	Yes	2.0	9.87768969422424	1.498	101.731	n/a	GetAnswer	Gain
101.754	4.0	0.023	263.732	8.0	1	9.7	-0.09	14.97	955.0	3.16	Outcome1	9.7	-0.18	3.1125	Yes	n/a	9.87768969422424	n/a	n/a	n/a	ShowChoice	Gain
105.783	1.0	0.029	267.761	8.0	1	9.7	-0.09	14.97	955.0	3.16	Outcome1	9.7	-0.18	3.1125	Yes	n/a	9.87768969422424	n/a	n/a	n/a	ShowResult	Gain
106.803	3.506	0.02	268.781	8.0	1	9.7	-0.09	14.97	955.0	3.16	Outcome1	9.7	-0.18	3.1125	Yes	n/a	9.87768969422424	n/a	n/a	n/a	ISITrial	Gain
110.33	3.112	0.021	272.308	8.0	1	9.7	-0.09	14.97	955.0	3.16	Outcome1	9.7	-0.18	3.1125	Yes	n/a	9.87768969422424	n/a	n/a	n/a	TrialHappPreview	Gain
113.473	4.028	0.031	275.451	8.0	1	9.7	-0.09	14.97	955.0	3.16	Outcome1	9.7	-0.18	3.1125	Yes	2{-2}2{-2}	9.87768969422424	1.561	115.034	560.0	TrialHappiness	Gain
113.473	0.952	n/a	276.06	8.0	1	9.7	-0.09	14.97	955.0	3.16	Outcome1	9.7	-0.18	3.1125	Yes	n/a	9.87768969422424	n/a	n/a	560.0	TrialHappinessSliderResponse	Gain
117.501	4.45	4.028	279.479	8.0	1	9.7	-0.09	14.97	955.0	3.16	Outcome1	9.7	-0.18	3.1125	Yes	n/a	9.87768969422424	n/a	n/a	n/a	ISIRate	Gain
121.982	3.0	0.031	283.96	9.0	1	-2.0	-2.0	14.72	955.0	0.66	Certain	-7.02	3.3	0.0	No	4.0	10.3250283125708	1.87	123.852	n/a	GetAnswer	Mixed
123.871	4.0	0.019	285.849	9.0	1	-2.0	-2.0	14.72	955.0	0.66	Certain	-7.02	3.3	0.0	No	n/a	10.3250283125708	n/a	n/a	n/a	ShowChoice	Mixed
127.899	1.0	0.028	289.877	9.0	1	-2.0	-2.0	14.72	955.0	0.66	Certain	-7.02	3.3	0.0	No	n/a	10.3250283125708	n/a	n/a	n/a	ShowResult	Mixed
128.919	2.0	0.02	290.897	9.0	1	-2.0	-2.0	14.72	955.0	0.66	Certain	-7.02	3.3	0.0	No	n/a	10.3250283125708	n/a	n/a	n/a	ISITrial	Mixed
130.942	3.0	0.023	292.92	10.0	1	-5.0	-5.0	14.095	955.0	0.2	Certain	-10.27	0.5	4.0	Yes	4.0	10.7723669309173	2.046	132.988	n/a	GetAnswer	Mixed
133.015	4.0	0.027	294.993	10.0	1	-5.0	-5.0	14.095	955.0	0.2	Certain	-10.27	0.5	4.0	Yes	n/a	10.7723669309173	n/a	n/a	n/a	ShowChoice	Mixed
137.043	1.0	0.028	299.021	10.0	1	-5.0	-5.0	14.095	955.0	0.2	Certain	-10.27	0.5	4.0	Yes	n/a	10.7723669309173	n/a	n/a	n/a	ShowResult	Mixed
138.063	2.0	0.02	300.041	10.0	1	-5.0	-5.0	14.095	955.0	0.2	Certain	-10.27	0.5	4.0	Yes	n/a	10.7723669309173	n/a	n/a	n/a	ISITrial	Mixed
140.086	4.0	0.023	302.064	10.0	1	-5.0	-5.0	14.095	955.0	0.2	Certain	-10.27	0.5	4.0	Yes	n/a	10.7723669309173	n/a	n/a	n/a	TrialHappPreview	Mixed
144.114	4.012	0.028	306.092	10.0	1	-5.0	-5.0	14.095	955.0	0.2	Certain	-10.27	0.5	4.0	Yes	n/a	10.7723669309173	n/a	n/a	508.0	TrialHappiness	Mixed
144.115	2.507	n/a	306.788	10.0	1	-5.0	-5.0	14.095	955.0	0.2	Certain	-10.27	0.5	4.0	Yes	n/a	10.7723669309173	n/a	n/a	508.0	TrialHappinessSliderResponse	Mixed
148.126	8.0	4.012	310.104	10.0	1	-5.0	-5.0	14.095	955.0	0.2	Certain	-10.27	0.5	4.0	Yes	n/a	10.7723669309173	n/a	n/a	n/a	ISIRate	Mixed
156.15	3.0	0.024	318.128	11.0	1	-1.1	-7.0	13.9575	955.0	0.4	Outcome1	-1.1	-13.2	0.0	No	2.0	12.1030577576444	2.455	158.605	n/a	GetAnswer	Mixed
158.625	4.0	0.02	320.603	11.0	1	-1.1	-7.0	13.9575	955.0	0.4	Outcome1	-1.1	-13.2	0.0	No	n/a	12.1030577576444	n/a	n/a	n/a	ShowChoice	Mixed
162.653	1.0	0.028	324.631	11.0	1	-1.1	-7.0	13.9575	955.0	0.4	Outcome1	-1.1	-13.2	0.0	No	n/a	12.1030577576444	n/a	n/a	n/a	ShowResult	Mixed
163.673	3.324	0.02	325.651	11.0	1	-1.1	-7.0	13.9575	955.0	0.4	Outcome1	-1.1	-13.2	0.0	No	n/a	12.1030577576444	n/a	n/a	n/a	ISITrial	Mixed
167.016	3.0	0.019	328.994	12.0	1	2.07	1.03	14.2163	955.0	2.0	Outcome1	2.07	4.3	2.61875	Yes	2.0	-2.23197432993582	1.048	168.064	n/a	GetAnswer	Mixed
168.086	4.0	0.022	330.064	12.0	1	2.07	1.03	14.2163	955.0	2.0	Outcome1	2.07	4.3	2.61875	Yes	n/a	-2.23197432993582	n/a	n/a	n/a	ShowChoice	Mixed
172.098	1.0	0.012	334.076	12.0	1	2.07	1.03	14.2163	955.0	2.0	Outcome1	2.07	4.3	2.61875	Yes	n/a	-2.23197432993582	n/a	n/a	n/a	ShowResult	Mixed
173.118	6.642	0.02	335.096	12.0	1	2.07	1.03	14.2163	955.0	2.0	Outcome1	2.07	4.3	2.61875	Yes	n/a	-2.23197432993582	n/a	n/a	n/a	ISITrial	Mixed
179.771	2.619	0.011	341.749	12.0	1	2.07	1.03	14.2163	955.0	2.0	Outcome1	2.07	4.3	2.61875	Yes	n/a	-2.23197432993582	n/a	n/a	n/a	TrialHappPreview	Mixed
182.412	4.012	0.022	344.39	12.0	1	2.07	1.03	14.2163	955.0	2.0	Outcome1	2.07	4.3	2.61875	Yes	n/a	-2.23197432993582	n/a	n/a	512.0	TrialHappiness	Mixed
182.413	0.0	n/a	344.391	12.0	1	2.07	1.03	14.2163	955.0	2.0	Outcome1	2.07	4.3	2.61875	Yes	n/a	-2.23197432993582	n/a	n/a	512.0	TrialHappinessSliderResponse	Mixed
186.424	2.475	4.012	348.402	12.0	1	2.07	1.03	14.2163	955.0	2.0	Outcome1	2.07	4.3	2.61875	Yes	n/a	-2.23197432993582	n/a	n/a	n/a	ISIRate	Mixed
188.915	3.0	0.016	350.893	13.0	1	6.24	3.12	14.9963	955.0	1.68	Outcome2	8.5	6.24	0.0	No	2.0	-2.2579275198188	0.914	189.829	n/a	GetAnswer	Gain
189.851	4.0	0.022	351.829	13.0	1	6.24	3.12	14.9963	955.0	1.68	Outcome2	8.5	6.24	0.0	No	n/a	-2.2579275198188	n/a	n/a	n/a	ShowChoice	Gain
193.863	1.0	0.012	355.841	13.0	1	6.24	3.12	14.9963	955.0	1.68	Outcome2	8.5	6.24	0.0	No	n/a	-2.2579275198188	n/a	n/a	n/a	ShowResult	Gain
194.883	3.48	0.02	356.861	13.0	1	6.24	3.12	14.9963	955.0	1.68	Outcome2	8.5	6.24	0.0	No	n/a	-2.2579275198188	n/a	n/a	n/a	ISITrial	Gain
198.394	3.0	0.031	360.372	14.0	1	9.9	-1.82	16.2338	955.0	3.6	Outcome1	9.9	-3.65	0.0	No	2.0	13.5492638731597	1.28	199.674	n/a	GetAnswer	Gain
199.697	4.0	0.023	361.675	14.0	1	9.9	-1.82	16.2338	955.0	3.6	Outcome1	9.9	-3.65	0.0	No	n/a	13.5492638731597	n/a	n/a	n/a	ShowChoice	Gain
203.709	1.0	0.012	365.687	14.0	1	9.9	-1.82	16.2338	955.0	3.6	Outcome1	9.9	-3.65	0.0	No	n/a	13.5492638731597	n/a	n/a	n/a	ShowResult	Gain
204.729	5.019	0.02	366.707	14.0	1	9.9	-1.82	16.2338	955.0	3.6	Outcome1	9.9	-3.65	0.0	No	n/a	13.5492638731597	n/a	n/a	n/a	ISITrial	Gain
209.778	3.0	0.03	371.756	15.0	1	11.1	-1.48	17.6213	955.0	2.22	Outcome2	-2.95	11.1	3.3485	Yes	2.0	14.0509626274066	1.598	211.376	n/a	GetAnswer	Loss
211.399	4.0	0.023	373.377	15.0	1	11.1	-1.48	17.6213	955.0	2.22	Outcome2	-2.95	11.1	3.3485	Yes	n/a	14.0509626274066	n/a	n/a	n/a	ShowChoice	Loss
215.411	1.0	0.012	377.389	15.0	1	11.1	-1.48	17.6213	955.0	2.22	Outcome2	-2.95	11.1	3.3485	Yes	n/a	14.0509626274066	n/a	n/a	n/a	ShowResult	Loss
216.431	7.614	0.02	378.409	15.0	1	11.1	-1.48	17.6213	955.0	2.22	Outcome2	-2.95	11.1	3.3485	Yes	n/a	14.0509626274066	n/a	n/a	n/a	ISITrial	Loss
224.07	3.348	0.025	386.048	15.0	1	11.1	-1.48	17.6213	955.0	2.22	Outcome2	-2.95	11.1	3.3485	Yes	n/a	14.0509626274066	n/a	n/a	n/a	TrialHappPreview	Loss
227.447	4.012	0.029	389.425	15.0	1	11.1	-1.48	17.6213	955.0	2.22	Outcome2	-2.95	11.1	3.3485	Yes	n/a	14.0509626274066	n/a	n/a	552.0	TrialHappiness	Loss
227.448	0.225	n/a	391.465	15.0	1	11.1	-1.48	17.6213	955.0	2.22	Outcome2	-2.95	11.1	3.3485	Yes	n/a	14.0509626274066	n/a	n/a	552.0	TrialHappinessSliderResponse	Loss
231.459	5.394	4.012	393.437	15.0	1	11.1	-1.48	17.6213	955.0	2.22	Outcome2	-2.95	11.1	3.3485	Yes	n/a	14.0509626274066	n/a	n/a	n/a	ISIRate	Loss
236.875	3.0	0.022	398.853	16.0	1	11.48	5.74	19.0563	955.0	3.16	Outcome2	13.7	11.48	0.0	No	2.0	-2.221026802567009	0.923	237.798	n/a	GetAnswer	Loss
237.812	4.0	0.014	399.79	16.0	1	11.48	5.74	19.0563	955.0	3.16	Outcome2	13.7	11.48	0.0	No	n/a	-2.221026802567009	n/a	n/a	n/a	ShowChoice	Loss
241.824	1.0	0.012	403.802	16.0	1	11.48	5.74	19.0563	955.0	3.16	Outcome2	13.7	11.48	0.0	No	n/a	-2.221026802567009	n/a	n/a	n/a	ShowResult	Loss
242.843	3.008	0.019	404.821	16.0	1	11.48	5.74	19.0563	955.0	3.16	Outcome2	13.7	11.48	0.0	No	n/a	-2.221026802567009	n/a	n/a	n/a	ISITrial	Loss
245.869	3.0	0.018	407.847	17.0	1	0.0	0.0	19.0563	955.0	3.6	Certain	-6.43	7.9	3.0415	Yes	4.0	14.3295583238958	1.821	247.69	n/a	GetAnswer	Gain
247.708	4.0	0.018	409.686	17.0	1	0.0	0.0	19.0563	955.0	3.6	Certain	-6.43	7.9	3.0415	Yes	n/a	14.3295583238958	n/a	n/a	n/a	ShowChoice	Gain
251.72	1.0	0.012	413.698	17.0	1	0.0	0.0	19.0563	955.0	3.6	Certain	-6.43	7.9	3.0415	Yes	n/a	14.3295583238958	n/a	n/a	n/a	ShowResult	Gain
252.74	3.566	0.02	414.718	17.0	1	0.0	0.0	19.0563	955.0	3.6	Certain	-6.43	7.9	3.0415	Yes	n/a	14.3295583238958	n/a	n/a	n/a	ISITrial	Gain
256.317	3.042	0.011	418.295	17.0	1	0.0	0.0	19.0563	955.0	3.6	Certain	-6.43	7.9	3.0415	Yes	n/a	14.3295583238958	n/a	n/a	n/a	TrialHappPreview	Gain
259.376	4.012	0.017	421.354	17.0	1	0.0	0.0	19.0563	955.0	3.6	Certain	-6.43	7.9	3.0415	Yes	n/a	14.3295583238958	n/a	n/a	528.0	TrialHappiness	Gain
259.377	0.733	n/a	422.607	17.0	1	0.0	0.0	19.0563	955.0	3.6	Certain	-6.43	7.9	3.0415	Yes	n/a	14.3295583238958	n/a	n/a	528.0	TrialHappinessSliderResponse	Gain
263.388	4.166	4.012	425.366	17.0	1	0.0	0.0	19.0563	955.0	3.6	Certain	-6.43	7.9	3.0415	Yes	n/a	14.3295583238958	n/a	n/a	n/a	ISIRate	Gain
267.584	3.0	0.03	429.562	18.0	1	-1.0	-1.0	18.9313	955.0	3.6	Certain	5.9	-9.29	0.0	No	4.0	15.193657984145	1.566	269.15	n/a	GetAnswer	Gain
269.172	4.0	0.022	431.15	18.0	1	-1.0	-1.0	18.9313	955.0	3.6	Certain	5.9	-9.29	0.0	No	n/a	15.193657984145	n/a	n/a	n/a	ShowChoice	Gain
273.184	1.0	0.012	435.162	18.0	1	-1.0	-1.0	18.9313	955.0	3.6	Certain	5.9	-9.29	0.0	No	n/a	15.193657984145	n/a	n/a	n/a	ShowResult	Gain
274.204	6.787	0.02	436.182	18.0	1	-1.0	-1.0	18.9313	955.0	3.6	Certain	5.9	-9.29	0.0	No	n/a	15.193657984145	n/a	n/a	n/a	ISITrial	Gain
281.008	3.0	0.017	442.986	19.0	1	1.0	1.0	19.0563	955.0	2.0	Certain	-6.78	8.9	0.0	No	4.0	15.6772366930917	1.446	282.454	n/a	GetAnswer	Gain
282.479	4.0	0.025	444.457	19.0	1	1.0	1.0	19.0563	955.0	2.0	Certain	-6.78	8.9	0.0	No	n/a	15.6772366930917	n/a	n/a	n/a	ShowChoice	Gain
286.491	1.0	0.012	448.469	19.0	1	1.0	1.0	19.0563	955.0	2.0	Certain	-6.78	8.9	0.0	No	n/a	15.6772366930917	n/a	n/a	n/a	ShowResult	Gain
287.51	2.0	0.019	449.488	19.0	1	1.0	1.0	19.0563	955.0	2.0	Certain	-6.78	8.9	0.0	No	n/a	15.6772366930917	n/a	n/a	n/a	ISITrial	Gain
289.533	3.0	0.023	451.511	20.0	1	10.1	2.0	20.3188	955.0	4.2	Outcome2	-6.06	10.1	2.92125	Yes	2.0	16.1608154020385	1.466	290.999	n/a	GetAnswer	Gain
291.021	4.0	0.022	452.999	20.0	1	10.1	2.0	20.3188	955.0	4.2	Outcome2	-6.06	10.1	2.92125	Yes	n/a	16.1608154020385	n/a	n/a	n/a	ShowChoice	Gain
295.033	1.0	0.012	457.011	20.0	1	10.1	2.0	20.3188	955.0	4.2	Outcome2	-6.06	10.1	2.92125	Yes	n/a	16.1608154020385	n/a	n/a	n/a	ShowResult	Gain
296.053	8.0	0.02	458.031	20.0	1	10.1	2.0	20.3188	955.0	4.2	Outcome2	-6.06	10.1	2.92125	Yes	n/a	16.1608154020385	n/a	n/a	n/a	ISITrial	Gain
304.077	2.921	0.024	466.055	20.0	1	10.1	2.0	20.3188	955.0	4.2	Outcome2	-6.06	10.1	2.92125	Yes	n/a	16.1608154020385	n/a	n/a	n/a	TrialHappPreview	Gain
307.019	4.012	0.021	468.997	20.0	1	10.1	2.0	20.3188	955.0	4.2	Outcome2	-6.06	10.1	2.92125	Yes	2{-2}2{-2}	16.1608154020385	1.746	308.765	536.0	TrialHappiness	Gain
307.019	0.844	n/a	469.899	20.0	1	10.1	2.0	20.3188	955.0	4.2	Outcome2	-6.06	10.1	2.92125	Yes	n/a	16.1608154020385	n/a	n/a	536.0	TrialHappinessSliderResponse	Gain
311.031	3.685	4.012	473.009	20.0	1	10.1	2.0	20.3188	955.0	4.2	Outcome2	-6.06	10.1	2.92125	Yes	n/a	16.1608154020385	n/a	n/a	n/a	ISIRate	Gain
314.742	3.0	0.026	476.72	21.0	1	1.0	1.0	20.4438	955.0	2.22	Certain	-7.41	9.1	0.0	No	4.0	16.5084937712344	1.436	316.178	n/a	GetAnswer	Gain
316.196	4.0	0.018	478.174	21.0	1	1.0	1.0	20.4438	955.0	2.22	Certain	-7.41	9.1	0.0	No	n/a	16.5084937712344	n/a	n/a	n/a	ShowChoice	Gain
320.208	1.0	0.012	482.186	21.0	1	1.0	1.0	20.4438	955.0	2.22	Certain	-7.41	9.1	0.0	No	n/a	16.5084937712344	n/a	n/a	n/a	ShowResult	Gain
321.228	3.555	0.02	483.206	21.0	1	1.0	1.0	20.4438	955.0	2.22	Certain	-7.41	9.1	0.0	No	n/a	16.5084937712344	n/a	n/a	n/a	ISITrial	Gain
324.805	3.0	0.022	486.783	22.0	1	12.5	-2.24	22.0063	955.0	1.68	Outcome2	-4.48	12.5	3.2195	Yes	2.0	16.9830124575311	1.794	326.599	n/a	GetAnswer	Loss
326.611	4.0	0.012	488.589	22.0	1	12.5	-2.24	22.0063	955.0	1.68	Outcome2	-4.48	12.5	3.2195	Yes	n/a	16.9830124575311	n/a	n/a	n/a	ShowChoice	Loss
330.623	1.0	0.012	492.601	22.0	1	12.5	-2.24	22.0063	955.0	1.68	Outcome2	-4.48	12.5	3.2195	Yes	n/a	16.9830124575311	n/a	n/a	n/a	ShowResult	Loss
331.642	6.793	0.019	493.62	22.0	1	12.5	-2.24	22.0063	955.0	1.68	Outcome2	-4.48	12.5	3.2195	Yes	n/a	16.9830124575311	n/a	n/a	n/a	ISITrial	Loss
338.446	3.22	0.011	500.424	22.0	1	12.5	-2.24	22.0063	955.0	1.68	Outcome2	-4.48	12.5	3.2195	Yes	n/a	16.9830124575311	n/a	n/a	n/a	TrialHappPreview	Loss
341.689	4.012	0.023	503.667	22.0	1	12.5	-2.24	22.0063	955.0	1.68	Outcome2	-4.48	12.5	3.2195	Yes	n/a	16.9830124575311	n/a	n/a	544.0	TrialHappiness	Loss
341.69	0.214	n/a	504.331	22.0	1	12.5	-2.24	22.0063	955.0	1.68	Outcome2	-4.48	12.5	3.2195	Yes	n/a	16.9830124575311	n/a	n/a	544.0	TrialHappinessSliderResponse	Loss
345.701	4.878	4.012	507.679	22.0	1	12.5	-2.24	22.0063	955.0	1.68	Outcome2	-4.48	12.5	3.2195	Yes	n/a	16.9830124575311	n/a	n/a	n/a	ISIRate	Loss
350.599	3.0	0.02	512.577	23.0	1	-0.83	0.0	21.9025	955.0	1.0	Outcome2	1.7	-0.83	0.0	No	2.0	-2.5295394488486203	1.449	352.048	n/a	GetAnswer	Mixed
352.07	4.0	0.022	514.048	23.0	1	-0.83	0.0	21.9025	955.0	1.0	Outcome2	1.7	-0.83	0.0	No	n/a	-2.5295394488486203	n/a	n/a	n/a	ShowChoice	Mixed
356.082	1.0	0.012	518.06	23.0	1	-0.83	0.0	21.9025	955.0	1.0	Outcome2	1.7	-0.83	0.0	No	n/a	-2.5295394488486203	n/a	n/a	n/a	ShowResult	Mixed
357.102	8.0	0.02	519.08	23.0	1	-0.83	0.0	21.9025	955.0	1.0	Outcome2	1.7	-0.83	0.0	No	n/a	-2.5295394488486203	n/a	n/a	n/a	ISITrial	Mixed
365.126	3.0	0.024	527.104	24.0	1	-2.0	-2.0	21.6525	955.0	2.0	Certain	-10.89	6.9	3.255	Yes	4.0	17.7870894677237	1.655	366.781	n/a	GetAnswer	Gain
366.798	4.0	0.017	528.776	24.0	1	-2.0	-2.0	21.6525	955.0	2.0	Certain	-10.89	6.9	3.255	Yes	n/a	17.7870894677237	n/a	n/a	n/a	ShowChoice	Gain
370.81	1.0	0.012	532.788	24.0	1	-2.0	-2.0	21.6525	955.0	2.0	Certain	-10.89	6.9	3.255	Yes	n/a	17.7870894677237	n/a	n/a	n/a	ShowResult	Gain
371.829	2.0	0.019	533.807	24.0	1	-2.0	-2.0	21.6525	955.0	2.0	Certain	-10.89	6.9	3.255	Yes	n/a	17.7870894677237	n/a	n/a	n/a	ISITrial	Gain
373.852	3.255	0.023	535.83	24.0	1	-2.0	-2.0	21.6525	955.0	2.0	Certain	-10.89	6.9	3.255	Yes	n/a	17.7870894677237	n/a	n/a	n/a	TrialHappPreview	Gain
377.129	4.012	0.022	539.107	24.0	1	-2.0	-2.0	21.6525	955.0	2.0	Certain	-10.89	6.9	3.255	Yes	n/a	17.7870894677237	n/a	n/a	512.0	TrialHappiness	Gain
377.129	0.0	n/a	539.107	24.0	1	-2.0	-2.0	21.6525	955.0	2.0	Certain	-10.89	6.9	3.255	Yes	n/a	17.7870894677237	n/a	n/a	512.0	TrialHappinessSliderResponse	Gain
381.141	5.02	4.012	543.119	24.0	1	-2.0	-2.0	21.6525	955.0	2.0	Certain	-10.89	6.9	3.255	Yes	n/a	17.7870894677237	n/a	n/a	n/a	ISIRate	Gain
386.189	3.0	0.028	548.167	25.0	1	-5.0	-5.0	21.0275	955.0	1.5	Certain	4.1	-14.7	0.0	No	4.0	18.7961494903737	1.436	387.625	n/a	GetAnswer	Mixed
387.643	4.0	0.018	549.621	25.0	1	-5.0	-5.0	21.0275	955.0	1.5	Certain	4.1	-14.7	0.0	No	n/a	18.7961494903737	n/a	n/a	n/a	ShowChoice	Mixed
391.655	1.0	0.012	553.633	25.0	1	-5.0	-5.0	21.0275	955.0	1.5	Certain	4.1	-14.7	0.0	No	n/a	18.7961494903737	n/a	n/a	n/a	ShowResult	Mixed
392.675	3.749	0.02	554.653	25.0	1	-5.0	-5.0	21.0275	955.0	1.5	Certain	4.1	-14.7	0.0	No	n/a	18.7961494903737	n/a	n/a	n/a	ISITrial	Mixed
396.453	3.0	0.029	558.431	26.0	1	5.32	2.66	21.6925	955.0	4.2	Outcome2	8.1	5.32	0.0	No	2.0	-2.7787844469611205	0.982	397.435	n/a	GetAnswer	Gain
397.456	4.0	0.021	559.434	26.0	1	5.32	2.66	21.6925	955.0	4.2	Outcome2	8.1	5.32	0.0	No	n/a	-2.7787844469611205	n/a	n/a	n/a	ShowChoice	Gain
401.468	1.0	0.012	563.446	26.0	1	5.32	2.66	21.6925	955.0	4.2	Outcome2	8.1	5.32	0.0	No	n/a	-2.7787844469611205	n/a	n/a	n/a	ShowResult	Gain
402.488	7.834	0.02	564.466	26.0	1	5.32	2.66	21.6925	955.0	4.2	Outcome2	8.1	5.32	0.0	No	n/a	-2.7787844469611205	n/a	n/a	n/a	ISITrial	Gain
410.345	3.0	0.023	572.323	27.0	1	2.0	2.0	21.9425	955.0	5.0	Certain	-7.5	12.3	2.54975	Yes	4.0	19.7995469988675	1.268	411.613	n/a	GetAnswer	Loss
411.632	4.0	0.019	573.61	27.0	1	2.0	2.0	21.9425	955.0	5.0	Certain	-7.5	12.3	2.54975	Yes	n/a	19.7995469988675	n/a	n/a	n/a	ShowChoice	Loss
415.644	1.0	0.012	577.622	27.0	1	2.0	2.0	21.9425	955.0	5.0	Certain	-7.5	12.3	2.54975	Yes	n/a	19.7995469988675	n/a	n/a	n/a	ShowResult	Loss
416.664	4.225	0.02	578.642	27.0	1	2.0	2.0	21.9425	955.0	5.0	Certain	-7.5	12.3	2.54975	Yes	n/a	19.7995469988675	n/a	n/a	n/a	ISITrial	Loss
420.91	2.55	0.021	582.888	27.0	1	2.0	2.0	21.9425	955.0	5.0	Certain	-7.5	12.3	2.54975	Yes	n/a	19.7995469988675	n/a	n/a	n/a	TrialHappPreview	Loss
423.484	4.012	0.024	585.462	27.0	1	2.0	2.0	21.9425	955.0	5.0	Certain	-7.5	12.3	2.54975	Yes	n/a	19.7995469988675	n/a	n/a	512.0	TrialHappiness	Loss
423.485	0.0	n/a	585.463	27.0	1	2.0	2.0	21.9425	955.0	5.0	Certain	-7.5	12.3	2.54975	Yes	n/a	19.7995469988675	n/a	n/a	512.0	TrialHappinessSliderResponse	Loss
427.496	2.199	4.012	589.474	27.0	1	2.0	2.0	21.9425	955.0	5.0	Certain	-7.5	12.3	2.54975	Yes	n/a	19.7995469988675	n/a	n/a	n/a	ISIRate	Loss
447.139	2.601	n/a	609.582	n/a	1	n/a	n/a	n/a	n/a	n/a	n/a	n/a	n/a	n/a	n/a	n/a	n/a	n/a	n/a	592.0	BlockStartHappinessSliderResponse	n/a
-40.973	-0.001	0.024	591.697	n/a	2	n/a	n/a	n/a	n/a	n/a	n/a	n/a	n/a	n/a	n/a	{SPACE}	n/a	13.394	-27.579	n/a	Rest	n/a
-27.566	4.0	0.013	605.104	n/a	2	n/a	n/a	n/a	n/a	n/a	n/a	n/a	n/a	n/a	n/a	n/a	n/a	n/a	n/a	n/a	BlockHappyPreview	n/a
-23.554	3.066	0.012	609.116	n/a	2	n/a	n/a	n/a	n/a	n/a	n/a	n/a	n/a	n/a	n/a	n/a	n/a	n/a	n/a	592.0	BlockStartHappiness	n/a
-2.992	-0.001	0.011	629.678	n/a	2	n/a	n/a	n/a	n/a	n/a	n/a	n/a	n/a	n/a	n/a	5.0	n/a	2.981	-0.011	n/a	ScanWait	n/a
0.0	10.0	0.011	632.67	n/a	2	n/a	n/a	n/a	n/a	n/a	n/a	n/a	n/a	n/a	n/a	n/a	n/a	n/a	n/a	n/a	GetReady	n/a
10.013	3.0	0.013	642.683	28.0	2	4.22	2.11	22.47	70.0	2.22	Outcome1	4.22	13.1	0.0	No	2.0	-8.877551020408161	0.926	10.939	n/a	GetAnswer	Loss
10.966	4.0	0.027	643.636	28.0	2	4.22	2.11	22.47	70.0	2.22	Outcome1	4.22	13.1	0.0	No	n/a	-8.877551020408161	n/a	n/a	n/a	ShowChoice	Loss
14.978	1.0	0.012	647.648	28.0	2	4.22	2.11	22.47	70.0	2.22	Outcome1	4.22	13.1	0.0	No	n/a	-8.877551020408161	n/a	n/a	n/a	ShowResult	Loss
15.998	3.575	0.02	648.668	28.0	2	4.22	2.11	22.47	70.0	2.22	Outcome1	4.22	13.1	0.0	No	n/a	-8.877551020408161	n/a	n/a	n/a	ISITrial	Loss
19.592	3.0	0.019	652.262	29.0	2	-2.0	-2.0	22.22	70.0	2.0	Certain	2.3	-7.17	3.529	Yes	4.0	-9.46938775510204	1.596	21.188	n/a	GetAnswer	Mixed
21.213	4.0	0.025	653.883	29.0	2	-2.0	-2.0	22.22	70.0	2.0	Certain	2.3	-7.17	3.529	Yes	n/a	-9.46938775510204	n/a	n/a	n/a	ShowChoice	Mixed
25.225	1.0	0.012	657.895	29.0	2	-2.0	-2.0	22.22	70.0	2.0	Certain	2.3	-7.17	3.529	Yes	n/a	-9.46938775510204	n/a	n/a	n/a	ShowResult	Mixed
26.245	3.955	0.02	658.915	29.0	2	-2.0	-2.0	22.22	70.0	2.0	Certain	2.3	-7.17	3.529	Yes	n/a	-9.46938775510204	n/a	n/a	n/a	ISITrial	Mixed
30.224	3.529	0.024	662.894	29.0	2	-2.0	-2.0	22.22	70.0	2.0	Certain	2.3	-7.17	3.529	Yes	n/a	-9.46938775510204	n/a	n/a	n/a	TrialHappPreview	Mixed
33.768	4.012	0.015	666.438	29.0	2	-2.0	-2.0	22.22	70.0	2.0	Certain	2.3	-7.17	3.529	Yes	n/a	-9.46938775510204	n/a	n/a	492.0	TrialHappiness	Mixed
33.768	0.127	n/a	669.738	29.0	2	-2.0	-2.0	22.22	70.0	2.0	Certain	2.3	-7.17	3.529	Yes	n/a	-9.46938775510204	n/a	n/a	492.0	TrialHappinessSliderResponse	Mixed
37.78	6.116	4.012	670.45	29.0	2	-2.0	-2.0	22.22	70.0	2.0	Certain	2.3	-7.17	3.529	Yes	n/a	-9.46938775510204	n/a	n/a	n/a	ISIRate	Mixed
43.915	3.0	0.019	676.585	30.0	2	-9.26	-5.0	21.0625	70.0	0.52	Outcome1	-9.26	-0.9	0.0	No	2.0	-8.360544217687071	1.758	45.673	n/a	GetAnswer	Mixed
45.687	4.0	0.014	678.357	30.0	2	-9.26	-5.0	21.0625	70.0	0.52	Outcome1	-9.26	-0.9	0.0	No	n/a	-8.360544217687071	n/a	n/a	n/a	ShowChoice	Mixed
49.699	1.0	0.012	682.369	30.0	2	-9.26	-5.0	21.0625	70.0	0.52	Outcome1	-9.26	-0.9	0.0	No	n/a	-8.360544217687071	n/a	n/a	n/a	ShowResult	Mixed
50.718	4.453	0.019	683.388	30.0	2	-9.26	-5.0	21.0625	70.0	0.52	Outcome1	-9.26	-0.9	0.0	No	n/a	-8.360544217687071	n/a	n/a	n/a	ISITrial	Mixed
55.199	3.0	0.028	687.869	31.0	2	-1.0	-1.0	20.9375	70.0	0.82	Certain	3.5	-5.34	2.50325	Yes	4.0	-8.839002267573699	1.657	56.856	n/a	GetAnswer	Mixed
56.87	4.0	0.014	689.54	31.0	2	-1.0	-1.0	20.9375	70.0	0.82	Certain	3.5	-5.34	2.50325	Yes	n/a	-8.839002267573699	n/a	n/a	n/a	ShowChoice	Mixed
60.882	1.0	0.012	693.552	31.0	2	-1.0	-1.0	20.9375	70.0	0.82	Certain	3.5	-5.34	2.50325	Yes	n/a	-8.839002267573699	n/a	n/a	n/a	ShowResult	Mixed
61.902	4.786	0.02	694.572	31.0	2	-1.0	-1.0	20.9375	70.0	0.82	Certain	3.5	-5.34	2.50325	Yes	n/a	-8.839002267573699	n/a	n/a	n/a	ISITrial	Mixed
66.7	2.503	0.012	699.37	31.0	2	-1.0	-1.0	20.9375	70.0	0.82	Certain	3.5	-5.34	2.50325	Yes	n/a	-8.839002267573699	n/a	n/a	n/a	TrialHappPreview	Mixed
69.224	4.012	0.021	701.894	31.0	2	-1.0	-1.0	20.9375	70.0	0.82	Certain	3.5	-5.34	2.50325	Yes	n/a	-8.839002267573699	n/a	n/a	512.0	TrialHappiness	Mixed
69.224	0.0	n/a	701.894	31.0	2	-1.0	-1.0	20.9375	70.0	0.82	Certain	3.5	-5.34	2.50325	Yes	n/a	-8.839002267573699	n/a	n/a	512.0	TrialHappinessSliderResponse	Mixed
73.236	2.013	4.012	705.906	31.0	2	-1.0	-1.0	20.9375	70.0	0.82	Certain	3.5	-5.34	2.50325	Yes	n/a	-8.839002267573699	n/a	n/a	n/a	ISIRate	Mixed
75.275	3.0	0.026	707.945	32.0	2	-1.96	-0.98	20.6925	70.0	3.16	Outcome2	7.7	-1.96	0.0	No	2.0	-9.65759637188209	1.198	76.473	n/a	GetAnswer	Gain
76.496	4.0	0.023	709.166	32.0	2	-1.96	-0.98	20.6925	70.0	3.16	Outcome2	7.7	-1.96	0.0	No	n/a	-9.65759637188209	n/a	n/a	n/a	ShowChoice	Gain
80.508	1.0	0.012	713.178	32.0	2	-1.96	-0.98	20.6925	70.0	3.16	Outcome2	7.7	-1.96	0.0	No	n/a	-9.65759637188209	n/a	n/a	n/a	ShowResult	Gain
81.527	2.0	0.019	714.197	32.0	2	-1.96	-0.98	20.6925	70.0	3.16	Outcome2	7.7	-1.96	0.0	No	n/a	-9.65759637188209	n/a	n/a	n/a	ISITrial	Gain
83.55	3.0	0.023	716.22	33.0	2	0.0	0.0	20.6925	70.0	0.66	Certain	-1.7	0.32	0.0	No	4.0	2.01587301587302	1.478	85.028	n/a	GetAnswer	Mixed
85.055	4.0	0.027	717.725	33.0	2	0.0	0.0	20.6925	70.0	0.66	Certain	-1.7	0.32	0.0	No	n/a	2.01587301587302	n/a	n/a	n/a	ShowChoice	Mixed
89.067	1.0	0.012	721.737	33.0	2	0.0	0.0	20.6925	70.0	0.66	Certain	-1.7	0.32	0.0	No	n/a	2.01587301587302	n/a	n/a	n/a	ShowResult	Mixed
90.086	5.099	0.019	722.756	33.0	2	0.0	0.0	20.6925	70.0	0.66	Certain	-1.7	0.32	0.0	No	n/a	2.01587301587302	n/a	n/a	n/a	ISITrial	Mixed
95.202	3.0	0.017	727.872	34.0	2	2.64	1.32	21.0225	70.0	2.48	Outcome2	13.3	2.64	3.2315	Yes	2.0	-10.6598639455782	1.005	96.207	n/a	GetAnswer	Loss
96.221	4.0	0.014	728.891	34.0	2	2.64	1.32	21.0225	70.0	2.48	Outcome2	13.3	2.64	3.2315	Yes	n/a	-10.6598639455782	n/a	n/a	n/a	ShowChoice	Loss
100.233	1.0	0.012	732.903	34.0	2	2.64	1.32	21.0225	70.0	2.48	Outcome2	13.3	2.64	3.2315	Yes	n/a	-10.6598639455782	n/a	n/a	n/a	ShowResult	Loss
101.253	4.784	0.02	733.923	34.0	2	2.64	1.32	21.0225	70.0	2.48	Outcome2	13.3	2.64	3.2315	Yes	n/a	-10.6598639455782	n/a	n/a	n/a	ISITrial	Loss
106.051	3.232	0.014	738.721	34.0	2	2.64	1.32	21.0225	70.0	2.48	Outcome2	13.3	2.64	3.2315	Yes	n/a	-10.6598639455782	n/a	n/a	n/a	TrialHappPreview	Loss
109.311	4.012	0.028	741.981	34.0	2	2.64	1.32	21.0225	70.0	2.48	Outcome2	13.3	2.64	3.2315	Yes	n/a	-10.6598639455782	n/a	n/a	512.0	TrialHappiness	Loss
109.311	0.0	n/a	741.981	34.0	2	2.64	1.32	21.0225	70.0	2.48	Outcome2	13.3	2.64	3.2315	Yes	n/a	-10.6598639455782	n/a	n/a	512.0	TrialHappinessSliderResponse	Loss
113.323	4.926	4.012	745.993	34.0	2	2.64	1.32	21.0225	70.0	2.48	Outcome2	13.3	2.64	3.2315	Yes	n/a	-10.6598639455782	n/a	n/a	n/a	ISIRate	Loss
118.271	3.0	0.022	750.941	35.0	2	-2.46	-1.23	20.715	70.0	1.82	Outcome2	8.7	-2.46	0.0	No	2.0	-11.1609977324263	1.649	119.92	n/a	GetAnswer	Gain
119.942	4.0	0.022	752.612	35.0	2	-2.46	-1.23	20.715	70.0	1.82	Outcome2	8.7	-2.46	0.0	No	n/a	-11.1609977324263	n/a	n/a	n/a	ShowChoice	Gain
123.954	1.0	0.012	756.624	35.0	2	-2.46	-1.23	20.715	70.0	1.82	Outcome2	8.7	-2.46	0.0	No	n/a	-11.1609977324263	n/a	n/a	n/a	ShowResult	Gain
124.974	2.098	0.02	757.644	35.0	2	-2.46	-1.23	20.715	70.0	1.82	Outcome2	8.7	-2.46	0.0	No	n/a	-11.1609977324263	n/a	n/a	n/a	ISITrial	Gain
127.097	3.0	0.025	759.767	36.0	2	0.22	-1.0	20.7425	70.0	0.4	Outcome1	0.22	-1.92	3.33575	Yes	2.0	2.14115646258503	2.406	129.503	n/a	GetAnswer	Mixed
129.521	4.0	0.018	762.191	36.0	2	0.22	-1.0	20.7425	70.0	0.4	Outcome1	0.22	-1.92	3.33575	Yes	n/a	2.14115646258503	n/a	n/a	n/a	ShowChoice	Mixed
133.533	1.0	0.012	766.203	36.0	2	0.22	-1.0	20.7425	70.0	0.4	Outcome1	0.22	-1.92	3.33575	Yes	n/a	2.14115646258503	n/a	n/a	n/a	ShowResult	Mixed
134.553	5.156	0.02	767.223	36.0	2	0.22	-1.0	20.7425	70.0	0.4	Outcome1	0.22	-1.92	3.33575	Yes	n/a	2.14115646258503	n/a	n/a	n/a	ISITrial	Mixed
139.735	3.336	0.026	772.405	36.0	2	0.22	-1.0	20.7425	70.0	0.4	Outcome1	0.22	-1.92	3.33575	Yes	n/a	2.14115646258503	n/a	n/a	n/a	TrialHappPreview	Mixed
143.095	4.012	0.024	775.765	36.0	2	0.22	-1.0	20.7425	70.0	0.4	Outcome1	0.22	-1.92	3.33575	Yes	n/a	2.14115646258503	n/a	n/a	512.0	TrialHappiness	Mixed
143.096	0.0	n/a	775.766	36.0	2	0.22	-1.0	20.7425	70.0	0.4	Outcome1	0.22	-1.92	3.33575	Yes	n/a	2.14115646258503	n/a	n/a	512.0	TrialHappinessSliderResponse	Mixed
147.107	5.343	4.012	779.777	36.0	2	0.22	-1.0	20.7425	70.0	0.4	Outcome1	0.22	-1.92	3.33575	Yes	n/a	2.14115646258503	n/a	n/a	n/a	ISIRate	Mixed
152.473	3.0	0.023	785.143	37.0	2	-1.66	-0.83	20.535	70.0	1.68	Outcome2	10.5	-1.66	0.0	No	2.0	-12.1632653061224	1.435	153.908	n/a	GetAnswer	Loss
153.927	4.0	0.019	786.597	37.0	2	-1.66	-0.83	20.535	70.0	1.68	Outcome2	10.5	-1.66	0.0	No	n/a	-12.1632653061224	n/a	n/a	n/a	ShowChoice	Loss
157.939	1.0	0.012	790.609	37.0	2	-1.66	-0.83	20.535	70.0	1.68	Outcome2	10.5	-1.66	0.0	No	n/a	-12.1632653061224	n/a	n/a	n/a	ShowResult	Loss
158.959	3.598	0.02	791.629	37.0	2	-1.66	-0.83	20.535	70.0	1.68	Outcome2	10.5	-1.66	0.0	No	n/a	-12.1632653061224	n/a	n/a	n/a	ISITrial	Loss
162.587	3.0	0.03	795.257	38.0	2	0.0	0.0	20.535	70.0	5.0	Certain	6.3	-6.36	0.0	No	4.0	-12.6643990929705	1.538	164.125	n/a	GetAnswer	Gain
164.141	4.0	0.016	796.811	38.0	2	0.0	0.0	20.535	70.0	5.0	Certain	6.3	-6.36	0.0	No	n/a	-12.6643990929705	n/a	n/a	n/a	ShowChoice	Gain
168.153	1.0	0.012	800.823	38.0	2	0.0	0.0	20.535	70.0	5.0	Certain	6.3	-6.36	0.0	No	n/a	-12.6643990929705	n/a	n/a	n/a	ShowResult	Gain
169.173	4.787	0.02	801.843	38.0	2	0.0	0.0	20.535	70.0	5.0	Certain	6.3	-6.36	0.0	No	n/a	-12.6643990929705	n/a	n/a	n/a	ISITrial	Gain
173.987	3.0	0.027	806.657	39.0	2	-1.0	-1.0	20.41	70.0	0.2	Certain	-2.65	-0.38	2.86425	Yes	4.0	2.2664399092970497	1.415	175.402	n/a	GetAnswer	Mixed
175.425	4.0	0.023	808.095	39.0	2	-1.0	-1.0	20.41	70.0	0.2	Certain	-2.65	-0.38	2.86425	Yes	n/a	2.2664399092970497	n/a	n/a	n/a	ShowChoice	Mixed
179.437	1.0	0.012	812.107	39.0	2	-1.0	-1.0	20.41	70.0	0.2	Certain	-2.65	-0.38	2.86425	Yes	n/a	2.2664399092970497	n/a	n/a	n/a	ShowResult	Mixed
180.457	2.348	0.02	813.127	39.0	2	-1.0	-1.0	20.41	70.0	0.2	Certain	-2.65	-0.38	2.86425	Yes	n/a	2.2664399092970497	n/a	n/a	n/a	ISITrial	Mixed
182.831	2.864	0.026	815.501	39.0	2	-1.0	-1.0	20.41	70.0	0.2	Certain	-2.65	-0.38	2.86425	Yes	n/a	2.2664399092970497	n/a	n/a	n/a	TrialHappPreview	Mixed
185.723	4.012	0.028	818.393	39.0	2	-1.0	-1.0	20.41	70.0	0.2	Certain	-2.65	-0.38	2.86425	Yes	n/a	2.2664399092970497	n/a	n/a	512.0	TrialHappiness	Mixed
185.723	0.0	n/a	818.393	39.0	2	-1.0	-1.0	20.41	70.0	0.2	Certain	-2.65	-0.38	2.86425	Yes	n/a	2.2664399092970497	n/a	n/a	512.0	TrialHappinessSliderResponse	Mixed
189.735	3.457	4.012	822.405	39.0	2	-1.0	-1.0	20.41	70.0	0.2	Certain	-2.65	-0.38	2.86425	Yes	n/a	2.2664399092970497	n/a	n/a	n/a	ISIRate	Mixed
193.212	3.0	0.02	825.882	40.0	2	1.38	0.0	20.5825	70.0	2.8	Outcome2	-0.93	1.38	0.0	No	2.0	2.30820105820106	1.494	194.706	n/a	GetAnswer	Gain
194.733	4.0	0.027	827.403	40.0	2	1.38	0.0	20.5825	70.0	2.8	Outcome2	-0.93	1.38	0.0	No	n/a	2.30820105820106	n/a	n/a	n/a	ShowChoice	Gain
198.745	1.0	0.012	831.415	40.0	2	1.38	0.0	20.5825	70.0	2.8	Outcome2	-0.93	1.38	0.0	No	n/a	2.30820105820106	n/a	n/a	n/a	ShowResult	Gain
199.765	3.158	0.02	832.435	40.0	2	1.38	0.0	20.5825	70.0	2.8	Outcome2	-0.93	1.38	0.0	No	n/a	2.30820105820106	n/a	n/a	n/a	ISITrial	Gain
202.941	3.0	0.018	835.611	41.0	2	-7.0	-7.0	19.7075	70.0	1.0	Certain	-0.3	-14.47	4.0	Yes	4.0	-14.1678004535147	2.478	205.419	n/a	GetAnswer	Mixed
205.432	4.0	0.013	838.102	41.0	2	-7.0	-7.0	19.7075	70.0	1.0	Certain	-0.3	-14.47	4.0	Yes	n/a	-14.1678004535147	n/a	n/a	n/a	ShowChoice	Mixed
209.444	1.0	0.012	842.114	41.0	2	-7.0	-7.0	19.7075	70.0	1.0	Certain	-0.3	-14.47	4.0	Yes	n/a	-14.1678004535147	n/a	n/a	n/a	ShowResult	Mixed
210.463	4.506	0.019	843.133	41.0	2	-7.0	-7.0	19.7075	70.0	1.0	Certain	-0.3	-14.47	4.0	Yes	n/a	-14.1678004535147	n/a	n/a	n/a	ISITrial	Mixed
214.994	4.0	0.025	847.664	41.0	2	-7.0	-7.0	19.7075	70.0	1.0	Certain	-0.3	-14.47	4.0	Yes	n/a	-14.1678004535147	n/a	n/a	n/a	TrialHappPreview	Mixed
219.022	4.012	0.028	851.692	41.0	2	-7.0	-7.0	19.7075	70.0	1.0	Certain	-0.3	-14.47	4.0	Yes	n/a	-14.1678004535147	n/a	n/a	512.0	TrialHappiness	Mixed
219.023	0.0	n/a	851.693	41.0	2	-7.0	-7.0	19.7075	70.0	1.0	Certain	-0.3	-14.47	4.0	Yes	n/a	-14.1678004535147	n/a	n/a	512.0	TrialHappinessSliderResponse	Mixed
223.034	8.0	4.012	855.704	41.0	2	-7.0	-7.0	19.7075	70.0	1.0	Certain	-0.3	-14.47	4.0	Yes	n/a	-14.1678004535147	n/a	n/a	n/a	ISIRate	Mixed
231.058	3.0	0.024	863.728	42.0	2	2.0	2.0	19.9575	70.0	2.48	Certain	-5.37	9.3	0.0	No	4.0	-14.668934240362802	1.943	233.001	n/a	GetAnswer	Gain
233.014	4.0	0.013	865.684	42.0	2	2.0	2.0	19.9575	70.0	2.48	Certain	-5.37	9.3	0.0	No	n/a	-14.668934240362802	n/a	n/a	n/a	ShowChoice	Gain
237.026	1.0	0.012	869.696	42.0	2	2.0	2.0	19.9575	70.0	2.48	Certain	-5.37	9.3	0.0	No	n/a	-14.668934240362802	n/a	n/a	n/a	ShowResult	Gain
238.046	6.248	0.02	870.716	42.0	2	2.0	2.0	19.9575	70.0	2.48	Certain	-5.37	9.3	0.0	No	n/a	-14.668934240362802	n/a	n/a	n/a	ISITrial	Gain
244.315	3.0	0.021	876.985	43.0	2	-4.0	-4.0	19.4575	70.0	0.4	Certain	2.9	-12.27	2.77575	Yes	4.0	-15.1700680272109	1.955	246.27	n/a	GetAnswer	Mixed
246.287	4.0	0.017	878.957	43.0	2	-4.0	-4.0	19.4575	70.0	0.4	Certain	2.9	-12.27	2.77575	Yes	n/a	-15.1700680272109	n/a	n/a	n/a	ShowChoice	Mixed
250.299	1.0	0.012	882.969	43.0	2	-4.0	-4.0	19.4575	70.0	0.4	Certain	2.9	-12.27	2.77575	Yes	n/a	-15.1700680272109	n/a	n/a	n/a	ShowResult	Mixed
251.319	4.596	0.02	883.989	43.0	2	-4.0	-4.0	19.4575	70.0	0.4	Certain	2.9	-12.27	2.77575	Yes	n/a	-15.1700680272109	n/a	n/a	n/a	ISITrial	Mixed
255.933	2.776	0.018	888.603	43.0	2	-4.0	-4.0	19.4575	70.0	0.4	Certain	2.9	-12.27	2.77575	Yes	n/a	-15.1700680272109	n/a	n/a	n/a	TrialHappPreview	Mixed
258.724	4.012	0.015	891.394	43.0	2	-4.0	-4.0	19.4575	70.0	0.4	Certain	2.9	-12.27	2.77575	Yes	n/a	-15.1700680272109	n/a	n/a	512.0	TrialHappiness	Mixed
258.725	0.0	n/a	891.395	43.0	2	-4.0	-4.0	19.4575	70.0	0.4	Certain	2.9	-12.27	2.77575	Yes	n/a	-15.1700680272109	n/a	n/a	512.0	TrialHappinessSliderResponse	Mixed
262.736	3.103	4.012	895.406	43.0	2	-4.0	-4.0	19.4575	70.0	0.4	Certain	2.9	-12.27	2.77575	Yes	n/a	-15.1700680272109	n/a	n/a	n/a	ISIRate	Mixed
265.862	3.0	0.023	898.532	44.0	2	1.23	0.0	19.6113	70.0	2.0	Outcome2	-1.25	1.23	0.0	No	2.0	2.47524565381708	1.492	267.354	n/a	GetAnswer	Gain
267.367	4.0	0.013	900.037	44.0	2	1.23	0.0	19.6113	70.0	2.0	Outcome2	-1.25	1.23	0.0	No	n/a	2.47524565381708	n/a	n/a	n/a	ShowChoice	Gain
271.379	1.0	0.012	904.049	44.0	2	1.23	0.0	19.6113	70.0	2.0	Outcome2	-1.25	1.23	0.0	No	n/a	2.47524565381708	n/a	n/a	n/a	ShowResult	Gain
272.399	2.42	0.02	905.069	44.0	2	1.23	0.0	19.6113	70.0	2.0	Outcome2	-1.25	1.23	0.0	No	n/a	2.47524565381708	n/a	n/a	n/a	ISITrial	Gain
274.839	3.0	0.02	907.509	45.0	2	-5.0	-5.0	18.9863	70.0	0.3	Certain	2.7	-13.47	0.0	No	4.0	-16.172335600906997	1.86	276.699	n/a	GetAnswer	Mixed
276.712	4.0	0.013	909.382	45.0	2	-5.0	-5.0	18.9863	70.0	0.3	Certain	2.7	-13.47	0.0	No	n/a	-16.172335600906997	n/a	n/a	n/a	ShowChoice	Mixed
280.724	1.0	0.012	913.394	45.0	2	-5.0	-5.0	18.9863	70.0	0.3	Certain	2.7	-13.47	0.0	No	n/a	-16.172335600906997	n/a	n/a	n/a	ShowResult	Mixed
281.743	3.144	0.019	914.413	45.0	2	-5.0	-5.0	18.9863	70.0	0.3	Certain	2.7	-13.47	0.0	No	n/a	-16.172335600906997	n/a	n/a	n/a	ISITrial	Mixed
284.903	3.0	0.016	917.573	46.0	2	2.0	2.0	19.2363	70.0	2.0	Certain	10.9	-5.77	3.84125	Yes	4.0	-16.6734693877551	1.536	286.439	n/a	GetAnswer	Loss
286.457	4.0	0.018	919.127	46.0	2	2.0	2.0	19.2363	70.0	2.0	Certain	10.9	-5.77	3.84125	Yes	n/a	-16.6734693877551	n/a	n/a	n/a	ShowChoice	Loss
290.469	1.0	0.012	923.139	46.0	2	2.0	2.0	19.2363	70.0	2.0	Certain	10.9	-5.77	3.84125	Yes	n/a	-16.6734693877551	n/a	n/a	n/a	ShowResult	Loss
291.489	2.246	0.02	924.159	46.0	2	2.0	2.0	19.2363	70.0	2.0	Certain	10.9	-5.77	3.84125	Yes	n/a	-16.6734693877551	n/a	n/a	n/a	ISITrial	Loss
293.746	3.841	0.011	926.416	46.0	2	2.0	2.0	19.2363	70.0	2.0	Certain	10.9	-5.77	3.84125	Yes	n/a	-16.6734693877551	n/a	n/a	n/a	TrialHappPreview	Loss
297.607	4.012	0.02	930.277	46.0	2	2.0	2.0	19.2363	70.0	2.0	Certain	10.9	-5.77	3.84125	Yes	n/a	-16.6734693877551	n/a	n/a	512.0	TrialHappiness	Loss
297.608	0.0	n/a	930.278	46.0	2	2.0	2.0	19.2363	70.0	2.0	Certain	10.9	-5.77	3.84125	Yes	n/a	-16.6734693877551	n/a	n/a	512.0	TrialHappinessSliderResponse	Loss
301.619	7.365	4.012	934.289	46.0	2	2.0	2.0	19.2363	70.0	2.0	Certain	10.9	-5.77	3.84125	Yes	n/a	-16.6734693877551	n/a	n/a	n/a	ISIRate	Loss
309.008	3.0	0.024	941.678	47.0	2	-3.67	-1.84	18.7775	70.0	2.8	Outcome2	13.5	-3.67	0.0	No	2.0	-17.1746031746032	1.409	310.417	n/a	GetAnswer	Loss
310.446	4.0	0.029	943.116	47.0	2	-3.67	-1.84	18.7775	70.0	2.8	Outcome2	13.5	-3.67	0.0	No	n/a	-17.1746031746032	n/a	n/a	n/a	ShowChoice	Loss
314.458	1.0	0.012	947.128	47.0	2	-3.67	-1.84	18.7775	70.0	2.8	Outcome2	13.5	-3.67	0.0	No	n/a	-17.1746031746032	n/a	n/a	n/a	ShowResult	Loss
315.478	2.0	0.02	948.148	47.0	2	-3.67	-1.84	18.7775	70.0	2.8	Outcome2	13.5	-3.67	0.0	No	n/a	-17.1746031746032	n/a	n/a	n/a	ISITrial	Loss
317.5	3.0	0.022	950.17	48.0	2	2.0	2.0	19.0275	70.0	1.82	Certain	10.7	-6.98	2.83175	Yes	4.0	-17.6757369614512	1.175	318.675	n/a	GetAnswer	Loss
318.687	4.0	0.012	951.357	48.0	2	2.0	2.0	19.0275	70.0	1.82	Certain	10.7	-6.98	2.83175	Yes	n/a	-17.6757369614512	n/a	n/a	n/a	ShowChoice	Loss
322.699	1.0	0.012	955.369	48.0	2	2.0	2.0	19.0275	70.0	1.82	Certain	10.7	-6.98	2.83175	Yes	n/a	-17.6757369614512	n/a	n/a	n/a	ShowResult	Loss
323.719	3.692	0.02	956.389	48.0	2	2.0	2.0	19.0275	70.0	1.82	Certain	10.7	-6.98	2.83175	Yes	n/a	-17.6757369614512	n/a	n/a	n/a	ISITrial	Loss
327.43	2.832	0.019	960.1	48.0	2	2.0	2.0	19.0275	70.0	1.82	Certain	10.7	-6.98	2.83175	Yes	n/a	-17.6757369614512	n/a	n/a	n/a	TrialHappPreview	Loss
330.289	4.012	0.027	962.959	48.0	2	2.0	2.0	19.0275	70.0	1.82	Certain	10.7	-6.98	2.83175	Yes	n/a	-17.6757369614512	n/a	n/a	512.0	TrialHappiness	Loss
330.289	0.0	n/a	962.959	48.0	2	2.0	2.0	19.0275	70.0	1.82	Certain	10.7	-6.98	2.83175	Yes	n/a	-17.6757369614512	n/a	n/a	512.0	TrialHappinessSliderResponse	Loss
334.301	3.327	4.012	966.971	48.0	2	2.0	2.0	19.0275	70.0	1.82	Certain	10.7	-6.98	2.83175	Yes	n/a	-17.6757369614512	n/a	n/a	n/a	ISIRate	Loss
337.644	3.0	0.016	970.314	49.0	2	-4.28	-2.14	18.4925	70.0	3.6	Outcome2	13.9	-4.28	0.0	No	2.0	-18.1768707482993	1.953	339.597	n/a	GetAnswer	Loss
339.617	4.0	0.02	972.287	49.0	2	-4.28	-2.14	18.4925	70.0	3.6	Outcome2	13.9	-4.28	0.0	No	n/a	-18.1768707482993	n/a	n/a	n/a	ShowChoice	Loss
343.629	1.0	0.012	976.299	49.0	2	-4.28	-2.14	18.4925	70.0	3.6	Outcome2	13.9	-4.28	0.0	No	n/a	-18.1768707482993	n/a	n/a	n/a	ShowResult	Loss
344.648	8.0	0.019	977.318	49.0	2	-4.28	-2.14	18.4925	70.0	3.6	Outcome2	13.9	-4.28	0.0	No	n/a	-18.1768707482993	n/a	n/a	n/a	ISITrial	Loss
352.672	3.0	0.024	985.342	50.0	2	-5.98	-2.99	17.745	70.0	1.82	Outcome1	-5.98	12.7	3.54725	Yes	2.0	-18.6780045351474	2.22	354.892	n/a	GetAnswer	Loss
354.912	4.0	0.02	987.582	50.0	2	-5.98	-2.99	17.745	70.0	1.82	Outcome1	-5.98	12.7	3.54725	Yes	n/a	-18.6780045351474	n/a	n/a	n/a	ShowChoice	Loss
358.924	1.0	0.012	991.594	50.0	2	-5.98	-2.99	17.745	70.0	1.82	Outcome1	-5.98	12.7	3.54725	Yes	n/a	-18.6780045351474	n/a	n/a	n/a	ShowResult	Loss
359.944	7.537	0.02	992.614	50.0	2	-5.98	-2.99	17.745	70.0	1.82	Outcome1	-5.98	12.7	3.54725	Yes	n/a	-18.6780045351474	n/a	n/a	n/a	ISITrial	Loss
367.5	3.547	0.019	1000.17	50.0	2	-5.98	-2.99	17.745	70.0	1.82	Outcome1	-5.98	12.7	3.54725	Yes	n/a	-18.6780045351474	n/a	n/a	n/a	TrialHappPreview	Loss
371.061	4.012	0.014	1003.731	50.0	2	-5.98	-2.99	17.745	70.0	1.82	Outcome1	-5.98	12.7	3.54725	Yes	n/a	-18.6780045351474	n/a	n/a	448.0	TrialHappiness	Loss
371.061	1.411	n/a	1004.299	50.0	2	-5.98	-2.99	17.745	70.0	1.82	Outcome1	-5.98	12.7	3.54725	Yes	n/a	-18.6780045351474	n/a	n/a	448.0	TrialHappinessSliderResponse	Loss
375.073	6.189	4.012	1007.743	50.0	2	-5.98	-2.99	17.745	70.0	1.82	Outcome1	-5.98	12.7	3.54725	Yes	n/a	-18.6780045351474	n/a	n/a	n/a	ISIRate	Loss
381.291	3.0	0.029	1013.961	51.0	2	-13.59	-4.0	16.0462	70.0	1.68	Outcome2	4.5	-13.59	0.0	No	2.0	-18.0907029478458	1.954	383.245	n/a	GetAnswer	Gain
383.264	4.0	0.019	1015.934	51.0	2	-13.59	-4.0	16.0462	70.0	1.68	Outcome2	4.5	-13.59	0.0	No	n/a	-18.0907029478458	n/a	n/a	n/a	ShowChoice	Gain
387.276	1.0	0.012	1019.946	51.0	2	-13.59	-4.0	16.0462	70.0	1.68	Outcome2	4.5	-13.59	0.0	No	n/a	-18.0907029478458	n/a	n/a	n/a	ShowResult	Gain
388.296	5.508	0.02	1020.966	51.0	2	-13.59	-4.0	16.0462	70.0	1.68	Outcome2	4.5	-13.59	0.0	No	n/a	-18.0907029478458	n/a	n/a	n/a	ISITrial	Gain
393.829	3.0	0.025	1026.499	52.0	2	-8.0	-8.0	15.0462	70.0	0.3	Certain	-17.82	0.7	0.0	No	4.0	-18.5192743764172	2.455	396.284	n/a	GetAnswer	Mixed
396.303	4.0	0.019	1028.973	52.0	2	-8.0	-8.0	15.0462	70.0	0.3	Certain	-17.82	0.7	0.0	No	n/a	-18.5192743764172	n/a	n/a	n/a	ShowChoice	Mixed
400.315	1.0	0.012	1032.985	52.0	2	-8.0	-8.0	15.0462	70.0	0.3	Certain	-17.82	0.7	0.0	No	n/a	-18.5192743764172	n/a	n/a	n/a	ShowResult	Mixed
401.335	5.913	0.02	1034.005	52.0	2	-8.0	-8.0	15.0462	70.0	0.3	Certain	-17.82	0.7	0.0	No	n/a	-18.5192743764172	n/a	n/a	n/a	ISITrial	Mixed
407.269	3.0	0.021	1039.939	53.0	2	3.22	2.0	15.4487	70.0	2.0	Outcome1	3.22	0.64	2.99675	Yes	2.0	2.5789871504157205	1.813	409.082	n/a	GetAnswer	Loss
409.108	4.0	0.026	1041.778	53.0	2	3.22	2.0	15.4487	70.0	2.0	Outcome1	3.22	0.64	2.99675	Yes	n/a	2.5789871504157205	n/a	n/a	n/a	ShowChoice	Loss
413.12	1.0	0.012	1045.79	53.0	2	3.22	2.0	15.4487	70.0	2.0	Outcome1	3.22	0.64	2.99675	Yes	n/a	2.5789871504157205	n/a	n/a	n/a	ShowResult	Loss
414.14	3.66	0.02	1046.81	53.0	2	3.22	2.0	15.4487	70.0	2.0	Outcome1	3.22	0.64	2.99675	Yes	n/a	2.5789871504157205	n/a	n/a	n/a	ISITrial	Loss
417.817	2.997	0.017	1050.487	53.0	2	3.22	2.0	15.4487	70.0	2.0	Outcome1	3.22	0.64	2.99675	Yes	n/a	2.5789871504157205	n/a	n/a	n/a	TrialHappPreview	Loss
420.843	4.012	0.029	1053.513	53.0	2	3.22	2.0	15.4487	70.0	2.0	Outcome1	3.22	0.64	2.99675	Yes	n/a	2.5789871504157205	n/a	n/a	512.0	TrialHappiness	Loss
420.844	0.0	n/a	1053.514	53.0	2	3.22	2.0	15.4487	70.0	2.0	Outcome1	3.22	0.64	2.99675	Yes	n/a	2.5789871504157205	n/a	n/a	512.0	TrialHappinessSliderResponse	Loss
424.855	3.987	4.012	1057.525	53.0	2	3.22	2.0	15.4487	70.0	2.0	Outcome1	3.22	0.64	2.99675	Yes	n/a	2.5789871504157205	n/a	n/a	n/a	ISIRate	Loss
428.867	3.0	0.025	1061.537	54.0	2	-5.0	-5.0	14.8237	70.0	2.48	Certain	-15.16	5.3	0.0	No	4.0	-20.464852607709695	1.612	430.479	n/a	GetAnswer	Gain
430.505	4.0	0.026	1063.175	54.0	2	-5.0	-5.0	14.8237	70.0	2.48	Certain	-15.16	5.3	0.0	No	n/a	-20.464852607709695	n/a	n/a	n/a	ShowChoice	Gain
434.517	1.0	0.012	1067.187	54.0	2	-5.0	-5.0	14.8237	70.0	2.48	Certain	-15.16	5.3	0.0	No	n/a	-20.464852607709695	n/a	n/a	n/a	ShowResult	Gain
435.537	8.0	0.02	1068.207	54.0	2	-5.0	-5.0	14.8237	70.0	2.48	Certain	-15.16	5.3	0.0	No	n/a	-20.464852607709695	n/a	n/a	n/a	ISITrial	Gain
495.785	0.0	n/a	1128.455	n/a	2	n/a	n/a	n/a	n/a	n/a	n/a	n/a	n/a	n/a	n/a	n/a	n/a	n/a	n/a	512.0	BlockStartHappinessSliderResponse	n/a
-72.484	-0.001	0.024	1076.231	n/a	3	n/a	n/a	n/a	n/a	n/a	n/a	n/a	n/a	n/a	n/a	{SPACE}	n/a	48.194	-24.29	n/a	Rest	n/a
-24.273	4.0	0.017	1124.442	n/a	3	n/a	n/a	n/a	n/a	n/a	n/a	n/a	n/a	n/a	n/a	n/a	n/a	n/a	n/a	n/a	BlockHappyPreview	n/a
-20.261	0.0	0.012	1128.454	n/a	3	n/a	n/a	n/a	n/a	n/a	n/a	n/a	n/a	n/a	n/a	n/a	n/a	n/a	n/a	512.0	BlockStartHappiness	n/a
-5.065	-0.001	0.025	1143.65	n/a	3	n/a	n/a	n/a	n/a	n/a	n/a	n/a	n/a	n/a	n/a	5.0	n/a	5.038	-0.027	n/a	ScanWait	n/a
0.0	10.0	0.027	1148.715	n/a	3	n/a	n/a	n/a	n/a	n/a	n/a	n/a	n/a	n/a	n/a	n/a	n/a	n/a	n/a	n/a	GetReady	n/a
10.013	3.0	0.013	1158.728	55.0	3	-2.0	-2.0	14.5737	955.0	1.2	Certain	1.9	-5.63	2.53325	Yes	4.0	7.52548131370328	1.56	11.573	n/a	GetAnswer	Mixed
11.584	4.0	0.011	1160.299	55.0	3	-2.0	-2.0	14.5737	955.0	1.2	Certain	1.9	-5.63	2.53325	Yes	n/a	7.52548131370328	n/a	n/a	n/a	ShowChoice	Mixed
15.596	1.0	0.012	1164.311	55.0	3	-2.0	-2.0	14.5737	955.0	1.2	Certain	1.9	-5.63	2.53325	Yes	n/a	7.52548131370328	n/a	n/a	n/a	ShowResult	Mixed
16.616	7.709	0.02	1165.331	55.0	3	-2.0	-2.0	14.5737	955.0	1.2	Certain	1.9	-5.63	2.53325	Yes	n/a	7.52548131370328	n/a	n/a	n/a	ISITrial	Mixed
24.339	2.533	0.014	1173.054	55.0	3	-2.0	-2.0	14.5737	955.0	1.2	Certain	1.9	-5.63	2.53325	Yes	n/a	7.52548131370328	n/a	n/a	n/a	TrialHappPreview	Mixed
26.897	4.012	0.025	1175.612	55.0	3	-2.0	-2.0	14.5737	955.0	1.2	Certain	1.9	-5.63	2.53325	Yes	n/a	7.52548131370328	n/a	n/a	512.0	TrialHappiness	Mixed
26.897	0.0	n/a	1175.612	55.0	3	-2.0	-2.0	14.5737	955.0	1.2	Certain	1.9	-5.63	2.53325	Yes	n/a	7.52548131370328	n/a	n/a	512.0	TrialHappinessSliderResponse	Mixed
30.909	2.133	4.012	1179.624	55.0	3	-2.0	-2.0	14.5737	955.0	1.2	Certain	1.9	-5.63	2.53325	Yes	n/a	7.52548131370328	n/a	n/a	n/a	ISIRate	Mixed
33.065	3.0	0.023	1181.78	56.0	3	-3.0	-3.0	14.1987	955.0	0.52	Certain	-6.93	1.1	0.0	No	4.0	8.02718006795017	2.274	35.339	n/a	GetAnswer	Mixed
35.356	4.0	0.017	1184.071	56.0	3	-3.0	-3.0	14.1987	955.0	0.52	Certain	-6.93	1.1	0.0	No	n/a	8.02718006795017	n/a	n/a	n/a	ShowChoice	Mixed
39.368	1.0	0.012	1188.083	56.0	3	-3.0	-3.0	14.1987	955.0	0.52	Certain	-6.93	1.1	0.0	No	n/a	8.02718006795017	n/a	n/a	n/a	ShowResult	Mixed
40.387	4.697	0.019	1189.102	56.0	3	-3.0	-3.0	14.1987	955.0	0.52	Certain	-6.93	1.1	0.0	No	n/a	8.02718006795017	n/a	n/a	n/a	ISITrial	Mixed
45.101	3.0	0.017	1193.816	57.0	3	7.5	-0.52	15.1362	955.0	2.8	Outcome1	7.5	-1.03	0.0	No	2.0	8.52887882219705	1.455	46.556	n/a	GetAnswer	Gain
46.572	4.0	0.016	1195.287	57.0	3	7.5	-0.52	15.1362	955.0	2.8	Outcome1	7.5	-1.03	0.0	No	n/a	8.52887882219705	n/a	n/a	n/a	ShowChoice	Gain
50.584	1.0	0.012	1199.299	57.0	3	7.5	-0.52	15.1362	955.0	2.8	Outcome1	7.5	-1.03	0.0	No	n/a	8.52887882219705	n/a	n/a	n/a	ShowResult	Gain
51.604	4.291	0.02	1200.319	57.0	3	7.5	-0.52	15.1362	955.0	2.8	Outcome1	7.5	-1.03	0.0	No	n/a	8.52887882219705	n/a	n/a	n/a	ISITrial	Gain
55.917	3.0	0.022	1204.632	58.0	3	-1.0	-1.0	15.0112	955.0	0.52	Certain	3.1	-5.93	3.04575	Yes	4.0	9.03057757644394	1.605	57.522	n/a	GetAnswer	Mixed
57.539	4.0	0.017	1206.254	58.0	3	-1.0	-1.0	15.0112	955.0	0.52	Certain	3.1	-5.93	3.04575	Yes	n/a	9.03057757644394	n/a	n/a	n/a	ShowChoice	Mixed
61.551	1.0	0.012	1210.266	58.0	3	-1.0	-1.0	15.0112	955.0	0.52	Certain	3.1	-5.93	3.04575	Yes	n/a	9.03057757644394	n/a	n/a	n/a	ShowResult	Mixed
62.57	2.037	0.019	1211.285	58.0	3	-1.0	-1.0	15.0112	955.0	0.52	Certain	3.1	-5.93	3.04575	Yes	n/a	9.03057757644394	n/a	n/a	n/a	ISITrial	Mixed
64.626	3.046	0.019	1213.341	58.0	3	-1.0	-1.0	15.0112	955.0	0.52	Certain	3.1	-5.93	3.04575	Yes	n/a	9.03057757644394	n/a	n/a	n/a	TrialHappPreview	Mixed
67.702	4.012	0.03	1216.417	58.0	3	-1.0	-1.0	15.0112	955.0	0.52	Certain	3.1	-5.93	3.04575	Yes	n/a	9.03057757644394	n/a	n/a	584.0	TrialHappiness	Mixed
67.703	0.289	n/a	1218.008	58.0	3	-1.0	-1.0	15.0112	955.0	0.52	Certain	3.1	-5.93	3.04575	Yes	n/a	9.03057757644394	n/a	n/a	584.0	TrialHappinessSliderResponse	Mixed
71.714	4.183	4.012	1220.429	58.0	3	-1.0	-1.0	15.0112	955.0	0.52	Certain	3.1	-5.93	3.04575	Yes	n/a	9.03057757644394	n/a	n/a	n/a	ISIRate	Mixed
75.927	3.0	0.03	1224.642	59.0	3	11.3	1.5	16.4237	955.0	2.48	Outcome1	11.3	2.99	0.0	No	2.0	8.30917327293318	0.926	76.853	n/a	GetAnswer	Loss
76.88	4.0	0.027	1225.595	59.0	3	11.3	1.5	16.4237	955.0	2.48	Outcome1	11.3	2.99	0.0	No	n/a	8.30917327293318	n/a	n/a	n/a	ShowChoice	Loss
80.892	1.0	0.012	1229.607	59.0	3	11.3	1.5	16.4237	955.0	2.48	Outcome1	11.3	2.99	0.0	No	n/a	8.30917327293318	n/a	n/a	n/a	ShowResult	Loss
81.912	5.064	0.02	1230.627	59.0	3	11.3	1.5	16.4237	955.0	2.48	Outcome1	11.3	2.99	0.0	No	n/a	8.30917327293318	n/a	n/a	n/a	ISITrial	Loss
86.993	3.0	0.017	1235.708	60.0	3	-5.0	-5.0	15.7987	955.0	0.82	Certain	-0.5	-9.23	3.5625	Yes	4.0	8.72933182332956	2.231	89.224	n/a	GetAnswer	Mixed
89.25	4.0	0.026	1237.965	60.0	3	-5.0	-5.0	15.7987	955.0	0.82	Certain	-0.5	-9.23	3.5625	Yes	n/a	8.72933182332956	n/a	n/a	n/a	ShowChoice	Mixed
93.262	1.0	0.012	1241.977	60.0	3	-5.0	-5.0	15.7987	955.0	0.82	Certain	-0.5	-9.23	3.5625	Yes	n/a	8.72933182332956	n/a	n/a	n/a	ShowResult	Mixed
94.282	8.0	0.02	1242.997	60.0	3	-5.0	-5.0	15.7987	955.0	0.82	Certain	-0.5	-9.23	3.5625	Yes	n/a	8.72933182332956	n/a	n/a	n/a	ISITrial	Mixed
102.306	3.562	0.024	1251.021	60.0	3	-5.0	-5.0	15.7987	955.0	0.82	Certain	-0.5	-9.23	3.5625	Yes	n/a	8.72933182332956	n/a	n/a	n/a	TrialHappPreview	Mixed
105.883	4.012	0.015	1254.598	60.0	3	-5.0	-5.0	15.7987	955.0	0.82	Certain	-0.5	-9.23	3.5625	Yes	n/a	8.72933182332956	n/a	n/a	512.0	TrialHappiness	Mixed
105.884	0.0	n/a	1254.599	60.0	3	-5.0	-5.0	15.7987	955.0	0.82	Certain	-0.5	-9.23	3.5625	Yes	n/a	8.72933182332956	n/a	n/a	512.0	TrialHappinessSliderResponse	Mixed
109.895	6.25	4.012	1258.61	60.0	3	-5.0	-5.0	15.7987	955.0	0.82	Certain	-0.5	-9.23	3.5625	Yes	n/a	8.72933182332956	n/a	n/a	n/a	ISIRate	Mixed
116.164	3.0	0.019	1264.879	61.0	3	6.5	1.0	16.6112	955.0	1.68	Outcome1	6.5	-3.87	0.0	No	2.0	10.3725934314836	1.891	118.055	n/a	GetAnswer	Gain
118.07	4.0	0.015	1266.785	61.0	3	6.5	1.0	16.6112	955.0	1.68	Outcome1	6.5	-3.87	0.0	No	n/a	10.3725934314836	n/a	n/a	n/a	ShowChoice	Gain
122.082	1.0	0.012	1270.797	61.0	3	6.5	1.0	16.6112	955.0	1.68	Outcome1	6.5	-3.87	0.0	No	n/a	10.3725934314836	n/a	n/a	n/a	ShowResult	Gain
123.101	4.586	0.019	1271.816	61.0	3	6.5	1.0	16.6112	955.0	1.68	Outcome1	6.5	-3.87	0.0	No	n/a	10.3725934314836	n/a	n/a	n/a	ISITrial	Gain
127.715	3.0	0.028	1276.43	62.0	3	10.3	-0.28	17.8987	955.0	5.0	Outcome2	-0.57	10.3	3.74875	Yes	2.0	10.8742921857305	2.131	129.846	n/a	GetAnswer	Gain
129.872	4.0	0.026	1278.587	62.0	3	10.3	-0.28	17.8987	955.0	5.0	Outcome2	-0.57	10.3	3.74875	Yes	n/a	10.8742921857305	n/a	n/a	n/a	ShowChoice	Gain
133.884	1.0	0.012	1282.599	62.0	3	10.3	-0.28	17.8987	955.0	5.0	Outcome2	-0.57	10.3	3.74875	Yes	n/a	10.8742921857305	n/a	n/a	n/a	ShowResult	Gain
134.903	5.212	0.019	1283.618	62.0	3	10.3	-0.28	17.8987	955.0	5.0	Outcome2	-0.57	10.3	3.74875	Yes	n/a	10.8742921857305	n/a	n/a	n/a	ISITrial	Gain
140.136	3.749	0.021	1288.851	62.0	3	10.3	-0.28	17.8987	955.0	5.0	Outcome2	-0.57	10.3	3.74875	Yes	n/a	10.8742921857305	n/a	n/a	n/a	TrialHappPreview	Gain
143.914	4.012	0.029	1292.629	62.0	3	10.3	-0.28	17.8987	955.0	5.0	Outcome2	-0.57	10.3	3.74875	Yes	n/a	10.8742921857305	n/a	n/a	512.0	TrialHappiness	Gain
143.914	0.0	n/a	1292.629	62.0	3	10.3	-0.28	17.8987	955.0	5.0	Outcome2	-0.57	10.3	3.74875	Yes	n/a	10.8742921857305	n/a	n/a	512.0	TrialHappinessSliderResponse	Gain
147.926	6.995	4.012	1296.641	62.0	3	10.3	-0.28	17.8987	955.0	5.0	Outcome2	-0.57	10.3	3.74875	Yes	n/a	10.8742921857305	n/a	n/a	n/a	ISIRate	Gain
154.947	3.0	0.026	1303.662	63.0	3	11.9	0.26	19.3862	955.0	3.6	Outcome1	11.9	0.52	0.0	No	2.0	11.3759909399773	1.07	156.017	n/a	GetAnswer	Loss
156.033	4.0	0.016	1304.748	63.0	3	11.9	0.26	19.3862	955.0	3.6	Outcome1	11.9	0.52	0.0	No	n/a	11.3759909399773	n/a	n/a	n/a	ShowChoice	Loss
160.045	1.0	0.012	1308.76	63.0	3	11.9	0.26	19.3862	955.0	3.6	Outcome1	11.9	0.52	0.0	No	n/a	11.3759909399773	n/a	n/a	n/a	ShowResult	Loss
161.065	5.595	0.02	1309.78	63.0	3	11.9	0.26	19.3862	955.0	3.6	Outcome1	11.9	0.52	0.0	No	n/a	11.3759909399773	n/a	n/a	n/a	ISITrial	Loss
166.682	3.0	0.022	1315.397	64.0	3	2.0	2.0	19.6362	955.0	5.0	Certain	-3.58	8.3	0.0	No	4.0	11.8776896942242	2.195	168.877	n/a	GetAnswer	Gain
168.889	4.0	0.012	1317.604	64.0	3	2.0	2.0	19.6362	955.0	5.0	Certain	-3.58	8.3	0.0	No	n/a	11.8776896942242	n/a	n/a	n/a	ShowChoice	Gain
172.917	1.0	0.028	1321.632	64.0	3	2.0	2.0	19.6362	955.0	5.0	Certain	-3.58	8.3	0.0	No	n/a	11.8776896942242	n/a	n/a	n/a	ShowResult	Gain
173.937	5.47	0.02	1322.652	64.0	3	2.0	2.0	19.6362	955.0	5.0	Certain	-3.58	8.3	0.0	No	n/a	11.8776896942242	n/a	n/a	n/a	ISITrial	Gain
179.437	3.0	0.03	1328.152	65.0	3	-6.0	-6.0	18.8862	955.0	1.5	Certain	0.1	-12.28	2.99675	Yes	4.0	12.3793884484711	1.523	180.96	n/a	GetAnswer	Mixed
180.975	4.0	0.015	1329.69	65.0	3	-6.0	-6.0	18.8862	955.0	1.5	Certain	0.1	-12.28	2.99675	Yes	n/a	12.3793884484711	n/a	n/a	n/a	ShowChoice	Mixed
184.987	1.0	0.012	1333.702	65.0	3	-6.0	-6.0	18.8862	955.0	1.5	Certain	0.1	-12.28	2.99675	Yes	n/a	12.3793884484711	n/a	n/a	n/a	ShowResult	Mixed
186.006	3.344	0.019	1334.721	65.0	3	-6.0	-6.0	18.8862	955.0	1.5	Certain	0.1	-12.28	2.99675	Yes	n/a	12.3793884484711	n/a	n/a	n/a	ISITrial	Mixed
189.367	2.997	0.017	1338.082	65.0	3	-6.0	-6.0	18.8862	955.0	1.5	Certain	0.1	-12.28	2.99675	Yes	n/a	12.3793884484711	n/a	n/a	n/a	TrialHappPreview	Mixed
192.392	4.012	0.028	1341.107	65.0	3	-6.0	-6.0	18.8862	955.0	1.5	Certain	0.1	-12.28	2.99675	Yes	n/a	12.3793884484711	n/a	n/a	512.0	TrialHappiness	Mixed
192.393	0.0	n/a	1341.108	65.0	3	-6.0	-6.0	18.8862	955.0	1.5	Certain	0.1	-12.28	2.99675	Yes	n/a	12.3793884484711	n/a	n/a	512.0	TrialHappinessSliderResponse	Mixed
196.404	3.987	4.012	1345.119	65.0	3	-6.0	-6.0	18.8862	955.0	1.5	Certain	0.1	-12.28	2.99675	Yes	n/a	12.3793884484711	n/a	n/a	n/a	ISIRate	Mixed
200.416	3.0	0.025	1349.131	66.0	3	5.06	2.53	19.5187	955.0	2.48	Outcome2	7.3	5.06	0.0	No	2.0	-2.2440543601359	1.058	201.474	n/a	GetAnswer	Gain
201.486	4.0	0.012	1350.201	66.0	3	5.06	2.53	19.5187	955.0	2.48	Outcome2	7.3	5.06	0.0	No	n/a	-2.2440543601359	n/a	n/a	n/a	ShowChoice	Gain
205.498	1.0	0.012	1354.213	66.0	3	5.06	2.53	19.5187	955.0	2.48	Outcome2	7.3	5.06	0.0	No	n/a	-2.2440543601359	n/a	n/a	n/a	ShowResult	Gain
206.518	3.959	0.02	1355.233	66.0	3	5.06	2.53	19.5187	955.0	2.48	Outcome2	7.3	5.06	0.0	No	n/a	-2.2440543601359	n/a	n/a	n/a	ISITrial	Gain
210.496	3.0	0.019	1359.211	67.0	3	0.0	0.0	19.5187	955.0	1.82	Certain	-6.68	6.7	2.9185	Yes	4.0	13.3827859569649	2.103	212.599	n/a	GetAnswer	Gain
212.619	4.0	0.02	1361.334	67.0	3	0.0	0.0	19.5187	955.0	1.82	Certain	-6.68	6.7	2.9185	Yes	n/a	13.3827859569649	n/a	n/a	n/a	ShowChoice	Gain
216.631	1.0	0.012	1365.346	67.0	3	0.0	0.0	19.5187	955.0	1.82	Certain	-6.68	6.7	2.9185	Yes	n/a	13.3827859569649	n/a	n/a	n/a	ShowResult	Gain
217.651	4.199	0.02	1366.366	67.0	3	0.0	0.0	19.5187	955.0	1.82	Certain	-6.68	6.7	2.9185	Yes	n/a	13.3827859569649	n/a	n/a	n/a	ISITrial	Gain
221.864	2.918	0.014	1370.579	67.0	3	0.0	0.0	19.5187	955.0	1.82	Certain	-6.68	6.7	2.9185	Yes	n/a	13.3827859569649	n/a	n/a	n/a	TrialHappPreview	Gain
224.806	4.012	0.024	1373.521	67.0	3	0.0	0.0	19.5187	955.0	1.82	Certain	-6.68	6.7	2.9185	Yes	n/a	13.3827859569649	n/a	n/a	512.0	TrialHappiness	Gain
224.807	0.0	n/a	1373.522	67.0	3	0.0	0.0	19.5187	955.0	1.82	Certain	-6.68	6.7	2.9185	Yes	n/a	13.3827859569649	n/a	n/a	512.0	TrialHappinessSliderResponse	Gain
228.818	3.674	4.012	1377.533	67.0	3	0.0	0.0	19.5187	955.0	1.82	Certain	-6.68	6.7	2.9185	Yes	n/a	13.3827859569649	n/a	n/a	n/a	ISIRate	Gain
232.512	3.0	0.02	1381.227	68.0	3	-3.0	-3.0	19.1437	955.0	1.2	Certain	3.9	-9.98	0.0	No	4.0	13.8844847112118	2.459	234.971	n/a	GetAnswer	Mixed
234.986	4.0	0.015	1383.701	68.0	3	-3.0	-3.0	19.1437	955.0	1.2	Certain	3.9	-9.98	0.0	No	n/a	13.8844847112118	n/a	n/a	n/a	ShowChoice	Mixed
238.998	1.0	0.012	1387.713	68.0	3	-3.0	-3.0	19.1437	955.0	1.2	Certain	3.9	-9.98	0.0	No	n/a	13.8844847112118	n/a	n/a	n/a	ShowResult	Mixed
240.018	2.185	0.02	1388.733	68.0	3	-3.0	-3.0	19.1437	955.0	1.2	Certain	3.9	-9.98	0.0	No	n/a	13.8844847112118	n/a	n/a	n/a	ISITrial	Mixed
242.225	3.0	0.022	1390.94	69.0	3	-3.0	-3.0	18.7687	955.0	1.0	Certain	3.7	-10.69	0.0	No	4.0	14.386183465458698	1.502	243.727	n/a	GetAnswer	Mixed
243.746	4.0	0.018	1392.461	69.0	3	-3.0	-3.0	18.7687	955.0	1.0	Certain	3.7	-10.69	0.0	No	n/a	14.386183465458698	n/a	n/a	n/a	ShowChoice	Mixed
247.758	1.0	0.012	1396.473	69.0	3	-3.0	-3.0	18.7687	955.0	1.0	Certain	3.7	-10.69	0.0	No	n/a	14.386183465458698	n/a	n/a	n/a	ShowResult	Mixed
248.778	2.0	0.02	1397.493	69.0	3	-3.0	-3.0	18.7687	955.0	1.0	Certain	3.7	-10.69	0.0	No	n/a	14.386183465458698	n/a	n/a	n/a	ISITrial	Mixed
250.8	3.0	0.022	1399.515	70.0	3	2.0	2.0	19.0187	955.0	2.8	Certain	9.5	-5.39	3.65125	Yes	4.0	14.8878822197055	1.625	252.425	n/a	GetAnswer	Gain
252.439	4.0	0.014	1401.154	70.0	3	2.0	2.0	19.0187	955.0	2.8	Certain	9.5	-5.39	3.65125	Yes	n/a	14.8878822197055	n/a	n/a	n/a	ShowChoice	Gain
256.451	1.0	0.012	1405.166	70.0	3	2.0	2.0	19.0187	955.0	2.8	Certain	9.5	-5.39	3.65125	Yes	n/a	14.8878822197055	n/a	n/a	n/a	ShowResult	Gain
257.47	2.623	0.019	1406.185	70.0	3	2.0	2.0	19.0187	955.0	2.8	Certain	9.5	-5.39	3.65125	Yes	n/a	14.8878822197055	n/a	n/a	n/a	ISITrial	Gain
260.112	3.651	0.019	1408.827	70.0	3	2.0	2.0	19.0187	955.0	2.8	Certain	9.5	-5.39	3.65125	Yes	n/a	14.8878822197055	n/a	n/a	n/a	TrialHappPreview	Gain
263.789	4.012	0.026	1412.504	70.0	3	2.0	2.0	19.0187	955.0	2.8	Certain	9.5	-5.39	3.65125	Yes	n/a	14.8878822197055	n/a	n/a	512.0	TrialHappiness	Gain
263.79	0.0	n/a	1412.505	70.0	3	2.0	2.0	19.0187	955.0	2.8	Certain	9.5	-5.39	3.65125	Yes	n/a	14.8878822197055	n/a	n/a	512.0	TrialHappinessSliderResponse	Gain
267.801	6.605	4.012	1416.516	70.0	3	2.0	2.0	19.0187	955.0	2.8	Certain	9.5	-5.39	3.65125	Yes	n/a	14.8878822197055	n/a	n/a	n/a	ISIRate	Gain
274.438	3.0	0.032	1423.153	71.0	3	-7.0	-7.0	18.1437	955.0	2.0	Certain	-15.09	0.3	0.0	No	4.0	15.3895809739524	1.816	276.254	n/a	GetAnswer	Mixed
276.277	4.0	0.023	1424.992	71.0	3	-7.0	-7.0	18.1437	955.0	2.0	Certain	-15.09	0.3	0.0	No	n/a	15.3895809739524	n/a	n/a	n/a	ShowChoice	Mixed
280.289	1.0	0.012	1429.004	71.0	3	-7.0	-7.0	18.1437	955.0	2.0	Certain	-15.09	0.3	0.0	No	n/a	15.3895809739524	n/a	n/a	n/a	ShowResult	Mixed
281.308	5.499	0.019	1430.023	71.0	3	-7.0	-7.0	18.1437	955.0	2.0	Certain	-15.09	0.3	0.0	No	n/a	15.3895809739524	n/a	n/a	n/a	ISITrial	Mixed
286.825	3.0	0.018	1435.54	72.0	3	11.7	-2.1	19.6062	955.0	3.16	Outcome1	11.7	-4.19	3.0805	Yes	2.0	15.8912797281993	1.438	288.263	n/a	GetAnswer	Loss
288.279	4.0	0.016	1436.994	72.0	3	11.7	-2.1	19.6062	955.0	3.16	Outcome1	11.7	-4.19	3.0805	Yes	n/a	15.8912797281993	n/a	n/a	n/a	ShowChoice	Loss
292.291	1.0	0.012	1441.006	72.0	3	11.7	-2.1	19.6062	955.0	3.16	Outcome1	11.7	-4.19	3.0805	Yes	n/a	15.8912797281993	n/a	n/a	n/a	ShowResult	Loss
293.311	5.672	0.02	1442.026	72.0	3	11.7	-2.1	19.6062	955.0	3.16	Outcome1	11.7	-4.19	3.0805	Yes	n/a	15.8912797281993	n/a	n/a	n/a	ISITrial	Loss
298.995	3.08	0.012	1447.71	72.0	3	11.7	-2.1	19.6062	955.0	3.16	Outcome1	11.7	-4.19	3.0805	Yes	n/a	15.8912797281993	n/a	n/a	n/a	TrialHappPreview	Loss
302.104	4.012	0.029	1450.819	72.0	3	11.7	-2.1	19.6062	955.0	3.16	Outcome1	11.7	-4.19	3.0805	Yes	n/a	15.8912797281993	n/a	n/a	512.0	TrialHappiness	Loss
302.105	0.0	n/a	1450.82	72.0	3	11.7	-2.1	19.6062	955.0	3.16	Outcome1	11.7	-4.19	3.0805	Yes	n/a	15.8912797281993	n/a	n/a	512.0	TrialHappinessSliderResponse	Loss
306.116	4.322	4.012	1454.831	72.0	3	11.7	-2.1	19.6062	955.0	3.16	Outcome1	11.7	-4.19	3.0805	Yes	n/a	15.8912797281993	n/a	n/a	n/a	ISIRate	Loss
310.462	3.0	0.024	1459.177	73.0	3	-3.0	-3.0	19.2312	955.0	1.82	Certain	4.7	-11.69	0.0	No	4.0	16.3929784824462	1.392	311.854	n/a	GetAnswer	Gain
311.867	4.0	0.013	1460.582	73.0	3	-3.0	-3.0	19.2312	955.0	1.82	Certain	4.7	-11.69	0.0	No	n/a	16.3929784824462	n/a	n/a	n/a	ShowChoice	Gain
315.879	1.0	0.012	1464.594	73.0	3	-3.0	-3.0	19.2312	955.0	1.82	Certain	4.7	-11.69	0.0	No	n/a	16.3929784824462	n/a	n/a	n/a	ShowResult	Gain
316.898	4.616	0.019	1465.613	73.0	3	-3.0	-3.0	19.2312	955.0	1.82	Certain	4.7	-11.69	0.0	No	n/a	16.3929784824462	n/a	n/a	n/a	ISITrial	Gain
321.545	3.0	0.031	1470.26	74.0	3	-0.48	1.0	19.1712	955.0	1.5	Outcome1	-0.48	2.1	3.05625	Yes	2.0	-2.5785201963004902	1.43	322.975	n/a	GetAnswer	Mixed
323.0	4.0	0.025	1471.715	74.0	3	-0.48	1.0	19.1712	955.0	1.5	Outcome1	-0.48	2.1	3.05625	Yes	n/a	-2.5785201963004902	n/a	n/a	n/a	ShowChoice	Mixed
327.012	1.0	0.012	1475.727	74.0	3	-0.48	1.0	19.1712	955.0	1.5	Outcome1	-0.48	2.1	3.05625	Yes	n/a	-2.5785201963004902	n/a	n/a	n/a	ShowResult	Mixed
328.032	3.909	0.02	1476.747	74.0	3	-0.48	1.0	19.1712	955.0	1.5	Outcome1	-0.48	2.1	3.05625	Yes	n/a	-2.5785201963004902	n/a	n/a	n/a	ISITrial	Mixed
331.96	3.056	0.019	1480.675	74.0	3	-0.48	1.0	19.1712	955.0	1.5	Outcome1	-0.48	2.1	3.05625	Yes	n/a	-2.5785201963004902	n/a	n/a	n/a	TrialHappPreview	Mixed
335.036	4.012	0.02	1483.751	74.0	3	-0.48	1.0	19.1712	955.0	1.5	Outcome1	-0.48	2.1	3.05625	Yes	n/a	-2.5785201963004902	n/a	n/a	512.0	TrialHappiness	Mixed
335.036	0.0	n/a	1483.751	74.0	3	-0.48	1.0	19.1712	955.0	1.5	Outcome1	-0.48	2.1	3.05625	Yes	n/a	-2.5785201963004902	n/a	n/a	512.0	TrialHappinessSliderResponse	Mixed
339.048	4.225	4.012	1487.763	74.0	3	-0.48	1.0	19.1712	955.0	1.5	Outcome1	-0.48	2.1	3.05625	Yes	n/a	-2.5785201963004902	n/a	n/a	n/a	ISIRate	Mixed
343.294	3.0	0.021	1492.009	75.0	3	-10.0	-10.0	17.9212	955.0	0.3	Certain	-18.7	-1.3	0.0	No	4.0	17.396375990939998	2.84	346.134	n/a	GetAnswer	Mixed
346.152	4.0	0.018	1494.867	75.0	3	-10.0	-10.0	17.9212	955.0	0.3	Certain	-18.7	-1.3	0.0	No	n/a	17.396375990939998	n/a	n/a	n/a	ShowChoice	Mixed
350.164	1.0	0.012	1498.879	75.0	3	-10.0	-10.0	17.9212	955.0	0.3	Certain	-18.7	-1.3	0.0	No	n/a	17.396375990939998	n/a	n/a	n/a	ShowResult	Mixed
351.184	4.979	0.02	1499.899	75.0	3	-10.0	-10.0	17.9212	955.0	0.3	Certain	-18.7	-1.3	0.0	No	n/a	17.396375990939998	n/a	n/a	n/a	ISITrial	Mixed
356.183	3.0	0.02	1504.898	76.0	3	-2.0	-2.0	17.6712	955.0	2.22	Certain	-10.8	7.1	0.0	No	4.0	17.8980747451869	2.23	358.413	n/a	GetAnswer	Gain
358.439	4.0	0.026	1507.154	76.0	3	-2.0	-2.0	17.6712	955.0	2.22	Certain	-10.8	7.1	0.0	No	n/a	17.8980747451869	n/a	n/a	n/a	ShowChoice	Gain
362.451	1.0	0.012	1511.166	76.0	3	-2.0	-2.0	17.6712	955.0	2.22	Certain	-10.8	7.1	0.0	No	n/a	17.8980747451869	n/a	n/a	n/a	ShowResult	Gain
363.471	3.931	0.02	1512.186	76.0	3	-2.0	-2.0	17.6712	955.0	2.22	Certain	-10.8	7.1	0.0	No	n/a	17.8980747451869	n/a	n/a	n/a	ISITrial	Gain
367.433	3.0	0.031	1516.148	77.0	3	-1.0	-1.0	17.5462	955.0	1.2	Certain	-2.8	-0.1	4.0	Yes	4.0	-2.70394488486221	1.653	369.086	n/a	GetAnswer	Mixed
369.105	4.0	0.019	1517.82	77.0	3	-1.0	-1.0	17.5462	955.0	1.2	Certain	-2.8	-0.1	4.0	Yes	n/a	-2.70394488486221	n/a	n/a	n/a	ShowChoice	Mixed
373.117	1.0	0.012	1521.832	77.0	3	-1.0	-1.0	17.5462	955.0	1.2	Certain	-2.8	-0.1	4.0	Yes	n/a	-2.70394488486221	n/a	n/a	n/a	ShowResult	Mixed
374.136	7.022	0.019	1522.851	77.0	3	-1.0	-1.0	17.5462	955.0	1.2	Certain	-2.8	-0.1	4.0	Yes	n/a	-2.70394488486221	n/a	n/a	n/a	ISITrial	Mixed
381.174	4.0	0.016	1529.889	77.0	3	-1.0	-1.0	17.5462	955.0	1.2	Certain	-2.8	-0.1	4.0	Yes	n/a	-2.70394488486221	n/a	n/a	n/a	TrialHappPreview	Mixed
385.203	4.012	0.029	1533.918	77.0	3	-1.0	-1.0	17.5462	955.0	1.2	Certain	-2.8	-0.1	4.0	Yes	n/a	-2.70394488486221	n/a	n/a	492.0	TrialHappiness	Mixed
385.203	0.149	n/a	1534.901	77.0	3	-1.0	-1.0	17.5462	955.0	1.2	Certain	-2.8	-0.1	4.0	Yes	n/a	-2.70394488486221	n/a	n/a	492.0	TrialHappinessSliderResponse	Mixed
389.215	8.0	4.012	1537.93	77.0	3	-1.0	-1.0	17.5462	955.0	1.2	Certain	-2.8	-0.1	4.0	Yes	n/a	-2.70394488486221	n/a	n/a	n/a	ISIRate	Mixed
397.239	3.0	0.024	1545.954	78.0	3	-7.0	-7.0	16.6712	955.0	0.2	Certain	-16.74	2.5	0.0	No	4.0	19.2412231030578	1.472	398.711	n/a	GetAnswer	Mixed
398.727	4.0	0.016	1547.442	78.0	3	-7.0	-7.0	16.6712	955.0	0.2	Certain	-16.74	2.5	0.0	No	n/a	19.2412231030578	n/a	n/a	n/a	ShowChoice	Mixed
402.739	1.0	0.012	1551.454	78.0	3	-7.0	-7.0	16.6712	955.0	0.2	Certain	-16.74	2.5	0.0	No	n/a	19.2412231030578	n/a	n/a	n/a	ShowResult	Mixed
403.758	2.078	0.019	1552.473	78.0	3	-7.0	-7.0	16.6712	955.0	0.2	Certain	-16.74	2.5	0.0	No	n/a	19.2412231030578	n/a	n/a	n/a	ISITrial	Mixed
405.865	3.0	0.029	1554.58	79.0	3	-4.0	-4.0	16.1712	955.0	4.2	Certain	-13.67	6.1	2.7295	Yes	4.0	19.7655719139298	2.104	407.969	n/a	GetAnswer	Gain
407.988	4.0	0.019	1556.703	79.0	3	-4.0	-4.0	16.1712	955.0	4.2	Certain	-13.67	6.1	2.7295	Yes	n/a	19.7655719139298	n/a	n/a	n/a	ShowChoice	Gain
412.0	1.0	0.012	1560.715	79.0	3	-4.0	-4.0	16.1712	955.0	4.2	Certain	-13.67	6.1	2.7295	Yes	n/a	19.7655719139298	n/a	n/a	n/a	ShowResult	Gain
413.019	3.829	0.019	1561.734	79.0	3	-4.0	-4.0	16.1712	955.0	4.2	Certain	-13.67	6.1	2.7295	Yes	n/a	19.7655719139298	n/a	n/a	n/a	ISITrial	Gain
416.864	2.73	0.016	1565.579	79.0	3	-4.0	-4.0	16.1712	955.0	4.2	Certain	-13.67	6.1	2.7295	Yes	n/a	19.7655719139298	n/a	n/a	n/a	TrialHappPreview	Gain
419.622	4.012	0.028	1568.337	79.0	3	-4.0	-4.0	16.1712	955.0	4.2	Certain	-13.67	6.1	2.7295	Yes	n/a	19.7655719139298	n/a	n/a	512.0	TrialHappiness	Gain
419.623	0.0	n/a	1568.338	79.0	3	-4.0	-4.0	16.1712	955.0	4.2	Certain	-13.67	6.1	2.7295	Yes	n/a	19.7655719139298	n/a	n/a	512.0	TrialHappinessSliderResponse	Gain
423.634	2.918	4.012	1572.349	79.0	3	-4.0	-4.0	16.1712	955.0	4.2	Certain	-13.67	6.1	2.7295	Yes	n/a	19.7655719139298	n/a	n/a	n/a	ISIRate	Gain
426.577	3.0	0.025	1575.292	80.0	3	-11.0	-11.0	14.7962	955.0	0.52	Certain	-20.85	-0.9	0.0	No	4.0	19.9501698754247	1.355	427.932	n/a	GetAnswer	Mixed
427.947	4.0	0.015	1576.662	80.0	3	-11.0	-11.0	14.7962	955.0	0.52	Certain	-20.85	-0.9	0.0	No	n/a	19.9501698754247	n/a	n/a	n/a	ShowChoice	Mixed
431.959	1.0	0.012	1580.674	80.0	3	-11.0	-11.0	14.7962	955.0	0.52	Certain	-20.85	-0.9	0.0	No	n/a	19.9501698754247	n/a	n/a	n/a	ShowResult	Mixed
432.979	3.336	0.02	1581.694	80.0	3	-11.0	-11.0	14.7962	955.0	0.52	Certain	-20.85	-0.9	0.0	No	n/a	19.9501698754247	n/a	n/a	n/a	ISITrial	Mixed
436.339	3.0	0.024	1585.054	81.0	3	-5.0	-5.0	14.1712	955.0	1.82	Certain	4.7	-15.75	3.92375	Yes	4.0	20.4518686296716	1.902	438.241	n/a	GetAnswer	Gain
438.262	4.0	0.021	1586.977	81.0	3	-5.0	-5.0	14.1712	955.0	1.82	Certain	4.7	-15.75	3.92375	Yes	n/a	20.4518686296716	n/a	n/a	n/a	ShowChoice	Gain
442.274	1.0	0.012	1590.989	81.0	3	-5.0	-5.0	14.1712	955.0	1.82	Certain	4.7	-15.75	3.92375	Yes	n/a	20.4518686296716	n/a	n/a	n/a	ShowResult	Gain
443.293	3.919	0.019	1592.008	81.0	3	-5.0	-5.0	14.1712	955.0	1.82	Certain	4.7	-15.75	3.92375	Yes	n/a	20.4518686296716	n/a	n/a	n/a	ISITrial	Gain
447.238	3.924	0.026	1595.953	81.0	3	-5.0	-5.0	14.1712	955.0	1.82	Certain	4.7	-15.75	3.92375	Yes	n/a	20.4518686296716	n/a	n/a	n/a	TrialHappPreview	Gain
451.184	4.012	0.022	1599.899	81.0	3	-5.0	-5.0	14.1712	955.0	1.82	Certain	4.7	-15.75	3.92375	Yes	n/a	20.4518686296716	n/a	n/a	512.0	TrialHappiness	Gain
451.184	0.0	n/a	1599.899	81.0	3	-5.0	-5.0	14.1712	955.0	1.82	Certain	4.7	-15.75	3.92375	Yes	n/a	20.4518686296716	n/a	n/a	512.0	TrialHappinessSliderResponse	Gain
455.196	7.695	4.012	1603.911	81.0	3	-5.0	-5.0	14.1712	955.0	1.82	Certain	4.7	-15.75	3.92375	Yes	n/a	20.4518686296716	n/a	n/a	n/a	ISIRate	Gain
462.919	3.0	0.028	1611.634	n/a	3	n/a	n/a	n/a	n/a	n/a	n/a	n/a	n/a	n/a	n/a	n/a	n/a	n/a	n/a	n/a	CurrentEarnings	n/a
465.944	-0.001	0.025	1614.659	n/a	3	n/a	n/a	n/a	n/a	n/a	n/a	n/a	n/a	n/a	n/a	{SPACE}	n/a	12.54	478.484	n/a	Goodbye	n/a
