onset	duration	onset_delay	onset_unadjusted	trial_number	block	amount_change	certain_amount	current_amount	mood_target	multiplier	outcome	outcome1_amount	outcome2_amount	question_duration	rating	response	rpe	rt	rt_time	slider_response	trial_phase	trial_type
-63.456	-0.001	0.039	17.136	n/a	0	n/a	n/a	n/a	n/a	n/a	n/a	n/a	n/a	n/a	n/a	{SPACE}	n/a	3.719	-59.737	n/a	Welcome	n/a
-59.712	5.0	0.025	20.88	n/a	0	n/a	n/a	n/a	n/a	n/a	n/a	n/a	n/a	n/a	n/a	n/a	n/a	n/a	n/a	n/a	LifeHappyPreview	n/a
-54.68	3.92	0.032	25.912	n/a	0	n/a	n/a	n/a	n/a	n/a	n/a	n/a	n/a	n/a	n/a	n/a	n/a	n/a	n/a	840.0	LifeHappiness	n/a
-54.679	3.279	n/a	26.554	n/a	0	n/a	n/a	n/a	n/a	n/a	n/a	n/a	n/a	n/a	n/a	n/a	n/a	n/a	n/a	840.0	LifeHappinessSliderResponse	n/a
-39.869	4.0	0.028	40.723	n/a	0	n/a	n/a	n/a	n/a	n/a	n/a	n/a	n/a	n/a	n/a	n/a	n/a	n/a	n/a	n/a	BlockHappyPreview	n/a
-35.857	0.0	0.012	44.735	n/a	0	n/a	n/a	n/a	n/a	n/a	n/a	n/a	n/a	n/a	n/a	n/a	n/a	n/a	n/a	512.0	BlockStartHappiness	n/a
-35.856	0.0	n/a	44.736	n/a	0	n/a	n/a	n/a	n/a	n/a	n/a	n/a	n/a	n/a	n/a	n/a	n/a	n/a	n/a	512.0	BlockStartHappinessSliderResponse	n/a
-2.691	-0.001	0.023	77.901	n/a	0	n/a	n/a	n/a	n/a	n/a	n/a	n/a	n/a	n/a	n/a	5.0	n/a	2.678	-0.013	n/a	ScanWait	n/a
0.0	10.0	0.013	80.592	n/a	1	n/a	n/a	n/a	n/a	n/a	n/a	n/a	n/a	n/a	n/a	n/a	n/a	n/a	n/a	n/a	GetReady	n/a
10.03	3.0	0.03	90.622	1.0	1	5.9	2.95	10.7375	955.0	3.16	Outcome2	7.7	5.9	0.0	No	2.0	-1.79775386938467	1.24	11.27	n/a	GetAnswer	Gain
11.301	4.0	0.031	91.893	1.0	1	5.9	2.95	10.7375	955.0	3.16	Outcome2	7.7	5.9	0.0	No	n/a	-1.79775386938467	n/a	n/a	n/a	ShowChoice	Gain
15.329	1.0	0.028	95.921	1.0	1	5.9	2.95	10.7375	955.0	3.16	Outcome2	7.7	5.9	0.0	No	n/a	-1.79775386938467	n/a	n/a	n/a	ShowResult	Gain
16.349	2.431	0.02	96.941	1.0	1	5.9	2.95	10.7375	955.0	3.16	Outcome2	7.7	5.9	0.0	No	n/a	-1.79775386938467	n/a	n/a	n/a	ISITrial	Gain
18.806	3.0	0.026	99.398	2.0	1	13.3	2.64	12.4	955.0	2.48	Outcome1	13.3	5.27	0.0	No	2.0	8.02718006795017	1.255	20.061	n/a	GetAnswer	Loss
20.077	4.0	0.016	100.669	2.0	1	13.3	2.64	12.4	955.0	2.48	Outcome1	13.3	5.27	0.0	No	n/a	8.02718006795017	n/a	n/a	n/a	ShowChoice	Loss
24.106	1.0	0.029	104.698	2.0	1	13.3	2.64	12.4	955.0	2.48	Outcome1	13.3	5.27	0.0	No	n/a	8.02718006795017	n/a	n/a	n/a	ShowResult	Loss
25.125	4.568	0.019	105.717	2.0	1	13.3	2.64	12.4	955.0	2.48	Outcome1	13.3	5.27	0.0	No	n/a	8.02718006795017	n/a	n/a	n/a	ISITrial	Loss
29.722	3.0	0.029	110.314	3.0	1	5.9	1.0	13.1375	955.0	3.6	Outcome2	-2.63	5.9	2.868	Yes	2.0	8.52887882219705	2.089	31.811	n/a	GetAnswer	Gain
31.829	4.0	0.018	112.421	3.0	1	5.9	1.0	13.1375	955.0	3.6	Outcome2	-2.63	5.9	2.868	Yes	n/a	8.52887882219705	n/a	n/a	n/a	ShowChoice	Gain
35.857	1.0	0.028	116.449	3.0	1	5.9	1.0	13.1375	955.0	3.6	Outcome2	-2.63	5.9	2.868	Yes	n/a	8.52887882219705	n/a	n/a	n/a	ShowResult	Gain
36.877	3.243	0.02	117.469	3.0	1	5.9	1.0	13.1375	955.0	3.6	Outcome2	-2.63	5.9	2.868	Yes	n/a	8.52887882219705	n/a	n/a	n/a	ISITrial	Gain
40.137	2.868	0.017	120.729	3.0	1	5.9	1.0	13.1375	955.0	3.6	Outcome2	-2.63	5.9	2.868	Yes	n/a	8.52887882219705	n/a	n/a	n/a	TrialHappPreview	Gain
43.029	4.029	0.024	123.621	3.0	1	5.9	1.0	13.1375	955.0	3.6	Outcome2	-2.63	5.9	2.868	Yes	n/a	8.52887882219705	n/a	n/a	624.0	TrialHappiness	Gain
43.029	2.088	n/a	124.064	3.0	1	5.9	1.0	13.1375	955.0	3.6	Outcome2	-2.63	5.9	2.868	Yes	n/a	8.52887882219705	n/a	n/a	624.0	TrialHappinessSliderResponse	Gain
47.058	3.472	4.029	127.65	3.0	1	5.9	1.0	13.1375	955.0	3.6	Outcome2	-2.63	5.9	2.868	Yes	n/a	8.52887882219705	n/a	n/a	n/a	ISIRate	Gain
50.551	3.0	0.021	131.143	4.0	1	11.7	2.28	14.6	955.0	3.16	Outcome2	4.57	11.7	0.0	No	2.0	7.127972819932049	1.304	51.855	n/a	GetAnswer	Loss
51.872	4.0	0.017	132.464	4.0	1	11.7	2.28	14.6	955.0	3.16	Outcome2	4.57	11.7	0.0	No	n/a	7.127972819932049	n/a	n/a	n/a	ShowChoice	Loss
55.901	1.0	0.029	136.493	4.0	1	11.7	2.28	14.6	955.0	3.16	Outcome2	4.57	11.7	0.0	No	n/a	7.127972819932049	n/a	n/a	n/a	ShowResult	Loss
56.92	2.011	0.019	137.512	4.0	1	11.7	2.28	14.6	955.0	3.16	Outcome2	4.57	11.7	0.0	No	n/a	7.127972819932049	n/a	n/a	n/a	ISITrial	Loss
58.96	3.0	0.029	139.552	5.0	1	-3.0	-3.0	14.225	955.0	2.0	Certain	0.3	-7.2	2.5825	Yes	4.0	7.50283125707814	2.038	60.998	n/a	GetAnswer	Mixed
61.016	4.0	0.018	141.608	5.0	1	-3.0	-3.0	14.225	955.0	2.0	Certain	0.3	-7.2	2.5825	Yes	n/a	7.50283125707814	n/a	n/a	n/a	ShowChoice	Mixed
65.045	1.0	0.029	145.637	5.0	1	-3.0	-3.0	14.225	955.0	2.0	Certain	0.3	-7.2	2.5825	Yes	n/a	7.50283125707814	n/a	n/a	n/a	ShowResult	Mixed
66.064	5.129	0.019	146.656	5.0	1	-3.0	-3.0	14.225	955.0	2.0	Certain	0.3	-7.2	2.5825	Yes	n/a	7.50283125707814	n/a	n/a	n/a	ISITrial	Mixed
71.213	2.582	0.02	151.805	5.0	1	-3.0	-3.0	14.225	955.0	2.0	Certain	0.3	-7.2	2.5825	Yes	n/a	7.50283125707814	n/a	n/a	n/a	TrialHappPreview	Mixed
73.821	4.029	0.026	154.413	5.0	1	-3.0	-3.0	14.225	955.0	2.0	Certain	0.3	-7.2	2.5825	Yes	n/a	7.50283125707814	n/a	n/a	552.0	TrialHappiness	Mixed
73.821	0.985	n/a	155.675	5.0	1	-3.0	-3.0	14.225	955.0	2.0	Certain	0.3	-7.2	2.5825	Yes	n/a	7.50283125707814	n/a	n/a	552.0	TrialHappinessSliderResponse	Mixed
77.85	2.33	4.029	158.442	5.0	1	-3.0	-3.0	14.225	955.0	2.0	Certain	0.3	-7.2	2.5825	Yes	n/a	7.50283125707814	n/a	n/a	n/a	ISIRate	Mixed
80.207	3.0	0.027	160.799	6.0	1	12.1	1.5	15.7375	955.0	4.2	Outcome1	12.1	3.0	0.0	No	2.0	9.10079275198188	0.963	81.17	n/a	GetAnswer	Loss
81.193	4.0	0.023	161.785	6.0	1	12.1	1.5	15.7375	955.0	4.2	Outcome1	12.1	3.0	0.0	No	n/a	9.10079275198188	n/a	n/a	n/a	ShowChoice	Loss
85.222	1.0	0.029	165.814	6.0	1	12.1	1.5	15.7375	955.0	4.2	Outcome1	12.1	3.0	0.0	No	n/a	9.10079275198188	n/a	n/a	n/a	ShowResult	Loss
86.241	6.232	0.019	166.833	6.0	1	12.1	1.5	15.7375	955.0	4.2	Outcome1	12.1	3.0	0.0	No	n/a	9.10079275198188	n/a	n/a	n/a	ISITrial	Loss
92.493	3.0	0.02	173.085	7.0	1	0.0	0.0	15.7375	955.0	0.4	Certain	-0.96	0.9	0.0	No	4.0	-1.86136277840695	2.051	94.544	n/a	GetAnswer	Mixed
94.566	4.0	0.021	175.158	7.0	1	0.0	0.0	15.7375	955.0	0.4	Certain	-0.96	0.9	0.0	No	n/a	-1.86136277840695	n/a	n/a	n/a	ShowChoice	Mixed
98.578	1.0	0.012	179.17	7.0	1	0.0	0.0	15.7375	955.0	0.4	Certain	-0.96	0.9	0.0	No	n/a	-1.86136277840695	n/a	n/a	n/a	ShowResult	Mixed
99.598	2.305	0.02	180.19	7.0	1	0.0	0.0	15.7375	955.0	0.4	Certain	-0.96	0.9	0.0	No	n/a	-1.86136277840695	n/a	n/a	n/a	ISITrial	Mixed
101.922	3.0	0.019	182.514	8.0	1	9.9	-0.06	16.975	955.0	3.6	Outcome2	-0.11	9.9	3.1125	Yes	2.0	10.0135900339751	1.816	103.738	n/a	GetAnswer	Gain
103.76	4.0	0.022	184.352	8.0	1	9.9	-0.06	16.975	955.0	3.6	Outcome2	-0.11	9.9	3.1125	Yes	n/a	10.0135900339751	n/a	n/a	n/a	ShowChoice	Gain
107.772	1.0	0.012	188.364	8.0	1	9.9	-0.06	16.975	955.0	3.6	Outcome2	-0.11	9.9	3.1125	Yes	n/a	10.0135900339751	n/a	n/a	n/a	ShowResult	Gain
108.792	3.506	0.02	189.384	8.0	1	9.9	-0.06	16.975	955.0	3.6	Outcome2	-0.11	9.9	3.1125	Yes	n/a	10.0135900339751	n/a	n/a	n/a	ISITrial	Gain
112.319	3.112	0.021	192.911	8.0	1	9.9	-0.06	16.975	955.0	3.6	Outcome2	-0.11	9.9	3.1125	Yes	n/a	10.0135900339751	n/a	n/a	n/a	TrialHappPreview	Gain
115.462	4.029	0.031	196.054	8.0	1	9.9	-0.06	16.975	955.0	3.6	Outcome2	-0.11	9.9	3.1125	Yes	n/a	10.0135900339751	n/a	n/a	672.0	TrialHappiness	Gain
115.463	2.195	n/a	196.441	8.0	1	9.9	-0.06	16.975	955.0	3.6	Outcome2	-0.11	9.9	3.1125	Yes	n/a	10.0135900339751	n/a	n/a	672.0	TrialHappinessSliderResponse	Gain
119.491	4.45	4.029	200.083	8.0	1	9.9	-0.06	16.975	955.0	3.6	Outcome2	-0.11	9.9	3.1125	Yes	n/a	10.0135900339751	n/a	n/a	n/a	ISIRate	Gain
123.971	3.0	0.03	204.563	9.0	1	0.0	0.0	16.975	955.0	2.0	Certain	4.3	-4.13	0.0	No	4.0	8.431483578708951	1.589	125.56	n/a	GetAnswer	Mixed
125.576	4.0	0.016	206.168	9.0	1	0.0	0.0	16.975	955.0	2.0	Certain	4.3	-4.13	0.0	No	n/a	8.431483578708951	n/a	n/a	n/a	ShowChoice	Mixed
129.604	1.0	0.028	210.196	9.0	1	0.0	0.0	16.975	955.0	2.0	Certain	4.3	-4.13	0.0	No	n/a	8.431483578708951	n/a	n/a	n/a	ShowResult	Mixed
130.624	2.0	0.02	211.216	9.0	1	0.0	0.0	16.975	955.0	2.0	Certain	4.3	-4.13	0.0	No	n/a	8.431483578708951	n/a	n/a	n/a	ISITrial	Mixed
132.647	3.0	0.023	213.239	10.0	1	2.3	-2.0	17.2625	955.0	2.0	Outcome1	2.3	-6.45	4.0	Yes	n/a	8.7519818799547	n/a	n/a	n/a	GetAnswer	Mixed
135.672	4.0	0.025	216.264	10.0	1	2.3	-2.0	17.2625	955.0	2.0	Outcome1	2.3	-6.45	4.0	Yes	n/a	8.7519818799547	n/a	n/a	n/a	ShowChoice	Mixed
139.684	1.0	0.012	220.276	10.0	1	2.3	-2.0	17.2625	955.0	2.0	Outcome1	2.3	-6.45	4.0	Yes	n/a	8.7519818799547	n/a	n/a	n/a	ShowResult	Mixed
140.704	2.0	0.02	221.296	10.0	1	2.3	-2.0	17.2625	955.0	2.0	Outcome1	2.3	-6.45	4.0	Yes	n/a	8.7519818799547	n/a	n/a	n/a	ISITrial	Mixed
142.727	4.0	0.023	223.319	10.0	1	2.3	-2.0	17.2625	955.0	2.0	Outcome1	2.3	-6.45	4.0	Yes	n/a	8.7519818799547	n/a	n/a	n/a	TrialHappPreview	Mixed
146.756	4.028	0.029	227.348	10.0	1	2.3	-2.0	17.2625	955.0	2.0	Outcome1	2.3	-6.45	4.0	Yes	n/a	8.7519818799547	n/a	n/a	672.0	TrialHappiness	Mixed
146.756	0.476	n/a	228.047	10.0	1	2.3	-2.0	17.2625	955.0	2.0	Outcome1	2.3	-6.45	4.0	Yes	n/a	8.7519818799547	n/a	n/a	672.0	TrialHappinessSliderResponse	Mixed
150.784	8.0	4.028	231.376	10.0	1	2.3	-2.0	17.2625	955.0	2.0	Outcome1	2.3	-6.45	4.0	Yes	n/a	8.7519818799547	n/a	n/a	n/a	ISIRate	Mixed
158.808	3.0	0.024	239.4	11.0	1	12.9	1.92	18.875	955.0	2.0	Outcome1	12.9	3.83	0.0	No	2.0	9.072480181200447	1.244	160.052	n/a	GetAnswer	Loss
160.079	4.0	0.027	240.671	11.0	1	12.9	1.92	18.875	955.0	2.0	Outcome1	12.9	3.83	0.0	No	n/a	9.072480181200447	n/a	n/a	n/a	ShowChoice	Loss
164.108	1.0	0.029	244.7	11.0	1	12.9	1.92	18.875	955.0	2.0	Outcome1	12.9	3.83	0.0	No	n/a	9.072480181200447	n/a	n/a	n/a	ShowResult	Loss
165.127	3.324	0.019	245.719	11.0	1	12.9	1.92	18.875	955.0	2.0	Outcome1	12.9	3.83	0.0	No	n/a	9.072480181200447	n/a	n/a	n/a	ISITrial	Loss
168.471	3.0	0.02	249.063	12.0	1	0.0	0.0	18.875	955.0	1.5	Certain	-5.29	4.1	2.61875	Yes	4.0	9.39297848244621	1.155	169.626	n/a	GetAnswer	Mixed
169.641	4.0	0.015	250.233	12.0	1	0.0	0.0	18.875	955.0	1.5	Certain	-5.29	4.1	2.61875	Yes	n/a	9.39297848244621	n/a	n/a	n/a	ShowChoice	Mixed
173.669	1.0	0.028	254.261	12.0	1	0.0	0.0	18.875	955.0	1.5	Certain	-5.29	4.1	2.61875	Yes	n/a	9.39297848244621	n/a	n/a	n/a	ShowResult	Mixed
174.689	6.642	0.02	255.281	12.0	1	0.0	0.0	18.875	955.0	1.5	Certain	-5.29	4.1	2.61875	Yes	n/a	9.39297848244621	n/a	n/a	n/a	ISITrial	Mixed
181.359	2.619	0.028	261.951	12.0	1	0.0	0.0	18.875	955.0	1.5	Certain	-5.29	4.1	2.61875	Yes	n/a	9.39297848244621	n/a	n/a	n/a	TrialHappPreview	Mixed
184.0	4.029	0.022	264.592	12.0	1	0.0	0.0	18.875	955.0	1.5	Certain	-5.29	4.1	2.61875	Yes	n/a	9.39297848244621	n/a	n/a	576.0	TrialHappiness	Mixed
184.001	1.694	n/a	265.196	12.0	1	0.0	0.0	18.875	955.0	1.5	Certain	-5.29	4.1	2.61875	Yes	n/a	9.39297848244621	n/a	n/a	576.0	TrialHappinessSliderResponse	Mixed
188.029	2.475	4.029	268.621	12.0	1	0.0	0.0	18.875	955.0	1.5	Certain	-5.29	4.1	2.61875	Yes	n/a	9.39297848244621	n/a	n/a	n/a	ISIRate	Mixed
190.537	3.0	0.033	271.129	13.0	1	0.0	0.0	18.875	955.0	2.8	Certain	-5.84	5.5	0.0	No	4.0	11.3442808607022	1.405	191.942	n/a	GetAnswer	Gain
191.957	4.0	0.015	272.549	13.0	1	0.0	0.0	18.875	955.0	2.8	Certain	-5.84	5.5	0.0	No	n/a	11.3442808607022	n/a	n/a	n/a	ShowChoice	Gain
195.986	1.0	0.029	276.578	13.0	1	0.0	0.0	18.875	955.0	2.8	Certain	-5.84	5.5	0.0	No	n/a	11.3442808607022	n/a	n/a	n/a	ShowResult	Gain
197.006	3.48	0.02	277.598	13.0	1	0.0	0.0	18.875	955.0	2.8	Certain	-5.84	5.5	0.0	No	n/a	11.3442808607022	n/a	n/a	n/a	ISITrial	Gain
200.516	3.0	0.03	281.108	14.0	1	-2.88	-2.0	18.515	955.0	0.52	Outcome1	-2.88	-0.9	0.0	No	2.0	-1.98263495658739	2.005	202.521	n/a	GetAnswer	Mixed
202.539	4.0	0.018	283.131	14.0	1	-2.88	-2.0	18.515	955.0	0.52	Outcome1	-2.88	-0.9	0.0	No	n/a	-1.98263495658739	n/a	n/a	n/a	ShowChoice	Mixed
206.568	1.0	0.029	287.16	14.0	1	-2.88	-2.0	18.515	955.0	0.52	Outcome1	-2.88	-0.9	0.0	No	n/a	-1.98263495658739	n/a	n/a	n/a	ShowResult	Mixed
207.588	5.019	0.02	288.18	14.0	1	-2.88	-2.0	18.515	955.0	0.52	Outcome1	-2.88	-0.9	0.0	No	n/a	-1.98263495658739	n/a	n/a	n/a	ISITrial	Mixed
212.636	3.0	0.029	293.228	15.0	1	8.7	2.0	19.6025	955.0	1.82	Outcome2	-3.5	8.7	3.3485	Yes	2.0	12.202718006795	2.096	214.732	n/a	GetAnswer	Gain
214.759	4.0	0.027	295.351	15.0	1	8.7	2.0	19.6025	955.0	1.82	Outcome2	-3.5	8.7	3.3485	Yes	n/a	12.202718006795	n/a	n/a	n/a	ShowChoice	Gain
218.788	1.0	0.029	299.38	15.0	1	8.7	2.0	19.6025	955.0	1.82	Outcome2	-3.5	8.7	3.3485	Yes	n/a	12.202718006795	n/a	n/a	n/a	ShowResult	Gain
219.807	7.614	0.019	300.399	15.0	1	8.7	2.0	19.6025	955.0	1.82	Outcome2	-3.5	8.7	3.3485	Yes	n/a	12.202718006795	n/a	n/a	n/a	ISITrial	Gain
227.447	3.348	0.026	308.039	15.0	1	8.7	2.0	19.6025	955.0	1.82	Outcome2	-3.5	8.7	3.3485	Yes	n/a	12.202718006795	n/a	n/a	n/a	TrialHappPreview	Gain
230.824	4.028	0.029	311.416	15.0	1	8.7	2.0	19.6025	955.0	1.82	Outcome2	-3.5	8.7	3.3485	Yes	2{-2}	12.202718006795	0.891	231.715	568.0	TrialHappiness	Gain
230.824	0.257	n/a	312.05	15.0	1	8.7	2.0	19.6025	955.0	1.82	Outcome2	-3.5	8.7	3.3485	Yes	n/a	12.202718006795	n/a	n/a	568.0	TrialHappinessSliderResponse	Gain
234.852	5.394	4.028	315.444	15.0	1	8.7	2.0	19.6025	955.0	1.82	Outcome2	-3.5	8.7	3.3485	Yes	n/a	12.202718006795	n/a	n/a	n/a	ISIRate	Gain
240.269	3.0	0.023	320.861	16.0	1	-7.0	-7.0	18.7275	955.0	0.66	Certain	-13.47	-0.7	0.0	No	4.0	12.767836919592302	1.308	241.577	n/a	GetAnswer	Mixed
241.606	4.0	0.029	322.198	16.0	1	-7.0	-7.0	18.7275	955.0	0.66	Certain	-13.47	-0.7	0.0	No	n/a	12.767836919592302	n/a	n/a	n/a	ShowChoice	Mixed
245.618	1.0	0.012	326.21	16.0	1	-7.0	-7.0	18.7275	955.0	0.66	Certain	-13.47	-0.7	0.0	No	n/a	12.767836919592302	n/a	n/a	n/a	ShowResult	Mixed
246.638	3.008	0.02	327.23	16.0	1	-7.0	-7.0	18.7275	955.0	0.66	Certain	-13.47	-0.7	0.0	No	n/a	12.767836919592302	n/a	n/a	n/a	ISITrial	Mixed
249.68	3.0	0.034	330.272	17.0	1	-2.0	-2.0	18.4775	955.0	1.82	Certain	4.7	-8.51	3.0415	Yes	4.0	13.2061155152888	2.461	252.141	n/a	GetAnswer	Gain
252.154	4.0	0.013	332.746	17.0	1	-2.0	-2.0	18.4775	955.0	1.82	Certain	4.7	-8.51	3.0415	Yes	n/a	13.2061155152888	n/a	n/a	n/a	ShowChoice	Gain
256.166	1.0	0.012	336.758	17.0	1	-2.0	-2.0	18.4775	955.0	1.82	Certain	4.7	-8.51	3.0415	Yes	n/a	13.2061155152888	n/a	n/a	n/a	ShowResult	Gain
257.186	3.566	0.02	337.778	17.0	1	-2.0	-2.0	18.4775	955.0	1.82	Certain	4.7	-8.51	3.0415	Yes	n/a	13.2061155152888	n/a	n/a	n/a	ISITrial	Gain
260.78	3.042	0.028	341.372	17.0	1	-2.0	-2.0	18.4775	955.0	1.82	Certain	4.7	-8.51	3.0415	Yes	n/a	13.2061155152888	n/a	n/a	n/a	TrialHappPreview	Gain
263.856	4.028	0.034	344.448	17.0	1	-2.0	-2.0	18.4775	955.0	1.82	Certain	4.7	-8.51	3.0415	Yes	n/a	13.2061155152888	n/a	n/a	440.0	TrialHappiness	Gain
263.856	0.296	n/a	344.844	17.0	1	-2.0	-2.0	18.4775	955.0	1.82	Certain	4.7	-8.51	3.0415	Yes	n/a	13.2061155152888	n/a	n/a	440.0	TrialHappinessSliderResponse	Gain
267.884	4.166	4.028	348.476	17.0	1	-2.0	-2.0	18.4775	955.0	1.82	Certain	4.7	-8.51	3.0415	Yes	n/a	13.2061155152888	n/a	n/a	n/a	ISIRate	Gain
272.08	3.0	0.03	352.672	18.0	1	-8.0	-8.0	17.4775	955.0	1.5	Certain	0.1	-15.72	0.0	No	4.0	15.818799546998902	1.397	273.477	n/a	GetAnswer	Mixed
273.501	4.0	0.024	354.093	18.0	1	-8.0	-8.0	17.4775	955.0	1.5	Certain	0.1	-15.72	0.0	No	n/a	15.818799546998902	n/a	n/a	n/a	ShowChoice	Mixed
277.513	1.0	0.012	358.105	18.0	1	-8.0	-8.0	17.4775	955.0	1.5	Certain	0.1	-15.72	0.0	No	n/a	15.818799546998902	n/a	n/a	n/a	ShowResult	Mixed
278.533	6.787	0.02	359.125	18.0	1	-8.0	-8.0	17.4775	955.0	1.5	Certain	0.1	-15.72	0.0	No	n/a	15.818799546998902	n/a	n/a	n/a	ISITrial	Mixed
285.337	3.0	0.017	365.929	19.0	1	12.5	-1.95	19.04	955.0	1.68	Outcome2	-3.9	12.5	0.0	No	2.0	16.4020385050963	1.524	286.861	n/a	GetAnswer	Loss
286.875	4.0	0.014	367.467	19.0	1	12.5	-1.95	19.04	955.0	1.68	Outcome2	-3.9	12.5	0.0	No	n/a	16.4020385050963	n/a	n/a	n/a	ShowChoice	Loss
290.903	1.0	0.028	371.495	19.0	1	12.5	-1.95	19.04	955.0	1.68	Outcome2	-3.9	12.5	0.0	No	n/a	16.4020385050963	n/a	n/a	n/a	ShowResult	Loss
291.923	2.0	0.02	372.515	19.0	1	12.5	-1.95	19.04	955.0	1.68	Outcome2	-3.9	12.5	0.0	No	n/a	16.4020385050963	n/a	n/a	n/a	ISITrial	Loss
293.946	3.0	0.023	374.538	20.0	1	1.0	1.0	19.165	955.0	2.8	Certain	9.5	-7.49	2.92125	Yes	4.0	16.9852774631937	1.976	295.922	n/a	GetAnswer	Gain
295.935	4.0	0.013	376.527	20.0	1	1.0	1.0	19.165	955.0	2.8	Certain	9.5	-7.49	2.92125	Yes	n/a	16.9852774631937	n/a	n/a	n/a	ShowChoice	Gain
299.947	1.0	0.012	380.539	20.0	1	1.0	1.0	19.165	955.0	2.8	Certain	9.5	-7.49	2.92125	Yes	n/a	16.9852774631937	n/a	n/a	n/a	ShowResult	Gain
300.967	8.0	0.02	381.559	20.0	1	1.0	1.0	19.165	955.0	2.8	Certain	9.5	-7.49	2.92125	Yes	n/a	16.9852774631937	n/a	n/a	n/a	ISITrial	Gain
308.991	2.921	0.024	389.583	20.0	1	1.0	1.0	19.165	955.0	2.8	Certain	9.5	-7.49	2.92125	Yes	n/a	16.9852774631937	n/a	n/a	n/a	TrialHappPreview	Gain
311.933	4.029	0.021	392.525	20.0	1	1.0	1.0	19.165	955.0	2.8	Certain	9.5	-7.49	2.92125	Yes	n/a	16.9852774631937	n/a	n/a	512.0	TrialHappiness	Gain
311.933	0.0	n/a	392.525	20.0	1	1.0	1.0	19.165	955.0	2.8	Certain	9.5	-7.49	2.92125	Yes	n/a	16.9852774631937	n/a	n/a	512.0	TrialHappinessSliderResponse	Gain
315.962	3.685	4.029	396.554	20.0	1	1.0	1.0	19.165	955.0	2.8	Certain	9.5	-7.49	2.92125	Yes	n/a	16.9852774631937	n/a	n/a	n/a	ISIRate	Gain
319.673	3.0	0.026	400.265	21.0	1	10.57	5.28	20.4862	955.0	2.22	Outcome1	10.57	13.1	0.0	No	2.0	-2.53274820687052	1.052	320.725	n/a	GetAnswer	Loss
320.742	4.0	0.017	401.334	21.0	1	10.57	5.28	20.4862	955.0	2.22	Outcome1	10.57	13.1	0.0	No	n/a	-2.53274820687052	n/a	n/a	n/a	ShowChoice	Loss
324.754	1.0	0.012	405.346	21.0	1	10.57	5.28	20.4862	955.0	2.22	Outcome1	10.57	13.1	0.0	No	n/a	-2.53274820687052	n/a	n/a	n/a	ShowResult	Loss
325.774	3.555	0.02	406.366	21.0	1	10.57	5.28	20.4862	955.0	2.22	Outcome1	10.57	13.1	0.0	No	n/a	-2.53274820687052	n/a	n/a	n/a	ISITrial	Loss
329.352	3.0	0.023	409.944	22.0	1	13.7	-1.58	22.1987	955.0	3.16	Outcome2	-3.15	13.7	3.2195	Yes	2.0	16.847112117780302	1.271	330.623	n/a	GetAnswer	Loss
330.639	4.0	0.016	411.231	22.0	1	13.7	-1.58	22.1987	955.0	3.16	Outcome2	-3.15	13.7	3.2195	Yes	n/a	16.847112117780302	n/a	n/a	n/a	ShowChoice	Loss
334.667	1.0	0.028	415.259	22.0	1	13.7	-1.58	22.1987	955.0	3.16	Outcome2	-3.15	13.7	3.2195	Yes	n/a	16.847112117780302	n/a	n/a	n/a	ShowResult	Loss
335.687	6.793	0.02	416.279	22.0	1	13.7	-1.58	22.1987	955.0	3.16	Outcome2	-3.15	13.7	3.2195	Yes	n/a	16.847112117780302	n/a	n/a	n/a	ISITrial	Loss
342.508	3.22	0.028	423.1	22.0	1	13.7	-1.58	22.1987	955.0	3.16	Outcome2	-3.15	13.7	3.2195	Yes	n/a	16.847112117780302	n/a	n/a	n/a	TrialHappPreview	Loss
345.751	4.012	0.023	426.343	22.0	1	13.7	-1.58	22.1987	955.0	3.16	Outcome2	-3.15	13.7	3.2195	Yes	n/a	16.847112117780302	n/a	n/a	696.0	TrialHappiness	Loss
345.751	0.528	n/a	426.723	22.0	1	13.7	-1.58	22.1987	955.0	3.16	Outcome2	-3.15	13.7	3.2195	Yes	n/a	16.847112117780302	n/a	n/a	696.0	TrialHappinessSliderResponse	Loss
349.763	4.878	4.012	430.355	22.0	1	13.7	-1.58	22.1987	955.0	3.16	Outcome2	-3.15	13.7	3.2195	Yes	n/a	16.847112117780302	n/a	n/a	n/a	ISIRate	Loss
354.661	3.0	0.02	435.253	23.0	1	10.1	-2.06	23.4612	955.0	4.2	Outcome2	-4.12	10.1	0.0	No	2.0	14.2231030577576	1.334	355.995	n/a	GetAnswer	Gain
356.015	4.0	0.02	436.607	23.0	1	10.1	-2.06	23.4612	955.0	4.2	Outcome2	-4.12	10.1	0.0	No	n/a	14.2231030577576	n/a	n/a	n/a	ShowChoice	Gain
360.043	1.0	0.028	440.635	23.0	1	10.1	-2.06	23.4612	955.0	4.2	Outcome2	-4.12	10.1	0.0	No	n/a	14.2231030577576	n/a	n/a	n/a	ShowResult	Gain
361.063	8.0	0.02	441.655	23.0	1	10.1	-2.06	23.4612	955.0	4.2	Outcome2	-4.12	10.1	0.0	No	n/a	14.2231030577576	n/a	n/a	n/a	ISITrial	Gain
369.087	3.0	0.024	449.679	24.0	1	1.0	1.0	23.5862	955.0	2.0	Certain	8.9	-5.62	3.255	Yes	4.0	14.5164212910532	1.343	370.43	n/a	GetAnswer	Gain
370.458	4.0	0.028	451.05	24.0	1	1.0	1.0	23.5862	955.0	2.0	Certain	8.9	-5.62	3.255	Yes	n/a	14.5164212910532	n/a	n/a	n/a	ShowChoice	Gain
374.487	1.0	0.029	455.079	24.0	1	1.0	1.0	23.5862	955.0	2.0	Certain	8.9	-5.62	3.255	Yes	n/a	14.5164212910532	n/a	n/a	n/a	ShowResult	Gain
375.506	2.0	0.019	456.098	24.0	1	1.0	1.0	23.5862	955.0	2.0	Certain	8.9	-5.62	3.255	Yes	n/a	14.5164212910532	n/a	n/a	n/a	ISITrial	Gain
377.529	3.255	0.023	458.121	24.0	1	1.0	1.0	23.5862	955.0	2.0	Certain	8.9	-5.62	3.255	Yes	n/a	14.5164212910532	n/a	n/a	n/a	TrialHappPreview	Gain
380.805	4.029	0.021	461.397	24.0	1	1.0	1.0	23.5862	955.0	2.0	Certain	8.9	-5.62	3.255	Yes	2{-2}2{-2}	14.5164212910532	2.164	382.969	584.0	TrialHappiness	Gain
380.806	1.268	n/a	462.294	24.0	1	1.0	1.0	23.5862	955.0	2.0	Certain	8.9	-5.62	3.255	Yes	n/a	14.5164212910532	n/a	n/a	584.0	TrialHappinessSliderResponse	Gain
384.834	5.02	4.029	465.426	24.0	1	1.0	1.0	23.5862	955.0	2.0	Certain	8.9	-5.62	3.255	Yes	n/a	14.5164212910532	n/a	n/a	n/a	ISIRate	Gain
389.883	3.0	0.029	470.475	25.0	1	11.9	-2.4	25.0737	955.0	3.6	Outcome2	-4.81	11.9	0.0	No	2.0	16.712344280860698	1.838	391.721	n/a	GetAnswer	Loss
391.738	4.0	0.017	472.33	25.0	1	11.9	-2.4	25.0737	955.0	3.6	Outcome2	-4.81	11.9	0.0	No	n/a	16.712344280860698	n/a	n/a	n/a	ShowChoice	Loss
395.75	1.0	0.012	476.342	25.0	1	11.9	-2.4	25.0737	955.0	3.6	Outcome2	-4.81	11.9	0.0	No	n/a	16.712344280860698	n/a	n/a	n/a	ShowResult	Loss
396.77	3.749	0.02	477.362	25.0	1	11.9	-2.4	25.0737	955.0	3.6	Outcome2	-4.81	11.9	0.0	No	n/a	16.712344280860698	n/a	n/a	n/a	ISITrial	Loss
400.548	3.0	0.029	481.14	26.0	1	-7.0	-7.0	24.1987	955.0	0.82	Certain	-15.63	1.5	0.0	No	4.0	17.1325028312571	2.265	402.813	n/a	GetAnswer	Mixed
402.838	4.0	0.025	483.43	26.0	1	-7.0	-7.0	24.1987	955.0	0.82	Certain	-15.63	1.5	0.0	No	n/a	17.1325028312571	n/a	n/a	n/a	ShowChoice	Mixed
406.85	1.0	0.012	487.442	26.0	1	-7.0	-7.0	24.1987	955.0	0.82	Certain	-15.63	1.5	0.0	No	n/a	17.1325028312571	n/a	n/a	n/a	ShowResult	Mixed
407.87	7.834	0.02	488.462	26.0	1	-7.0	-7.0	24.1987	955.0	0.82	Certain	-15.63	1.5	0.0	No	n/a	17.1325028312571	n/a	n/a	n/a	ISITrial	Mixed
415.726	3.0	0.022	496.318	27.0	1	-1.0	-1.0	24.0737	955.0	2.48	Certain	7.3	-10.25	2.54975	Yes	4.0	17.5526613816535	1.826	417.552	n/a	GetAnswer	Gain
417.565	4.0	0.013	498.157	27.0	1	-1.0	-1.0	24.0737	955.0	2.48	Certain	7.3	-10.25	2.54975	Yes	n/a	17.5526613816535	n/a	n/a	n/a	ShowChoice	Gain
421.594	1.0	0.029	502.186	27.0	1	-1.0	-1.0	24.0737	955.0	2.48	Certain	7.3	-10.25	2.54975	Yes	n/a	17.5526613816535	n/a	n/a	n/a	ShowResult	Gain
422.614	4.225	0.02	503.206	27.0	1	-1.0	-1.0	24.0737	955.0	2.48	Certain	7.3	-10.25	2.54975	Yes	n/a	17.5526613816535	n/a	n/a	n/a	ISITrial	Gain
426.86	2.55	0.021	507.452	27.0	1	-1.0	-1.0	24.0737	955.0	2.48	Certain	7.3	-10.25	2.54975	Yes	n/a	17.5526613816535	n/a	n/a	n/a	TrialHappPreview	Gain
429.434	4.012	0.024	510.026	27.0	1	-1.0	-1.0	24.0737	955.0	2.48	Certain	7.3	-10.25	2.54975	Yes	n/a	17.5526613816535	n/a	n/a	544.0	TrialHappiness	Gain
429.435	0.209	n/a	510.794	27.0	1	-1.0	-1.0	24.0737	955.0	2.48	Certain	7.3	-10.25	2.54975	Yes	n/a	17.5526613816535	n/a	n/a	544.0	TrialHappinessSliderResponse	Gain
433.446	2.199	4.012	514.038	27.0	1	-1.0	-1.0	24.0737	955.0	2.48	Certain	7.3	-10.25	2.54975	Yes	n/a	17.5526613816535	n/a	n/a	n/a	ISIRate	Gain
487.809	1.023	n/a	570.509	n/a	1	n/a	n/a	n/a	n/a	n/a	n/a	n/a	n/a	n/a	n/a	n/a	n/a	n/a	n/a	488.0	BlockStartHappinessSliderResponse	n/a
-62.036	-0.001	0.024	516.261	n/a	2	n/a	n/a	n/a	n/a	n/a	n/a	n/a	n/a	n/a	n/a	{SPACE}	n/a	48.102	-13.934	n/a	Rest	n/a
-13.908	4.0	0.026	564.389	n/a	2	n/a	n/a	n/a	n/a	n/a	n/a	n/a	n/a	n/a	n/a	n/a	n/a	n/a	n/a	n/a	BlockHappyPreview	n/a
-9.896	3.131	0.012	568.401	n/a	2	n/a	n/a	n/a	n/a	n/a	n/a	n/a	n/a	n/a	n/a	n/a	n/a	n/a	n/a	488.0	BlockStartHappiness	n/a
-1.755	-0.001	0.02	576.542	n/a	2	n/a	n/a	n/a	n/a	n/a	n/a	n/a	n/a	n/a	n/a	5.0	n/a	1.738	-0.017	n/a	ScanWait	n/a
0.0	10.0	0.017	578.297	n/a	2	n/a	n/a	n/a	n/a	n/a	n/a	n/a	n/a	n/a	n/a	n/a	n/a	n/a	n/a	n/a	GetReady	n/a
10.03	3.0	0.03	588.327	28.0	2	2.88	2.0	24.4337	70.0	2.8	Outcome2	1.18	2.88	0.0	No	2.0	1.69822373393802	1.174	11.204	n/a	GetAnswer	Loss
11.234	4.0	0.03	589.531	28.0	2	2.88	2.0	24.4337	70.0	2.8	Outcome2	1.18	2.88	0.0	No	n/a	1.69822373393802	n/a	n/a	n/a	ShowChoice	Loss
15.262	1.0	0.028	593.559	28.0	2	2.88	2.0	24.4337	70.0	2.8	Outcome2	1.18	2.88	0.0	No	n/a	1.69822373393802	n/a	n/a	n/a	ShowResult	Loss
16.282	3.575	0.02	594.579	28.0	2	2.88	2.0	24.4337	70.0	2.8	Outcome2	1.18	2.88	0.0	No	n/a	1.69822373393802	n/a	n/a	n/a	ISITrial	Loss
19.876	3.0	0.019	598.173	29.0	2	-1.28	2.0	24.2737	70.0	5.0	Outcome1	-1.28	6.3	3.529	Yes	2.0	-7.5827664399092995	1.344	21.22	n/a	GetAnswer	Gain
21.247	4.0	0.027	599.544	29.0	2	-1.28	2.0	24.2737	70.0	5.0	Outcome1	-1.28	6.3	3.529	Yes	n/a	-7.5827664399092995	n/a	n/a	n/a	ShowChoice	Gain
25.259	1.0	0.012	603.556	29.0	2	-1.28	2.0	24.2737	70.0	5.0	Outcome1	-1.28	6.3	3.529	Yes	n/a	-7.5827664399092995	n/a	n/a	n/a	ShowResult	Gain
26.278	3.955	0.019	604.575	29.0	2	-1.28	2.0	24.2737	70.0	5.0	Outcome1	-1.28	6.3	3.529	Yes	n/a	-7.5827664399092995	n/a	n/a	n/a	ISITrial	Gain
30.257	3.529	0.024	608.554	29.0	2	-1.28	2.0	24.2737	70.0	5.0	Outcome1	-1.28	6.3	3.529	Yes	n/a	-7.5827664399092995	n/a	n/a	n/a	TrialHappPreview	Gain
33.818	4.012	0.032	612.115	29.0	2	-1.28	2.0	24.2737	70.0	5.0	Outcome1	-1.28	6.3	3.529	Yes	n/a	-7.5827664399092995	n/a	n/a	448.0	TrialHappiness	Gain
33.818	0.275	n/a	612.532	29.0	2	-1.28	2.0	24.2737	70.0	5.0	Outcome1	-1.28	6.3	3.529	Yes	n/a	-7.5827664399092995	n/a	n/a	448.0	TrialHappinessSliderResponse	Gain
37.83	6.116	4.012	616.127	29.0	2	-1.28	2.0	24.2737	70.0	5.0	Outcome1	-1.28	6.3	3.529	Yes	n/a	-7.5827664399092995	n/a	n/a	n/a	ISIRate	Gain
43.965	3.0	0.019	622.262	30.0	2	2.68	2.0	24.6087	70.0	1.82	Outcome1	2.68	1.07	0.0	No	2.0	1.6147014361300098	1.968	45.933	n/a	GetAnswer	Loss
45.954	4.0	0.021	624.251	30.0	2	2.68	2.0	24.6087	70.0	1.82	Outcome1	2.68	1.07	0.0	No	n/a	1.6147014361300098	n/a	n/a	n/a	ShowChoice	Loss
49.966	1.0	0.012	628.263	30.0	2	2.68	2.0	24.6087	70.0	1.82	Outcome1	2.68	1.07	0.0	No	n/a	1.6147014361300098	n/a	n/a	n/a	ShowResult	Loss
50.986	4.453	0.02	629.283	30.0	2	2.68	2.0	24.6087	70.0	1.82	Outcome1	2.68	1.07	0.0	No	n/a	1.6147014361300098	n/a	n/a	n/a	ISITrial	Loss
55.466	3.0	0.027	633.763	31.0	2	3.18	2.0	25.0062	70.0	1.82	Outcome1	3.18	1.53	2.50325	Yes	2.0	1.65041572184429	1.333	56.799	n/a	GetAnswer	Loss
56.82	4.0	0.021	635.117	31.0	2	3.18	2.0	25.0062	70.0	1.82	Outcome1	3.18	1.53	2.50325	Yes	n/a	1.65041572184429	n/a	n/a	n/a	ShowChoice	Loss
60.832	1.0	0.012	639.129	31.0	2	3.18	2.0	25.0062	70.0	1.82	Outcome1	3.18	1.53	2.50325	Yes	n/a	1.65041572184429	n/a	n/a	n/a	ShowResult	Loss
61.852	4.786	0.02	640.149	31.0	2	3.18	2.0	25.0062	70.0	1.82	Outcome1	3.18	1.53	2.50325	Yes	n/a	1.65041572184429	n/a	n/a	n/a	ISITrial	Loss
66.649	2.503	0.011	644.946	31.0	2	3.18	2.0	25.0062	70.0	1.82	Outcome1	3.18	1.53	2.50325	Yes	n/a	1.65041572184429	n/a	n/a	n/a	TrialHappPreview	Loss
69.173	4.012	0.021	647.47	31.0	2	3.18	2.0	25.0062	70.0	1.82	Outcome1	3.18	1.53	2.50325	Yes	n/a	1.65041572184429	n/a	n/a	512.0	TrialHappiness	Loss
69.174	0.0	n/a	647.471	31.0	2	3.18	2.0	25.0062	70.0	1.82	Outcome1	3.18	1.53	2.50325	Yes	n/a	1.65041572184429	n/a	n/a	512.0	TrialHappinessSliderResponse	Loss
73.185	2.013	4.012	651.482	31.0	2	3.18	2.0	25.0062	70.0	1.82	Outcome1	3.18	1.53	2.50325	Yes	n/a	1.65041572184429	n/a	n/a	n/a	ISIRate	Loss
75.225	3.0	0.027	653.522	32.0	2	-1.0	-1.0	24.8812	70.0	0.66	Certain	-6.02	3.3	0.0	No	4.0	-9.321995464852607	2.23	77.455	n/a	GetAnswer	Mixed
77.482	4.0	0.027	655.779	32.0	2	-1.0	-1.0	24.8812	70.0	0.66	Certain	-6.02	3.3	0.0	No	n/a	-9.321995464852607	n/a	n/a	n/a	ShowChoice	Mixed
81.494	1.0	0.012	659.791	32.0	2	-1.0	-1.0	24.8812	70.0	0.66	Certain	-6.02	3.3	0.0	No	n/a	-9.321995464852607	n/a	n/a	n/a	ShowResult	Mixed
82.513	2.0	0.019	660.81	32.0	2	-1.0	-1.0	24.8812	70.0	0.66	Certain	-6.02	3.3	0.0	No	n/a	-9.321995464852607	n/a	n/a	n/a	ISITrial	Mixed
84.536	3.0	0.023	662.833	33.0	2	-7.72	-3.0	23.9162	70.0	1.5	Outcome2	2.1	-7.72	0.0	No	n/a	-9.82312925170068	n/a	n/a	n/a	GetAnswer	Mixed
87.562	4.0	0.026	665.859	33.0	2	-7.72	-3.0	23.9162	70.0	1.5	Outcome2	2.1	-7.72	0.0	No	n/a	-9.82312925170068	n/a	n/a	n/a	ShowChoice	Mixed
91.574	1.0	0.012	669.871	33.0	2	-7.72	-3.0	23.9162	70.0	1.5	Outcome2	2.1	-7.72	0.0	No	n/a	-9.82312925170068	n/a	n/a	n/a	ShowResult	Mixed
92.593	5.099	0.019	670.89	33.0	2	-7.72	-3.0	23.9162	70.0	1.5	Outcome2	2.1	-7.72	0.0	No	n/a	-9.82312925170068	n/a	n/a	n/a	ISITrial	Mixed
97.709	3.0	0.017	676.006	34.0	2	-4.22	1.0	23.3887	70.0	4.2	Outcome1	-4.22	6.1	3.2315	Yes	2.0	-10.324263038548802	1.485	99.194	n/a	GetAnswer	Gain
99.213	4.0	0.019	677.51	34.0	2	-4.22	1.0	23.3887	70.0	4.2	Outcome1	-4.22	6.1	3.2315	Yes	n/a	-10.324263038548802	n/a	n/a	n/a	ShowChoice	Gain
103.225	1.0	0.012	681.522	34.0	2	-4.22	1.0	23.3887	70.0	4.2	Outcome1	-4.22	6.1	3.2315	Yes	n/a	-10.324263038548802	n/a	n/a	n/a	ShowResult	Gain
104.245	4.784	0.02	682.542	34.0	2	-4.22	1.0	23.3887	70.0	4.2	Outcome1	-4.22	6.1	3.2315	Yes	n/a	-10.324263038548802	n/a	n/a	n/a	ISITrial	Gain
109.043	3.232	0.014	687.34	34.0	2	-4.22	1.0	23.3887	70.0	4.2	Outcome1	-4.22	6.1	3.2315	Yes	n/a	-10.324263038548802	n/a	n/a	n/a	TrialHappPreview	Gain
112.302	4.029	0.027	690.599	34.0	2	-4.22	1.0	23.3887	70.0	4.2	Outcome1	-4.22	6.1	3.2315	Yes	n/a	-10.324263038548802	n/a	n/a	360.0	TrialHappiness	Gain
112.303	3.207	n/a	691.127	34.0	2	-4.22	1.0	23.3887	70.0	4.2	Outcome1	-4.22	6.1	3.2315	Yes	n/a	-10.324263038548802	n/a	n/a	360.0	TrialHappinessSliderResponse	Gain
116.331	4.926	4.029	694.628	34.0	2	-4.22	1.0	23.3887	70.0	4.2	Outcome1	-4.22	6.1	3.2315	Yes	n/a	-10.324263038548802	n/a	n/a	n/a	ISIRate	Gain
121.279	3.0	0.022	699.576	35.0	2	2.26	1.13	23.6712	70.0	1.68	Outcome1	2.26	10.5	0.0	No	2.0	-8.24036281179138	0.685	121.964	n/a	GetAnswer	Loss
121.981	4.0	0.017	700.278	35.0	2	2.26	1.13	23.6712	70.0	1.68	Outcome1	2.26	10.5	0.0	No	n/a	-8.24036281179138	n/a	n/a	n/a	ShowChoice	Loss
125.993	1.0	0.012	704.29	35.0	2	2.26	1.13	23.6712	70.0	1.68	Outcome1	2.26	10.5	0.0	No	n/a	-8.24036281179138	n/a	n/a	n/a	ShowResult	Loss
127.013	2.098	0.02	705.31	35.0	2	2.26	1.13	23.6712	70.0	1.68	Outcome1	2.26	10.5	0.0	No	n/a	-8.24036281179138	n/a	n/a	n/a	ISITrial	Loss
129.136	3.0	0.025	707.433	36.0	2	-5.87	-1.0	22.9374	70.0	0.3	Outcome1	-5.87	2.7	3.33575	Yes	2.0	-8.56916099773242	1.742	130.878	n/a	GetAnswer	Mixed
130.891	4.0	0.013	709.188	36.0	2	-5.87	-1.0	22.9374	70.0	0.3	Outcome1	-5.87	2.7	3.33575	Yes	n/a	-8.56916099773242	n/a	n/a	n/a	ShowChoice	Mixed
134.903	1.0	0.012	713.2	36.0	2	-5.87	-1.0	22.9374	70.0	0.3	Outcome1	-5.87	2.7	3.33575	Yes	n/a	-8.56916099773242	n/a	n/a	n/a	ShowResult	Mixed
135.923	5.156	0.02	714.22	36.0	2	-5.87	-1.0	22.9374	70.0	0.3	Outcome1	-5.87	2.7	3.33575	Yes	n/a	-8.56916099773242	n/a	n/a	n/a	ISITrial	Mixed
141.105	3.336	0.026	719.402	36.0	2	-5.87	-1.0	22.9374	70.0	0.3	Outcome1	-5.87	2.7	3.33575	Yes	n/a	-8.56916099773242	n/a	n/a	n/a	TrialHappPreview	Mixed
144.465	4.012	0.024	722.762	36.0	2	-5.87	-1.0	22.9374	70.0	0.3	Outcome1	-5.87	2.7	3.33575	Yes	n/a	-8.56916099773242	n/a	n/a	344.0	TrialHappiness	Mixed
144.466	0.502	n/a	723.153	36.0	2	-5.87	-1.0	22.9374	70.0	0.3	Outcome1	-5.87	2.7	3.33575	Yes	n/a	-8.56916099773242	n/a	n/a	344.0	TrialHappinessSliderResponse	Mixed
148.477	5.343	4.012	726.774	36.0	2	-5.87	-1.0	22.9374	70.0	0.3	Outcome1	-5.87	2.7	3.33575	Yes	n/a	-8.56916099773242	n/a	n/a	n/a	ISIRate	Mixed
153.843	3.0	0.023	732.14	37.0	2	0.0	0.0	22.9374	70.0	0.2	Certain	0.12	-1.32	0.0	No	4.0	1.4436885865457298	1.206	155.049	n/a	GetAnswer	Mixed
155.064	4.0	0.015	733.361	37.0	2	0.0	0.0	22.9374	70.0	0.2	Certain	0.12	-1.32	0.0	No	n/a	1.4436885865457298	n/a	n/a	n/a	ShowChoice	Mixed
159.076	1.0	0.012	737.373	37.0	2	0.0	0.0	22.9374	70.0	0.2	Certain	0.12	-1.32	0.0	No	n/a	1.4436885865457298	n/a	n/a	n/a	ShowResult	Mixed
160.095	3.598	0.019	738.392	37.0	2	0.0	0.0	22.9374	70.0	0.2	Certain	0.12	-1.32	0.0	No	n/a	1.4436885865457298	n/a	n/a	n/a	ISITrial	Mixed
163.723	3.0	0.03	742.02	38.0	2	1.27	0.0	23.0962	70.0	2.22	Outcome2	-0.2	1.27	0.0	No	2.0	1.46957671957672	1.643	165.366	n/a	GetAnswer	Gain
165.394	4.0	0.028	743.691	38.0	2	1.27	0.0	23.0962	70.0	2.22	Outcome2	-0.2	1.27	0.0	No	n/a	1.46957671957672	n/a	n/a	n/a	ShowChoice	Gain
169.406	1.0	0.012	747.703	38.0	2	1.27	0.0	23.0962	70.0	2.22	Outcome2	-0.2	1.27	0.0	No	n/a	1.46957671957672	n/a	n/a	n/a	ShowResult	Gain
170.426	4.787	0.02	748.723	38.0	2	1.27	0.0	23.0962	70.0	2.22	Outcome2	-0.2	1.27	0.0	No	n/a	1.46957671957672	n/a	n/a	n/a	ISITrial	Gain
175.241	3.0	0.028	753.538	39.0	2	0.0	0.0	23.0962	70.0	1.0	Certain	-1.08	0.42	2.86425	Yes	4.0	1.49546485260771	1.497	176.738	n/a	GetAnswer	Mixed
176.762	4.0	0.024	755.059	39.0	2	0.0	0.0	23.0962	70.0	1.0	Certain	-1.08	0.42	2.86425	Yes	n/a	1.49546485260771	n/a	n/a	n/a	ShowChoice	Mixed
180.774	1.0	0.012	759.071	39.0	2	0.0	0.0	23.0962	70.0	1.0	Certain	-1.08	0.42	2.86425	Yes	n/a	1.49546485260771	n/a	n/a	n/a	ShowResult	Mixed
181.793	2.348	0.019	760.09	39.0	2	0.0	0.0	23.0962	70.0	1.0	Certain	-1.08	0.42	2.86425	Yes	n/a	1.49546485260771	n/a	n/a	n/a	ISITrial	Mixed
184.167	2.864	0.026	762.464	39.0	2	0.0	0.0	23.0962	70.0	1.0	Certain	-1.08	0.42	2.86425	Yes	n/a	1.49546485260771	n/a	n/a	n/a	TrialHappPreview	Mixed
187.059	4.012	0.028	765.356	39.0	2	0.0	0.0	23.0962	70.0	1.0	Certain	-1.08	0.42	2.86425	Yes	n/a	1.49546485260771	n/a	n/a	448.0	TrialHappiness	Mixed
187.06	0.279	n/a	766.055	39.0	2	0.0	0.0	23.0962	70.0	1.0	Certain	-1.08	0.42	2.86425	Yes	n/a	1.49546485260771	n/a	n/a	448.0	TrialHappinessSliderResponse	Mixed
191.071	3.457	4.012	769.368	39.0	2	0.0	0.0	23.0962	70.0	1.0	Certain	-1.08	0.42	2.86425	Yes	n/a	1.49546485260771	n/a	n/a	n/a	ISIRate	Mixed
194.548	3.0	0.02	772.845	40.0	2	-0.43	-0.22	23.0424	70.0	2.0	Outcome2	10.9	-0.43	0.0	No	2.0	-11.3265306122449	1.416	195.964	n/a	GetAnswer	Loss
195.986	4.0	0.022	774.283	40.0	2	-0.43	-0.22	23.0424	70.0	2.0	Outcome2	10.9	-0.43	0.0	No	n/a	-11.3265306122449	n/a	n/a	n/a	ShowChoice	Loss
199.998	1.0	0.012	778.295	40.0	2	-0.43	-0.22	23.0424	70.0	2.0	Outcome2	10.9	-0.43	0.0	No	n/a	-11.3265306122449	n/a	n/a	n/a	ShowResult	Loss
201.018	3.158	0.02	779.315	40.0	2	-0.43	-0.22	23.0424	70.0	2.0	Outcome2	10.9	-0.43	0.0	No	n/a	-11.3265306122449	n/a	n/a	n/a	ISITrial	Loss
204.194	3.0	0.018	782.491	41.0	2	3.08	2.0	23.4274	70.0	5.0	Outcome2	1.1	3.08	4.0	Yes	2.0	1.97959183673469	1.044	205.238	n/a	GetAnswer	Loss
205.264	4.0	0.026	783.561	41.0	2	3.08	2.0	23.4274	70.0	5.0	Outcome2	1.1	3.08	4.0	Yes	n/a	1.97959183673469	n/a	n/a	n/a	ShowChoice	Loss
209.276	1.0	0.012	787.573	41.0	2	3.08	2.0	23.4274	70.0	5.0	Outcome2	1.1	3.08	4.0	Yes	n/a	1.97959183673469	n/a	n/a	n/a	ShowResult	Loss
210.295	4.506	0.019	788.592	41.0	2	3.08	2.0	23.4274	70.0	5.0	Outcome2	1.1	3.08	4.0	Yes	n/a	1.97959183673469	n/a	n/a	n/a	ISITrial	Loss
214.826	4.0	0.025	793.123	41.0	2	3.08	2.0	23.4274	70.0	5.0	Outcome2	1.1	3.08	4.0	Yes	n/a	1.97959183673469	n/a	n/a	n/a	TrialHappPreview	Loss
218.854	4.012	0.028	797.151	41.0	2	3.08	2.0	23.4274	70.0	5.0	Outcome2	1.1	3.08	4.0	Yes	n/a	1.97959183673469	n/a	n/a	448.0	TrialHappiness	Loss
218.855	0.283	n/a	797.61	41.0	2	3.08	2.0	23.4274	70.0	5.0	Outcome2	1.1	3.08	4.0	Yes	n/a	1.97959183673469	n/a	n/a	448.0	TrialHappinessSliderResponse	Loss
222.866	8.0	4.012	801.163	41.0	2	3.08	2.0	23.4274	70.0	5.0	Outcome2	1.1	3.08	4.0	Yes	n/a	1.97959183673469	n/a	n/a	n/a	ISIRate	Loss
230.89	3.0	0.024	809.187	42.0	2	-7.0	-7.0	22.5524	70.0	0.3	Certain	-1.3	-13.48	0.0	No	4.0	-12.1836734693878	1.831	232.721	n/a	GetAnswer	Mixed
232.746	4.0	0.025	811.043	42.0	2	-7.0	-7.0	22.5524	70.0	0.3	Certain	-1.3	-13.48	0.0	No	n/a	-12.1836734693878	n/a	n/a	n/a	ShowChoice	Mixed
236.758	1.0	0.012	815.055	42.0	2	-7.0	-7.0	22.5524	70.0	0.3	Certain	-1.3	-13.48	0.0	No	n/a	-12.1836734693878	n/a	n/a	n/a	ShowResult	Mixed
237.778	6.248	0.02	816.075	42.0	2	-7.0	-7.0	22.5524	70.0	0.3	Certain	-1.3	-13.48	0.0	No	n/a	-12.1836734693878	n/a	n/a	n/a	ISITrial	Mixed
244.046	3.0	0.02	822.343	43.0	2	-8.91	-2.0	21.4386	70.0	1.0	Outcome2	3.7	-8.91	2.77575	Yes	2.0	-12.6122448979592	1.696	245.742	n/a	GetAnswer	Mixed
245.768	4.0	0.026	824.065	43.0	2	-8.91	-2.0	21.4386	70.0	1.0	Outcome2	3.7	-8.91	2.77575	Yes	n/a	-12.6122448979592	n/a	n/a	n/a	ShowChoice	Mixed
249.78	1.0	0.012	828.077	43.0	2	-8.91	-2.0	21.4386	70.0	1.0	Outcome2	3.7	-8.91	2.77575	Yes	n/a	-12.6122448979592	n/a	n/a	n/a	ShowResult	Mixed
250.8	4.596	0.02	829.097	43.0	2	-8.91	-2.0	21.4386	70.0	1.0	Outcome2	3.7	-8.91	2.77575	Yes	n/a	-12.6122448979592	n/a	n/a	n/a	ISITrial	Mixed
255.414	2.776	0.018	833.711	43.0	2	-8.91	-2.0	21.4386	70.0	1.0	Outcome2	3.7	-8.91	2.77575	Yes	n/a	-12.6122448979592	n/a	n/a	n/a	TrialHappPreview	Mixed
258.205	4.012	0.015	836.502	43.0	2	-8.91	-2.0	21.4386	70.0	1.0	Outcome2	3.7	-8.91	2.77575	Yes	n/a	-12.6122448979592	n/a	n/a	328.0	TrialHappiness	Mixed
258.206	1.706	n/a	836.892	43.0	2	-8.91	-2.0	21.4386	70.0	1.0	Outcome2	3.7	-8.91	2.77575	Yes	n/a	-12.6122448979592	n/a	n/a	328.0	TrialHappinessSliderResponse	Mixed
262.217	3.103	4.012	840.514	43.0	2	-8.91	-2.0	21.4386	70.0	1.0	Outcome2	3.7	-8.91	2.77575	Yes	n/a	-12.6122448979592	n/a	n/a	n/a	ISIRate	Mixed
265.343	3.0	0.023	843.64	44.0	2	-5.0	-5.0	20.8136	70.0	0.3	Certain	0.7	-10.3	0.0	No	4.0	-11.0	1.328	266.671	n/a	GetAnswer	Mixed
266.697	4.0	0.026	844.994	44.0	2	-5.0	-5.0	20.8136	70.0	0.3	Certain	0.7	-10.3	0.0	No	n/a	-11.0	n/a	n/a	n/a	ShowChoice	Mixed
270.709	1.0	0.012	849.006	44.0	2	-5.0	-5.0	20.8136	70.0	0.3	Certain	0.7	-10.3	0.0	No	n/a	-11.0	n/a	n/a	n/a	ShowResult	Mixed
271.729	2.42	0.02	850.026	44.0	2	-5.0	-5.0	20.8136	70.0	0.3	Certain	0.7	-10.3	0.0	No	n/a	-11.0	n/a	n/a	n/a	ISITrial	Mixed
274.17	3.0	0.021	852.467	45.0	2	0.0	0.0	20.8136	70.0	1.2	Certain	-0.64	0.98	0.0	No	4.0	1.6235827664399098	1.5	275.67	n/a	GetAnswer	Mixed
275.691	4.0	0.021	853.988	45.0	2	0.0	0.0	20.8136	70.0	1.2	Certain	-0.64	0.98	0.0	No	n/a	1.6235827664399098	n/a	n/a	n/a	ShowChoice	Mixed
279.703	1.0	0.012	858.0	45.0	2	0.0	0.0	20.8136	70.0	1.2	Certain	-0.64	0.98	0.0	No	n/a	1.6235827664399098	n/a	n/a	n/a	ShowResult	Mixed
280.723	3.144	0.02	859.02	45.0	2	0.0	0.0	20.8136	70.0	1.2	Certain	-0.64	0.98	0.0	No	n/a	1.6235827664399098	n/a	n/a	n/a	ISITrial	Mixed
283.899	3.0	0.032	862.196	46.0	2	-0.28	-1.0	20.7786	70.0	0.4	Outcome2	-1.93	-0.28	3.84125	Yes	n/a	1.64795918367347	n/a	n/a	n/a	GetAnswer	Mixed
286.924	4.0	0.025	865.221	46.0	2	-0.28	-1.0	20.7786	70.0	0.4	Outcome2	-1.93	-0.28	3.84125	Yes	n/a	1.64795918367347	n/a	n/a	n/a	ShowChoice	Mixed
290.936	1.0	0.012	869.233	46.0	2	-0.28	-1.0	20.7786	70.0	0.4	Outcome2	-1.93	-0.28	3.84125	Yes	n/a	1.64795918367347	n/a	n/a	n/a	ShowResult	Mixed
291.956	2.246	0.02	870.253	46.0	2	-0.28	-1.0	20.7786	70.0	0.4	Outcome2	-1.93	-0.28	3.84125	Yes	n/a	1.64795918367347	n/a	n/a	n/a	ISITrial	Mixed
294.213	3.841	0.011	872.51	46.0	2	-0.28	-1.0	20.7786	70.0	0.4	Outcome2	-1.93	-0.28	3.84125	Yes	n/a	1.64795918367347	n/a	n/a	n/a	TrialHappPreview	Mixed
298.074	4.012	0.02	876.371	46.0	2	-0.28	-1.0	20.7786	70.0	0.4	Outcome2	-1.93	-0.28	3.84125	Yes	n/a	1.64795918367347	n/a	n/a	328.0	TrialHappiness	Mixed
298.075	0.525	n/a	876.789	46.0	2	-0.28	-1.0	20.7786	70.0	0.4	Outcome2	-1.93	-0.28	3.84125	Yes	n/a	1.64795918367347	n/a	n/a	328.0	TrialHappinessSliderResponse	Mixed
302.086	7.365	4.012	880.383	46.0	2	-0.28	-1.0	20.7786	70.0	0.4	Outcome2	-1.93	-0.28	3.84125	Yes	n/a	1.64795918367347	n/a	n/a	n/a	ISIRate	Mixed
309.475	3.0	0.024	887.772	47.0	2	-6.98	-1.0	19.9061	70.0	2.0	Outcome2	4.9	-6.98	0.0	No	2.0	-11.877551020408198	1.532	311.007	n/a	GetAnswer	Gain
311.03	4.0	0.023	889.327	47.0	2	-6.98	-1.0	19.9061	70.0	2.0	Outcome2	4.9	-6.98	0.0	No	n/a	-11.877551020408198	n/a	n/a	n/a	ShowChoice	Gain
315.042	1.0	0.012	893.339	47.0	2	-6.98	-1.0	19.9061	70.0	2.0	Outcome2	4.9	-6.98	0.0	No	n/a	-11.877551020408198	n/a	n/a	n/a	ShowResult	Gain
316.062	2.0	0.02	894.359	47.0	2	-6.98	-1.0	19.9061	70.0	2.0	Outcome2	4.9	-6.98	0.0	No	n/a	-11.877551020408198	n/a	n/a	n/a	ISITrial	Gain
318.084	3.0	0.022	896.381	48.0	2	-5.47	0.0	19.2223	70.0	1.82	Outcome2	6.7	-5.47	2.83175	Yes	2.0	-12.1700680272109	1.845	319.929	n/a	GetAnswer	Gain
319.957	4.0	0.028	898.254	48.0	2	-5.47	0.0	19.2223	70.0	1.82	Outcome2	6.7	-5.47	2.83175	Yes	n/a	-12.1700680272109	n/a	n/a	n/a	ShowChoice	Gain
323.969	1.0	0.012	902.266	48.0	2	-5.47	0.0	19.2223	70.0	1.82	Outcome2	6.7	-5.47	2.83175	Yes	n/a	-12.1700680272109	n/a	n/a	n/a	ShowResult	Gain
324.988	3.692	0.019	903.285	48.0	2	-5.47	0.0	19.2223	70.0	1.82	Outcome2	6.7	-5.47	2.83175	Yes	n/a	-12.1700680272109	n/a	n/a	n/a	ISITrial	Gain
328.699	2.832	0.019	906.996	48.0	2	-5.47	0.0	19.2223	70.0	1.82	Outcome2	6.7	-5.47	2.83175	Yes	n/a	-12.1700680272109	n/a	n/a	n/a	TrialHappPreview	Gain
331.558	4.012	0.027	909.855	48.0	2	-5.47	0.0	19.2223	70.0	1.82	Outcome2	6.7	-5.47	2.83175	Yes	n/a	-12.1700680272109	n/a	n/a	136.0	TrialHappiness	Gain
331.559	2.818	n/a	910.138	48.0	2	-5.47	0.0	19.2223	70.0	1.82	Outcome2	6.7	-5.47	2.83175	Yes	n/a	-12.1700680272109	n/a	n/a	136.0	TrialHappinessSliderResponse	Gain
335.57	3.327	4.012	913.867	48.0	2	-5.47	0.0	19.2223	70.0	1.82	Outcome2	6.7	-5.47	2.83175	Yes	n/a	-12.1700680272109	n/a	n/a	n/a	ISIRate	Gain
338.913	3.0	0.016	917.21	49.0	2	-1.0	-1.0	19.0973	70.0	0.82	Certain	-5.7	3.5	0.0	No	4.0	-9.19727891156463	1.503	340.416	n/a	GetAnswer	Mixed
340.434	4.0	0.018	918.731	49.0	2	-1.0	-1.0	19.0973	70.0	0.82	Certain	-5.7	3.5	0.0	No	n/a	-9.19727891156463	n/a	n/a	n/a	ShowChoice	Mixed
344.446	1.0	0.012	922.743	49.0	2	-1.0	-1.0	19.0973	70.0	0.82	Certain	-5.7	3.5	0.0	No	n/a	-9.19727891156463	n/a	n/a	n/a	ShowResult	Mixed
345.466	8.0	0.02	923.763	49.0	2	-1.0	-1.0	19.0973	70.0	0.82	Certain	-5.7	3.5	0.0	No	n/a	-9.19727891156463	n/a	n/a	n/a	ISITrial	Mixed
353.49	3.0	0.024	931.787	50.0	2	-0.77	-0.38	19.0011	70.0	1.68	Outcome2	8.5	-0.77	3.54725	Yes	2.0	-9.27210884353742	1.3	354.79	n/a	GetAnswer	Gain
354.811	4.0	0.021	933.108	50.0	2	-0.77	-0.38	19.0011	70.0	1.68	Outcome2	8.5	-0.77	3.54725	Yes	n/a	-9.27210884353742	n/a	n/a	n/a	ShowChoice	Gain
358.823	1.0	0.012	937.12	50.0	2	-0.77	-0.38	19.0011	70.0	1.68	Outcome2	8.5	-0.77	3.54725	Yes	n/a	-9.27210884353742	n/a	n/a	n/a	ShowResult	Gain
359.842	7.537	0.019	938.139	50.0	2	-0.77	-0.38	19.0011	70.0	1.68	Outcome2	8.5	-0.77	3.54725	Yes	n/a	-9.27210884353742	n/a	n/a	n/a	ISITrial	Gain
367.398	3.547	0.019	945.695	50.0	2	-0.77	-0.38	19.0011	70.0	1.68	Outcome2	8.5	-0.77	3.54725	Yes	n/a	-9.27210884353742	n/a	n/a	n/a	TrialHappPreview	Gain
370.959	4.012	0.014	949.256	50.0	2	-0.77	-0.38	19.0011	70.0	1.68	Outcome2	8.5	-0.77	3.54725	Yes	n/a	-9.27210884353742	n/a	n/a	140.0	TrialHappiness	Gain
370.96	3.443	n/a	949.739	50.0	2	-0.77	-0.38	19.0011	70.0	1.68	Outcome2	8.5	-0.77	3.54725	Yes	n/a	-9.27210884353742	n/a	n/a	140.0	TrialHappinessSliderResponse	Gain
374.971	6.189	4.012	953.268	50.0	2	-0.77	-0.38	19.0011	70.0	1.68	Outcome2	8.5	-0.77	3.54725	Yes	n/a	-9.27210884353742	n/a	n/a	n/a	ISIRate	Gain
381.19	3.0	0.03	959.487	51.0	2	-0.32	-0.16	18.9611	70.0	2.22	Outcome1	-0.32	9.1	0.0	No	2.0	-9.41496598639456	1.431	382.621	n/a	GetAnswer	Gain
382.644	4.0	0.023	960.941	51.0	2	-0.32	-0.16	18.9611	70.0	2.22	Outcome1	-0.32	9.1	0.0	No	n/a	-9.41496598639456	n/a	n/a	n/a	ShowChoice	Gain
386.656	1.0	0.012	964.953	51.0	2	-0.32	-0.16	18.9611	70.0	2.22	Outcome1	-0.32	9.1	0.0	No	n/a	-9.41496598639456	n/a	n/a	n/a	ShowResult	Gain
387.676	5.508	0.02	965.973	51.0	2	-0.32	-0.16	18.9611	70.0	2.22	Outcome1	-0.32	9.1	0.0	No	n/a	-9.41496598639456	n/a	n/a	n/a	ISITrial	Gain
393.209	3.0	0.025	971.506	52.0	2	2.33	2.0	19.2523	70.0	2.48	Outcome2	1.35	2.33	0.0	No	2.0	0.976379440665155	2.005	395.214	n/a	GetAnswer	Gain
395.232	4.0	0.018	973.529	52.0	2	2.33	2.0	19.2523	70.0	2.48	Outcome2	1.35	2.33	0.0	No	n/a	0.976379440665155	n/a	n/a	n/a	ShowChoice	Gain
399.244	1.0	0.012	977.541	52.0	2	2.33	2.0	19.2523	70.0	2.48	Outcome2	1.35	2.33	0.0	No	n/a	0.976379440665155	n/a	n/a	n/a	ShowResult	Gain
400.263	5.913	0.019	978.56	52.0	2	2.33	2.0	19.2523	70.0	2.48	Outcome2	1.35	2.33	0.0	No	n/a	0.976379440665155	n/a	n/a	n/a	ISITrial	Gain
406.198	3.0	0.022	984.495	53.0	2	-3.0	-3.0	18.8773	70.0	0.66	Certain	1.3	-8.27	2.99675	Yes	4.0	-9.57369614512472	2.112	408.31	n/a	GetAnswer	Mixed
408.321	4.0	0.011	986.618	53.0	2	-3.0	-3.0	18.8773	70.0	0.66	Certain	1.3	-8.27	2.99675	Yes	n/a	-9.57369614512472	n/a	n/a	n/a	ShowChoice	Mixed
412.333	1.0	0.012	990.63	53.0	2	-3.0	-3.0	18.8773	70.0	0.66	Certain	1.3	-8.27	2.99675	Yes	n/a	-9.57369614512472	n/a	n/a	n/a	ShowResult	Mixed
413.352	3.66	0.019	991.649	53.0	2	-3.0	-3.0	18.8773	70.0	0.66	Certain	1.3	-8.27	2.99675	Yes	n/a	-9.57369614512472	n/a	n/a	n/a	ISITrial	Mixed
417.03	2.997	0.018	995.327	53.0	2	-3.0	-3.0	18.8773	70.0	0.66	Certain	1.3	-8.27	2.99675	Yes	n/a	-9.57369614512472	n/a	n/a	n/a	TrialHappPreview	Mixed
420.056	4.029	0.029	998.353	53.0	2	-3.0	-3.0	18.8773	70.0	0.66	Certain	1.3	-8.27	2.99675	Yes	n/a	-9.57369614512472	n/a	n/a	152.0	TrialHappiness	Mixed
420.056	1.535	n/a	998.712	53.0	2	-3.0	-3.0	18.8773	70.0	0.66	Certain	1.3	-8.27	2.99675	Yes	n/a	-9.57369614512472	n/a	n/a	152.0	TrialHappinessSliderResponse	Mixed
424.085	3.987	4.029	1002.382	53.0	2	-3.0	-3.0	18.8773	70.0	0.66	Certain	1.3	-8.27	2.99675	Yes	n/a	-9.57369614512472	n/a	n/a	n/a	ISIRate	Mixed
428.097	3.0	0.025	1006.394	54.0	2	3.38	1.17	19.2998	70.0	2.8	Outcome2	2.34	3.38	0.0	No	2.0	1.03835978835979	1.384	429.481	n/a	GetAnswer	Loss
429.501	4.0	0.02	1007.798	54.0	2	3.38	1.17	19.2998	70.0	2.8	Outcome2	2.34	3.38	0.0	No	n/a	1.03835978835979	n/a	n/a	n/a	ShowChoice	Loss
433.513	1.0	0.012	1011.81	54.0	2	3.38	1.17	19.2998	70.0	2.8	Outcome2	2.34	3.38	0.0	No	n/a	1.03835978835979	n/a	n/a	n/a	ShowResult	Loss
434.532	8.0	0.019	1012.829	54.0	2	3.38	1.17	19.2998	70.0	2.8	Outcome2	2.34	3.38	0.0	No	n/a	1.03835978835979	n/a	n/a	n/a	ISITrial	Loss
485.619	2.917	n/a	1064.332	n/a	2	n/a	n/a	n/a	n/a	n/a	n/a	n/a	n/a	n/a	n/a	n/a	n/a	n/a	n/a	248.0	BlockStartHappinessSliderResponse	n/a
-49.816	-0.001	0.024	1020.853	n/a	3	n/a	n/a	n/a	n/a	n/a	n/a	n/a	n/a	n/a	n/a	{SPACE}	n/a	39.034	-10.782	n/a	Rest	n/a
-10.765	4.0	0.017	1059.904	n/a	3	n/a	n/a	n/a	n/a	n/a	n/a	n/a	n/a	n/a	n/a	n/a	n/a	n/a	n/a	n/a	BlockHappyPreview	n/a
-6.753	3.333	0.012	1063.916	n/a	3	n/a	n/a	n/a	n/a	n/a	n/a	n/a	n/a	n/a	n/a	n/a	n/a	n/a	n/a	248.0	BlockStartHappiness	n/a
-1.287	-0.001	0.023	1069.382	n/a	3	n/a	n/a	n/a	n/a	n/a	n/a	n/a	n/a	n/a	n/a	5.0	n/a	1.266	-0.021	n/a	ScanWait	n/a
0.0	10.0	0.021	1070.669	n/a	3	n/a	n/a	n/a	n/a	n/a	n/a	n/a	n/a	n/a	n/a	n/a	n/a	n/a	n/a	n/a	GetReady	n/a
10.03	3.0	0.03	1080.699	55.0	3	2.5	-3.0	19.6123	955.0	0.2	Outcome1	2.5	-9.51	2.53325	Yes	2.0	12.0101925254813	1.848	11.878	n/a	GetAnswer	Mixed
11.902	4.0	0.024	1082.571	55.0	3	2.5	-3.0	19.6123	955.0	0.2	Outcome1	2.5	-9.51	2.53325	Yes	n/a	12.0101925254813	n/a	n/a	n/a	ShowChoice	Mixed
15.914	1.0	0.012	1086.583	55.0	3	2.5	-3.0	19.6123	955.0	0.2	Outcome1	2.5	-9.51	2.53325	Yes	n/a	12.0101925254813	n/a	n/a	n/a	ShowResult	Mixed
16.934	7.709	0.02	1087.603	55.0	3	2.5	-3.0	19.6123	955.0	0.2	Outcome1	2.5	-9.51	2.53325	Yes	n/a	12.0101925254813	n/a	n/a	n/a	ISITrial	Mixed
24.657	2.533	0.014	1095.326	55.0	3	2.5	-3.0	19.6123	955.0	0.2	Outcome1	2.5	-9.51	2.53325	Yes	n/a	12.0101925254813	n/a	n/a	n/a	TrialHappPreview	Mixed
27.215	4.028	0.025	1097.884	55.0	3	2.5	-3.0	19.6123	955.0	0.2	Outcome1	2.5	-9.51	2.53325	Yes	n/a	12.0101925254813	n/a	n/a	376.0	TrialHappiness	Mixed
27.215	1.101	n/a	1098.428	55.0	3	2.5	-3.0	19.6123	955.0	0.2	Outcome1	2.5	-9.51	2.53325	Yes	n/a	12.0101925254813	n/a	n/a	376.0	TrialHappinessSliderResponse	Mixed
31.243	2.133	4.028	1101.912	55.0	3	2.5	-3.0	19.6123	955.0	0.2	Outcome1	2.5	-9.51	2.53325	Yes	n/a	12.0101925254813	n/a	n/a	n/a	ISIRate	Mixed
33.4	3.0	0.024	1104.069	56.0	3	3.28	1.64	20.0223	955.0	3.16	Outcome1	3.28	5.7	0.0	No	2.0	-2.41638354095885	1.21	34.61	n/a	GetAnswer	Gain
34.637	4.0	0.027	1105.306	56.0	3	3.28	1.64	20.0223	955.0	3.16	Outcome1	3.28	5.7	0.0	No	n/a	-2.41638354095885	n/a	n/a	n/a	ShowChoice	Gain
38.666	1.0	0.029	1109.335	56.0	3	3.28	1.64	20.0223	955.0	3.16	Outcome1	3.28	5.7	0.0	No	n/a	-2.41638354095885	n/a	n/a	n/a	ShowResult	Gain
39.685	4.697	0.019	1110.354	56.0	3	3.28	1.64	20.0223	955.0	3.16	Outcome1	3.28	5.7	0.0	No	n/a	-2.41638354095885	n/a	n/a	n/a	ISITrial	Gain
44.416	3.0	0.034	1115.085	57.0	3	-2.0	-2.0	19.7723	955.0	0.4	Certain	-8.39	2.9	0.0	No	4.0	11.2921857304643	2.426	46.842	n/a	GetAnswer	Mixed
46.857	4.0	0.015	1117.526	57.0	3	-2.0	-2.0	19.7723	955.0	0.4	Certain	-8.39	2.9	0.0	No	n/a	11.2921857304643	n/a	n/a	n/a	ShowChoice	Mixed
50.886	1.0	0.029	1121.555	57.0	3	-2.0	-2.0	19.7723	955.0	0.4	Certain	-8.39	2.9	0.0	No	n/a	11.2921857304643	n/a	n/a	n/a	ShowResult	Mixed
51.905	4.291	0.019	1122.574	57.0	3	-2.0	-2.0	19.7723	955.0	0.4	Certain	-8.39	2.9	0.0	No	n/a	11.2921857304643	n/a	n/a	n/a	ISITrial	Mixed
56.218	3.0	0.022	1126.887	58.0	3	-6.0	-6.0	19.0223	955.0	1.0	Certain	-0.3	-12.25	3.04575	Yes	4.0	11.9479048697622	2.874	59.092	n/a	GetAnswer	Mixed
59.11	4.0	0.018	1129.779	58.0	3	-6.0	-6.0	19.0223	955.0	1.0	Certain	-0.3	-12.25	3.04575	Yes	n/a	11.9479048697622	n/a	n/a	n/a	ShowChoice	Mixed
63.139	1.0	0.029	1133.808	58.0	3	-6.0	-6.0	19.0223	955.0	1.0	Certain	-0.3	-12.25	3.04575	Yes	n/a	11.9479048697622	n/a	n/a	n/a	ShowResult	Mixed
64.159	2.037	0.02	1134.828	58.0	3	-6.0	-6.0	19.0223	955.0	1.0	Certain	-0.3	-12.25	3.04575	Yes	n/a	11.9479048697622	n/a	n/a	n/a	ISITrial	Mixed
66.215	3.046	0.019	1136.884	58.0	3	-6.0	-6.0	19.0223	955.0	1.0	Certain	-0.3	-12.25	3.04575	Yes	n/a	11.9479048697622	n/a	n/a	n/a	TrialHappPreview	Mixed
69.291	4.012	0.03	1139.96	58.0	3	-6.0	-6.0	19.0223	955.0	1.0	Certain	-0.3	-12.25	3.04575	Yes	n/a	11.9479048697622	n/a	n/a	368.0	TrialHappiness	Mixed
69.291	0.451	n/a	1140.534	58.0	3	-6.0	-6.0	19.0223	955.0	1.0	Certain	-0.3	-12.25	3.04575	Yes	n/a	11.9479048697622	n/a	n/a	368.0	TrialHappinessSliderResponse	Mixed
73.303	4.183	4.012	1143.972	58.0	3	-6.0	-6.0	19.0223	955.0	1.0	Certain	-0.3	-12.25	3.04575	Yes	n/a	11.9479048697622	n/a	n/a	n/a	ISIRate	Mixed
77.515	3.0	0.029	1148.184	59.0	3	2.69	1.34	19.3585	955.0	2.48	Outcome2	5.3	2.69	0.0	No	2.0	-2.61277840694602	1.295	78.81	n/a	GetAnswer	Gain
78.836	4.0	0.026	1149.505	59.0	3	2.69	1.34	19.3585	955.0	2.48	Outcome2	5.3	2.69	0.0	No	n/a	-2.61277840694602	n/a	n/a	n/a	ShowChoice	Gain
82.848	1.0	0.012	1153.517	59.0	3	2.69	1.34	19.3585	955.0	2.48	Outcome2	5.3	2.69	0.0	No	n/a	-2.61277840694602	n/a	n/a	n/a	ShowResult	Gain
83.867	5.064	0.019	1154.536	59.0	3	2.69	1.34	19.3585	955.0	2.48	Outcome2	5.3	2.69	0.0	No	n/a	-2.61277840694602	n/a	n/a	n/a	ISITrial	Gain
88.949	3.0	0.018	1159.618	60.0	3	13.9	0.25	21.096	955.0	3.6	Outcome2	0.5	13.9	3.5625	Yes	2.0	13.4043035107588	0.851	89.8	n/a	GetAnswer	Loss
89.819	4.0	0.019	1160.488	60.0	3	13.9	0.25	21.096	955.0	3.6	Outcome2	0.5	13.9	3.5625	Yes	n/a	13.4043035107588	n/a	n/a	n/a	ShowChoice	Loss
93.831	1.0	0.012	1164.5	60.0	3	13.9	0.25	21.096	955.0	3.6	Outcome2	0.5	13.9	3.5625	Yes	n/a	13.4043035107588	n/a	n/a	n/a	ShowResult	Loss
94.85	8.0	0.019	1165.519	60.0	3	13.9	0.25	21.096	955.0	3.6	Outcome2	0.5	13.9	3.5625	Yes	n/a	13.4043035107588	n/a	n/a	n/a	ISITrial	Loss
102.874	3.562	0.024	1173.543	60.0	3	13.9	0.25	21.096	955.0	3.6	Outcome2	0.5	13.9	3.5625	Yes	n/a	13.4043035107588	n/a	n/a	n/a	TrialHappPreview	Loss
106.452	4.012	0.016	1177.121	60.0	3	13.9	0.25	21.096	955.0	3.6	Outcome2	0.5	13.9	3.5625	Yes	n/a	13.4043035107588	n/a	n/a	472.0	TrialHappiness	Loss
106.452	2.4	n/a	1177.837	60.0	3	13.9	0.25	21.096	955.0	3.6	Outcome2	0.5	13.9	3.5625	Yes	n/a	13.4043035107588	n/a	n/a	472.0	TrialHappinessSliderResponse	Loss
110.464	6.25	4.012	1181.133	60.0	3	13.9	0.25	21.096	955.0	3.6	Outcome2	0.5	13.9	3.5625	Yes	n/a	13.4043035107588	n/a	n/a	n/a	ISIRate	Loss
116.732	3.0	0.018	1187.401	61.0	3	1.0	1.0	21.221	955.0	2.8	Certain	7.5	-4.8	0.0	No	4.0	12.3023782559456	1.821	118.553	n/a	GetAnswer	Gain
118.571	4.0	0.018	1189.24	61.0	3	1.0	1.0	21.221	955.0	2.8	Certain	7.5	-4.8	0.0	No	n/a	12.3023782559456	n/a	n/a	n/a	ShowChoice	Gain
122.583	1.0	0.012	1193.252	61.0	3	1.0	1.0	21.221	955.0	2.8	Certain	7.5	-4.8	0.0	No	n/a	12.3023782559456	n/a	n/a	n/a	ShowResult	Gain
123.603	4.586	0.02	1194.272	61.0	3	1.0	1.0	21.221	955.0	2.8	Certain	7.5	-4.8	0.0	No	n/a	12.3023782559456	n/a	n/a	n/a	ISITrial	Gain
128.217	3.0	0.028	1198.886	62.0	3	1.9	-4.0	21.4585	955.0	1.2	Outcome1	1.9	-10.95	3.74875	Yes	n/a	12.8493771234428	n/a	n/a	n/a	GetAnswer	Mixed
131.242	4.0	0.025	1201.911	62.0	3	1.9	-4.0	21.4585	955.0	1.2	Outcome1	1.9	-10.95	3.74875	Yes	n/a	12.8493771234428	n/a	n/a	n/a	ShowChoice	Mixed
135.254	1.0	0.012	1205.923	62.0	3	1.9	-4.0	21.4585	955.0	1.2	Outcome1	1.9	-10.95	3.74875	Yes	n/a	12.8493771234428	n/a	n/a	n/a	ShowResult	Mixed
136.274	5.212	0.02	1206.943	62.0	3	1.9	-4.0	21.4585	955.0	1.2	Outcome1	1.9	-10.95	3.74875	Yes	n/a	12.8493771234428	n/a	n/a	n/a	ISITrial	Mixed
141.506	3.749	0.02	1212.175	62.0	3	1.9	-4.0	21.4585	955.0	1.2	Outcome1	1.9	-10.95	3.74875	Yes	n/a	12.8493771234428	n/a	n/a	n/a	TrialHappPreview	Mixed
145.284	4.012	0.029	1215.953	62.0	3	1.9	-4.0	21.4585	955.0	1.2	Outcome1	1.9	-10.95	3.74875	Yes	n/a	12.8493771234428	n/a	n/a	512.0	TrialHappiness	Mixed
145.285	0.0	n/a	1215.954	62.0	3	1.9	-4.0	21.4585	955.0	1.2	Outcome1	1.9	-10.95	3.74875	Yes	n/a	12.8493771234428	n/a	n/a	512.0	TrialHappinessSliderResponse	Mixed
149.296	6.995	4.012	1219.965	62.0	3	1.9	-4.0	21.4585	955.0	1.2	Outcome1	1.9	-10.95	3.74875	Yes	n/a	12.8493771234428	n/a	n/a	n/a	ISIRate	Mixed
156.317	3.0	0.026	1226.986	63.0	3	-0.1	-6.0	21.446	955.0	1.2	Outcome1	-0.1	-12.82	0.0	No	2.0	12.7168742921857	2.186	158.503	n/a	GetAnswer	Mixed
158.524	4.0	0.021	1229.193	63.0	3	-0.1	-6.0	21.446	955.0	1.2	Outcome1	-0.1	-12.82	0.0	No	n/a	12.7168742921857	n/a	n/a	n/a	ShowChoice	Mixed
162.536	1.0	0.012	1233.205	63.0	3	-0.1	-6.0	21.446	955.0	1.2	Outcome1	-0.1	-12.82	0.0	No	n/a	12.7168742921857	n/a	n/a	n/a	ShowResult	Mixed
163.556	5.595	0.02	1234.225	63.0	3	-0.1	-6.0	21.446	955.0	1.2	Outcome1	-0.1	-12.82	0.0	No	n/a	12.7168742921857	n/a	n/a	n/a	ISITrial	Mixed
169.173	3.0	0.022	1239.842	64.0	3	8.1	1.0	22.4585	955.0	4.2	Outcome2	-5.12	8.1	0.0	No	2.0	13.2185730464326	1.105	170.278	n/a	GetAnswer	Gain
170.293	4.0	0.015	1240.962	64.0	3	8.1	1.0	22.4585	955.0	4.2	Outcome2	-5.12	8.1	0.0	No	n/a	13.2185730464326	n/a	n/a	n/a	ShowChoice	Gain
174.305	1.0	0.012	1244.974	64.0	3	8.1	1.0	22.4585	955.0	4.2	Outcome2	-5.12	8.1	0.0	No	n/a	13.2185730464326	n/a	n/a	n/a	ShowResult	Gain
175.324	5.47	0.019	1245.993	64.0	3	8.1	1.0	22.4585	955.0	4.2	Outcome2	-5.12	8.1	0.0	No	n/a	13.2185730464326	n/a	n/a	n/a	ISITrial	Gain
180.824	3.0	0.03	1251.493	65.0	3	0.0	0.0	22.4585	955.0	2.22	Certain	7.1	-6.62	2.99675	Yes	4.0	13.7202718006795	2.374	183.198	n/a	GetAnswer	Gain
183.215	4.0	0.017	1253.884	65.0	3	0.0	0.0	22.4585	955.0	2.22	Certain	7.1	-6.62	2.99675	Yes	n/a	13.7202718006795	n/a	n/a	n/a	ShowChoice	Gain
187.227	1.0	0.012	1257.896	65.0	3	0.0	0.0	22.4585	955.0	2.22	Certain	7.1	-6.62	2.99675	Yes	n/a	13.7202718006795	n/a	n/a	n/a	ShowResult	Gain
188.246	3.344	0.019	1258.915	65.0	3	0.0	0.0	22.4585	955.0	2.22	Certain	7.1	-6.62	2.99675	Yes	n/a	13.7202718006795	n/a	n/a	n/a	ISITrial	Gain
191.606	2.997	0.016	1262.275	65.0	3	0.0	0.0	22.4585	955.0	2.22	Certain	7.1	-6.62	2.99675	Yes	n/a	13.7202718006795	n/a	n/a	n/a	TrialHappPreview	Gain
194.632	4.012	0.029	1265.301	65.0	3	0.0	0.0	22.4585	955.0	2.22	Certain	7.1	-6.62	2.99675	Yes	n/a	13.7202718006795	n/a	n/a	560.0	TrialHappiness	Gain
194.633	0.242	n/a	1265.853	65.0	3	0.0	0.0	22.4585	955.0	2.22	Certain	7.1	-6.62	2.99675	Yes	n/a	13.7202718006795	n/a	n/a	560.0	TrialHappinessSliderResponse	Gain
198.644	3.987	4.012	1269.313	65.0	3	0.0	0.0	22.4585	955.0	2.22	Certain	7.1	-6.62	2.99675	Yes	n/a	13.7202718006795	n/a	n/a	n/a	ISIRate	Gain
202.656	3.0	0.025	1273.325	66.0	3	9.7	-1.86	23.671	955.0	3.16	Outcome1	9.7	-3.71	0.0	No	2.0	13.406568516421302	1.158	203.814	n/a	GetAnswer	Gain
203.843	4.0	0.029	1274.512	66.0	3	9.7	-1.86	23.671	955.0	3.16	Outcome1	9.7	-3.71	0.0	No	n/a	13.406568516421302	n/a	n/a	n/a	ShowChoice	Gain
207.855	1.0	0.012	1278.524	66.0	3	9.7	-1.86	23.671	955.0	3.16	Outcome1	9.7	-3.71	0.0	No	n/a	13.406568516421302	n/a	n/a	n/a	ShowResult	Gain
208.875	3.959	0.02	1279.544	66.0	3	9.7	-1.86	23.671	955.0	3.16	Outcome1	9.7	-3.71	0.0	No	n/a	13.406568516421302	n/a	n/a	n/a	ISITrial	Gain
212.853	3.0	0.019	1283.522	67.0	3	8.9	4.45	24.7835	955.0	2.22	Outcome2	11.1	8.9	2.9185	Yes	2.0	-2.19828237070593	1.28	214.133	n/a	GetAnswer	Loss
214.157	4.0	0.024	1284.826	67.0	3	8.9	4.45	24.7835	955.0	2.22	Outcome2	11.1	8.9	2.9185	Yes	n/a	-2.19828237070593	n/a	n/a	n/a	ShowChoice	Loss
218.169	1.0	0.012	1288.838	67.0	3	8.9	4.45	24.7835	955.0	2.22	Outcome2	11.1	8.9	2.9185	Yes	n/a	-2.19828237070593	n/a	n/a	n/a	ShowResult	Loss
219.189	4.199	0.02	1289.858	67.0	3	8.9	4.45	24.7835	955.0	2.22	Outcome2	11.1	8.9	2.9185	Yes	n/a	-2.19828237070593	n/a	n/a	n/a	ISITrial	Loss
223.401	2.918	0.013	1294.07	67.0	3	8.9	4.45	24.7835	955.0	2.22	Outcome2	11.1	8.9	2.9185	Yes	n/a	-2.19828237070593	n/a	n/a	n/a	TrialHappPreview	Loss
226.343	4.012	0.024	1297.012	67.0	3	8.9	4.45	24.7835	955.0	2.22	Outcome2	11.1	8.9	2.9185	Yes	n/a	-2.19828237070593	n/a	n/a	568.0	TrialHappiness	Loss
226.344	0.257	n/a	1297.783	67.0	3	8.9	4.45	24.7835	955.0	2.22	Outcome2	11.1	8.9	2.9185	Yes	n/a	-2.19828237070593	n/a	n/a	568.0	TrialHappinessSliderResponse	Loss
230.355	3.674	4.012	1301.024	67.0	3	8.9	4.45	24.7835	955.0	2.22	Outcome2	11.1	8.9	2.9185	Yes	n/a	-2.19828237070593	n/a	n/a	n/a	ISIRate	Loss
234.05	3.0	0.021	1304.719	68.0	3	8.1	4.05	25.796	955.0	5.0	Outcome1	8.1	10.3	0.0	No	2.0	-2.20309550773877	1.384	235.434	n/a	GetAnswer	Gain
235.454	4.0	0.02	1306.123	68.0	3	8.1	4.05	25.796	955.0	5.0	Outcome1	8.1	10.3	0.0	No	n/a	-2.20309550773877	n/a	n/a	n/a	ShowChoice	Gain
239.466	1.0	0.012	1310.135	68.0	3	8.1	4.05	25.796	955.0	5.0	Outcome1	8.1	10.3	0.0	No	n/a	-2.20309550773877	n/a	n/a	n/a	ShowResult	Gain
240.486	2.185	0.02	1311.155	68.0	3	8.1	4.05	25.796	955.0	5.0	Outcome1	8.1	10.3	0.0	No	n/a	-2.20309550773877	n/a	n/a	n/a	ISITrial	Gain
242.692	3.0	0.021	1313.361	69.0	3	-0.5	-8.0	25.7335	955.0	0.82	Outcome1	-0.5	-15.1	0.0	No	2.0	14.60362400906	2.08	244.772	n/a	GetAnswer	Mixed
244.799	4.0	0.027	1315.468	69.0	3	-0.5	-8.0	25.7335	955.0	0.82	Outcome1	-0.5	-15.1	0.0	No	n/a	14.60362400906	n/a	n/a	n/a	ShowChoice	Mixed
248.811	1.0	0.012	1319.48	69.0	3	-0.5	-8.0	25.7335	955.0	0.82	Outcome1	-0.5	-15.1	0.0	No	n/a	14.60362400906	n/a	n/a	n/a	ShowResult	Mixed
249.83	2.0	0.019	1320.499	69.0	3	-0.5	-8.0	25.7335	955.0	0.82	Outcome1	-0.5	-15.1	0.0	No	n/a	14.60362400906	n/a	n/a	n/a	ISITrial	Mixed
251.853	3.0	0.023	1322.522	70.0	3	-9.0	-9.0	24.6085	955.0	0.2	Certain	-1.5	-16.54	3.65125	Yes	4.0	15.0419026047565	1.881	253.734	n/a	GetAnswer	Mixed
253.759	4.0	0.025	1324.428	70.0	3	-9.0	-9.0	24.6085	955.0	0.2	Certain	-1.5	-16.54	3.65125	Yes	n/a	15.0419026047565	n/a	n/a	n/a	ShowChoice	Mixed
257.771	1.0	0.012	1328.44	70.0	3	-9.0	-9.0	24.6085	955.0	0.2	Certain	-1.5	-16.54	3.65125	Yes	n/a	15.0419026047565	n/a	n/a	n/a	ShowResult	Mixed
258.791	2.623	0.02	1329.46	70.0	3	-9.0	-9.0	24.6085	955.0	0.2	Certain	-1.5	-16.54	3.65125	Yes	n/a	15.0419026047565	n/a	n/a	n/a	ISITrial	Mixed
261.432	3.651	0.018	1332.101	70.0	3	-9.0	-9.0	24.6085	955.0	0.2	Certain	-1.5	-16.54	3.65125	Yes	n/a	15.0419026047565	n/a	n/a	n/a	TrialHappPreview	Mixed
265.109	4.012	0.026	1335.778	70.0	3	-9.0	-9.0	24.6085	955.0	0.2	Certain	-1.5	-16.54	3.65125	Yes	n/a	15.0419026047565	n/a	n/a	472.0	TrialHappiness	Mixed
265.11	2.091	n/a	1337.562	70.0	3	-9.0	-9.0	24.6085	955.0	0.2	Certain	-1.5	-16.54	3.65125	Yes	n/a	15.0419026047565	n/a	n/a	472.0	TrialHappinessSliderResponse	Mixed
269.121	6.605	4.012	1339.79	70.0	3	-9.0	-9.0	24.6085	955.0	0.2	Certain	-1.5	-16.54	3.65125	Yes	n/a	15.0419026047565	n/a	n/a	n/a	ISIRate	Mixed
275.758	3.0	0.032	1346.427	71.0	3	11.3	2.0	26.021	955.0	2.48	Outcome2	-5.81	11.3	0.0	No	2.0	17.1109852774632	1.428	277.186	n/a	GetAnswer	Loss
277.212	4.0	0.026	1347.881	71.0	3	11.3	2.0	26.021	955.0	2.48	Outcome2	-5.81	11.3	0.0	No	n/a	17.1109852774632	n/a	n/a	n/a	ShowChoice	Loss
281.224	1.0	0.012	1351.893	71.0	3	11.3	2.0	26.021	955.0	2.48	Outcome2	-5.81	11.3	0.0	No	n/a	17.1109852774632	n/a	n/a	n/a	ShowResult	Loss
282.244	5.499	0.02	1352.913	71.0	3	11.3	2.0	26.021	955.0	2.48	Outcome2	-5.81	11.3	0.0	No	n/a	17.1109852774632	n/a	n/a	n/a	ISITrial	Loss
287.76	3.0	0.017	1358.429	72.0	3	-5.0	-5.0	25.396	955.0	0.52	Certain	-14.56	3.1	3.0805	Yes	4.0	17.6579841449604	2.349	290.109	n/a	GetAnswer	Mixed
290.134	4.0	0.025	1360.803	72.0	3	-5.0	-5.0	25.396	955.0	0.52	Certain	-14.56	3.1	3.0805	Yes	n/a	17.6579841449604	n/a	n/a	n/a	ShowChoice	Mixed
294.146	1.0	0.012	1364.815	72.0	3	-5.0	-5.0	25.396	955.0	0.52	Certain	-14.56	3.1	3.0805	Yes	n/a	17.6579841449604	n/a	n/a	n/a	ShowResult	Mixed
295.166	5.672	0.02	1365.835	72.0	3	-5.0	-5.0	25.396	955.0	0.52	Certain	-14.56	3.1	3.0805	Yes	n/a	17.6579841449604	n/a	n/a	n/a	ISITrial	Mixed
300.85	3.08	0.012	1371.519	72.0	3	-5.0	-5.0	25.396	955.0	0.52	Certain	-14.56	3.1	3.0805	Yes	n/a	17.6579841449604	n/a	n/a	n/a	TrialHappPreview	Mixed
303.959	4.012	0.029	1374.628	72.0	3	-5.0	-5.0	25.396	955.0	0.52	Certain	-14.56	3.1	3.0805	Yes	n/a	17.6579841449604	n/a	n/a	608.0	TrialHappiness	Mixed
303.959	0.345	n/a	1375.659	72.0	3	-5.0	-5.0	25.396	955.0	0.52	Certain	-14.56	3.1	3.0805	Yes	n/a	17.6579841449604	n/a	n/a	608.0	TrialHappinessSliderResponse	Mixed
307.971	4.322	4.012	1378.64	72.0	3	-5.0	-5.0	25.396	955.0	0.52	Certain	-14.56	3.1	3.0805	Yes	n/a	17.6579841449604	n/a	n/a	n/a	ISIRate	Mixed
312.317	3.0	0.024	1382.986	73.0	3	8.3	0.0	26.4335	955.0	5.0	Outcome2	-7.59	8.3	0.0	No	2.0	15.8946772366931	1.37	313.687	n/a	GetAnswer	Gain
313.705	4.0	0.018	1384.374	73.0	3	8.3	0.0	26.4335	955.0	5.0	Outcome2	-7.59	8.3	0.0	No	n/a	15.8946772366931	n/a	n/a	n/a	ShowChoice	Gain
317.717	1.0	0.012	1388.386	73.0	3	8.3	0.0	26.4335	955.0	5.0	Outcome2	-7.59	8.3	0.0	No	n/a	15.8946772366931	n/a	n/a	n/a	ShowResult	Gain
318.736	4.616	0.019	1389.405	73.0	3	8.3	0.0	26.4335	955.0	5.0	Outcome2	-7.59	8.3	0.0	No	n/a	15.8946772366931	n/a	n/a	n/a	ISITrial	Gain
323.384	3.0	0.032	1394.053	74.0	3	6.9	-1.0	27.296	955.0	2.0	Outcome1	6.9	-9.39	3.05625	Yes	2.0	16.287655719139302	1.386	324.77	n/a	GetAnswer	Gain
324.788	4.0	0.018	1395.457	74.0	3	6.9	-1.0	27.296	955.0	2.0	Outcome1	6.9	-9.39	3.05625	Yes	n/a	16.287655719139302	n/a	n/a	n/a	ShowChoice	Gain
328.8	1.0	0.012	1399.469	74.0	3	6.9	-1.0	27.296	955.0	2.0	Outcome1	6.9	-9.39	3.05625	Yes	n/a	16.287655719139302	n/a	n/a	n/a	ShowResult	Gain
329.82	3.909	0.02	1400.489	74.0	3	6.9	-1.0	27.296	955.0	2.0	Outcome1	6.9	-9.39	3.05625	Yes	n/a	16.287655719139302	n/a	n/a	n/a	ISITrial	Gain
333.748	3.056	0.019	1404.417	74.0	3	6.9	-1.0	27.296	955.0	2.0	Outcome1	6.9	-9.39	3.05625	Yes	n/a	16.287655719139302	n/a	n/a	n/a	TrialHappPreview	Gain
336.824	4.012	0.02	1407.493	74.0	3	6.9	-1.0	27.296	955.0	2.0	Outcome1	6.9	-9.39	3.05625	Yes	n/a	16.287655719139302	n/a	n/a	800.0	TrialHappiness	Gain
336.824	3.383	n/a	1408.029	74.0	3	6.9	-1.0	27.296	955.0	2.0	Outcome1	6.9	-9.39	3.05625	Yes	n/a	16.287655719139302	n/a	n/a	800.0	TrialHappinessSliderResponse	Gain
340.836	4.225	4.012	1411.505	74.0	3	6.9	-1.0	27.296	955.0	2.0	Outcome1	6.9	-9.39	3.05625	Yes	n/a	16.287655719139302	n/a	n/a	n/a	ISIRate	Gain
345.082	3.0	0.021	1415.751	75.0	3	6.5	0.0	28.1085	955.0	1.68	Outcome1	6.5	-6.92	0.0	No	2.0	13.4190260475651	1.068	346.15	n/a	GetAnswer	Gain
346.168	4.0	0.018	1416.837	75.0	3	6.5	0.0	28.1085	955.0	1.68	Outcome1	6.5	-6.92	0.0	No	n/a	13.4190260475651	n/a	n/a	n/a	ShowChoice	Gain
350.18	1.0	0.012	1420.849	75.0	3	6.5	0.0	28.1085	955.0	1.68	Outcome1	6.5	-6.92	0.0	No	n/a	13.4190260475651	n/a	n/a	n/a	ShowResult	Gain
351.2	4.979	0.02	1421.869	75.0	3	6.5	0.0	28.1085	955.0	1.68	Outcome1	6.5	-6.92	0.0	No	n/a	13.4190260475651	n/a	n/a	n/a	ISITrial	Gain
356.198	3.0	0.019	1426.867	76.0	3	-2.0	-2.0	27.8585	955.0	1.68	Certain	4.5	-9.09	0.0	No	4.0	13.59456398641	1.541	357.739	n/a	GetAnswer	Gain
357.753	4.0	0.014	1428.422	76.0	3	-2.0	-2.0	27.8585	955.0	1.68	Certain	4.5	-9.09	0.0	No	n/a	13.59456398641	n/a	n/a	n/a	ShowChoice	Gain
361.765	1.0	0.012	1432.434	76.0	3	-2.0	-2.0	27.8585	955.0	1.68	Certain	4.5	-9.09	0.0	No	n/a	13.59456398641	n/a	n/a	n/a	ShowResult	Gain
362.785	3.931	0.02	1433.454	76.0	3	-2.0	-2.0	27.8585	955.0	1.68	Certain	4.5	-9.09	0.0	No	n/a	13.59456398641	n/a	n/a	n/a	ISITrial	Gain
366.747	3.0	0.031	1437.416	77.0	3	1.1	-6.0	27.996	955.0	0.52	Outcome2	-12.67	1.1	4.0	Yes	n/a	13.7701019252548	n/a	n/a	n/a	GetAnswer	Mixed
369.772	4.0	0.025	1440.441	77.0	3	1.1	-6.0	27.996	955.0	0.52	Outcome2	-12.67	1.1	4.0	Yes	n/a	13.7701019252548	n/a	n/a	n/a	ShowChoice	Mixed
373.784	1.0	0.012	1444.453	77.0	3	1.1	-6.0	27.996	955.0	0.52	Outcome2	-12.67	1.1	4.0	Yes	n/a	13.7701019252548	n/a	n/a	n/a	ShowResult	Mixed
374.804	7.022	0.02	1445.473	77.0	3	1.1	-6.0	27.996	955.0	0.52	Outcome2	-12.67	1.1	4.0	Yes	n/a	13.7701019252548	n/a	n/a	n/a	ISITrial	Mixed
381.842	4.0	0.016	1452.511	77.0	3	1.1	-6.0	27.996	955.0	0.52	Outcome2	-12.67	1.1	4.0	Yes	n/a	13.7701019252548	n/a	n/a	n/a	TrialHappPreview	Mixed
385.87	4.012	0.028	1456.539	77.0	3	1.1	-6.0	27.996	955.0	0.52	Outcome2	-12.67	1.1	4.0	Yes	n/a	13.7701019252548	n/a	n/a	800.0	TrialHappiness	Mixed
385.871	0.748	n/a	1456.968	77.0	3	1.1	-6.0	27.996	955.0	0.52	Outcome2	-12.67	1.1	4.0	Yes	n/a	13.7701019252548	n/a	n/a	800.0	TrialHappinessSliderResponse	Mixed
389.882	8.0	4.012	1460.551	77.0	3	1.1	-6.0	27.996	955.0	0.52	Outcome2	-12.67	1.1	4.0	Yes	n/a	13.7701019252548	n/a	n/a	n/a	ISIRate	Mixed
397.906	3.0	0.024	1468.575	78.0	3	7.9	1.0	28.9835	955.0	3.6	Outcome2	-6.05	7.9	0.0	No	2.0	13.945639864099698	2.406	400.312	n/a	GetAnswer	Gain
400.33	4.0	0.018	1470.999	78.0	3	7.9	1.0	28.9835	955.0	3.6	Outcome2	-6.05	7.9	0.0	No	n/a	13.945639864099698	n/a	n/a	n/a	ShowChoice	Gain
404.342	1.0	0.012	1475.011	78.0	3	7.9	1.0	28.9835	955.0	3.6	Outcome2	-6.05	7.9	0.0	No	n/a	13.945639864099698	n/a	n/a	n/a	ShowResult	Gain
405.362	2.078	0.02	1476.031	78.0	3	7.9	1.0	28.9835	955.0	3.6	Outcome2	-6.05	7.9	0.0	No	n/a	13.945639864099698	n/a	n/a	n/a	ISITrial	Gain
407.468	3.0	0.028	1478.137	79.0	3	8.11	4.06	29.9973	955.0	3.16	Outcome2	9.7	8.11	2.7295	Yes	2.0	-1.58635334088335	0.945	408.413	n/a	GetAnswer	Gain
408.438	4.0	0.025	1479.107	79.0	3	8.11	4.06	29.9973	955.0	3.16	Outcome2	9.7	8.11	2.7295	Yes	n/a	-1.58635334088335	n/a	n/a	n/a	ShowChoice	Gain
412.45	1.0	0.012	1483.119	79.0	3	8.11	4.06	29.9973	955.0	3.16	Outcome2	9.7	8.11	2.7295	Yes	n/a	-1.58635334088335	n/a	n/a	n/a	ShowResult	Gain
413.47	3.829	0.02	1484.139	79.0	3	8.11	4.06	29.9973	955.0	3.16	Outcome2	9.7	8.11	2.7295	Yes	n/a	-1.58635334088335	n/a	n/a	n/a	ISITrial	Gain
417.314	2.73	0.015	1487.983	79.0	3	8.11	4.06	29.9973	955.0	3.16	Outcome2	9.7	8.11	2.7295	Yes	n/a	-1.58635334088335	n/a	n/a	n/a	TrialHappPreview	Gain
420.073	4.012	0.029	1490.742	79.0	3	8.11	4.06	29.9973	955.0	3.16	Outcome2	9.7	8.11	2.7295	Yes	n/a	-1.58635334088335	n/a	n/a	808.0	TrialHappiness	Gain
420.073	3.013	n/a	1491.328	79.0	3	8.11	4.06	29.9973	955.0	3.16	Outcome2	9.7	8.11	2.7295	Yes	n/a	-1.58635334088335	n/a	n/a	808.0	TrialHappinessSliderResponse	Gain
424.085	2.918	4.012	1494.754	79.0	3	8.11	4.06	29.9973	955.0	3.16	Outcome2	9.7	8.11	2.7295	Yes	n/a	-1.58635334088335	n/a	n/a	n/a	ISIRate	Gain
427.027	3.0	0.024	1497.696	80.0	3	-3.0	-3.0	29.6223	955.0	1.0	Certain	-10.46	3.7	0.0	No	4.0	14.1608154020385	1.783	428.81	n/a	GetAnswer	Mixed
428.832	4.0	0.022	1499.501	80.0	3	-3.0	-3.0	29.6223	955.0	1.0	Certain	-10.46	3.7	0.0	No	n/a	14.1608154020385	n/a	n/a	n/a	ShowChoice	Mixed
432.844	1.0	0.012	1503.513	80.0	3	-3.0	-3.0	29.6223	955.0	1.0	Certain	-10.46	3.7	0.0	No	n/a	14.1608154020385	n/a	n/a	n/a	ShowResult	Mixed
433.864	3.336	0.02	1504.533	80.0	3	-3.0	-3.0	29.6223	955.0	1.0	Certain	-10.46	3.7	0.0	No	n/a	14.1608154020385	n/a	n/a	n/a	ISITrial	Mixed
437.224	3.0	0.024	1507.893	81.0	3	-4.0	-4.0	29.1223	955.0	0.4	Certain	-11.43	2.9	3.92375	Yes	4.0	14.327293318233302	1.827	439.051	n/a	GetAnswer	Mixed
439.063	4.0	0.012	1509.732	81.0	3	-4.0	-4.0	29.1223	955.0	0.4	Certain	-11.43	2.9	3.92375	Yes	n/a	14.327293318233302	n/a	n/a	n/a	ShowChoice	Mixed
443.075	1.0	0.012	1513.744	81.0	3	-4.0	-4.0	29.1223	955.0	0.4	Certain	-11.43	2.9	3.92375	Yes	n/a	14.327293318233302	n/a	n/a	n/a	ShowResult	Mixed
444.095	3.919	0.02	1514.764	81.0	3	-4.0	-4.0	29.1223	955.0	0.4	Certain	-11.43	2.9	3.92375	Yes	n/a	14.327293318233302	n/a	n/a	n/a	ISITrial	Mixed
448.04	3.924	0.026	1518.709	81.0	3	-4.0	-4.0	29.1223	955.0	0.4	Certain	-11.43	2.9	3.92375	Yes	n/a	14.327293318233302	n/a	n/a	n/a	TrialHappPreview	Mixed
451.985	4.012	0.021	1522.654	81.0	3	-4.0	-4.0	29.1223	955.0	0.4	Certain	-11.43	2.9	3.92375	Yes	2{-2}	14.327293318233302	1.292	453.277	712.0	TrialHappiness	Mixed
451.985	0.557	n/a	1523.389	81.0	3	-4.0	-4.0	29.1223	955.0	0.4	Certain	-11.43	2.9	3.92375	Yes	n/a	14.327293318233302	n/a	n/a	712.0	TrialHappinessSliderResponse	Mixed
455.997	7.695	4.012	1526.666	81.0	3	-4.0	-4.0	29.1223	955.0	0.4	Certain	-11.43	2.9	3.92375	Yes	n/a	14.327293318233302	n/a	n/a	n/a	ISIRate	Mixed
463.72	3.0	0.028	1534.389	n/a	3	n/a	n/a	n/a	n/a	n/a	n/a	n/a	n/a	n/a	n/a	n/a	n/a	n/a	n/a	n/a	CurrentEarnings	n/a
466.746	-0.001	0.026	1537.415	n/a	3	n/a	n/a	n/a	n/a	n/a	n/a	n/a	n/a	n/a	n/a	{SPACE}	n/a	2.925	469.671	n/a	Goodbye	n/a
