onset	duration	onset_delay	onset_unadjusted	trial_number	block	amount_change	certain_amount	current_amount	mood_target	multiplier	outcome	outcome1_amount	outcome2_amount	question_duration	rating	response	rpe	rt	rt_time	slider_response	trial_phase	trial_type
-86.542	-0.001	0.021	14.29	n/a	0	n/a	n/a	n/a	n/a	n/a	n/a	n/a	n/a	n/a	n/a	{SPACE}	n/a	4.968	-81.574	n/a	Welcome	n/a
-81.56	5.0	0.014	19.272	n/a	0	n/a	n/a	n/a	n/a	n/a	n/a	n/a	n/a	n/a	n/a	n/a	n/a	n/a	n/a	n/a	LifeHappyPreview	n/a
-76.528	0.877	0.032	24.304	n/a	0	n/a	n/a	n/a	n/a	n/a	n/a	n/a	n/a	n/a	n/a	n/a	n/a	n/a	n/a	472.0	LifeHappiness	n/a
-76.528	0.234	n/a	24.947	n/a	0	n/a	n/a	n/a	n/a	n/a	n/a	n/a	n/a	n/a	n/a	n/a	n/a	n/a	n/a	472.0	LifeHappinessSliderResponse	n/a
-48.779	4.0	0.028	52.053	n/a	0	n/a	n/a	n/a	n/a	n/a	n/a	n/a	n/a	n/a	n/a	n/a	n/a	n/a	n/a	n/a	BlockHappyPreview	n/a
-44.767	1.311	0.012	56.065	n/a	0	n/a	n/a	n/a	n/a	n/a	n/a	n/a	n/a	n/a	n/a	n/a	n/a	n/a	n/a	536.0	BlockStartHappiness	n/a
-44.766	0.191	n/a	57.186	n/a	0	n/a	n/a	n/a	n/a	n/a	n/a	n/a	n/a	n/a	n/a	n/a	n/a	n/a	n/a	536.0	BlockStartHappinessSliderResponse	n/a
-1.437	-0.001	0.027	99.395	n/a	0	n/a	n/a	n/a	n/a	n/a	n/a	n/a	n/a	n/a	n/a	5.0	n/a	1.426	-0.011	n/a	ScanWait	n/a
0.0	10.0	0.011	100.832	n/a	1	n/a	n/a	n/a	n/a	n/a	n/a	n/a	n/a	n/a	n/a	n/a	n/a	n/a	n/a	n/a	GetReady	n/a
10.03	3.0	0.03	110.862	1.0	1	-1.8	-1.0	9.775	955.0	1.2	Outcome1	-1.8	-0.1	0.0	No	2.0	-1.70035862589656	1.909	11.939	n/a	GetAnswer	Mixed
11.97	4.0	0.031	112.802	1.0	1	-1.8	-1.0	9.775	955.0	1.2	Outcome1	-1.8	-0.1	0.0	No	n/a	-1.70035862589656	n/a	n/a	n/a	ShowChoice	Mixed
15.998	1.0	0.028	116.83	1.0	1	-1.8	-1.0	9.775	955.0	1.2	Outcome1	-1.8	-0.1	0.0	No	n/a	-1.70035862589656	n/a	n/a	n/a	ShowResult	Mixed
17.018	2.431	0.02	117.85	1.0	1	-1.8	-1.0	9.775	955.0	1.2	Outcome1	-1.8	-0.1	0.0	No	n/a	-1.70035862589656	n/a	n/a	n/a	ISITrial	Mixed
19.475	3.0	0.026	120.307	2.0	1	13.3	2.86	11.4375	955.0	2.48	Outcome2	5.71	13.3	0.0	No	2.0	7.592298980747451	1.189	20.664	n/a	GetAnswer	Loss
20.696	4.0	0.032	121.528	2.0	1	13.3	2.86	11.4375	955.0	2.48	Outcome2	5.71	13.3	0.0	No	n/a	7.592298980747451	n/a	n/a	n/a	ShowChoice	Loss
24.724	1.0	0.028	125.556	2.0	1	13.3	2.86	11.4375	955.0	2.48	Outcome2	5.71	13.3	0.0	No	n/a	7.592298980747451	n/a	n/a	n/a	ShowResult	Loss
25.744	4.568	0.02	126.576	2.0	1	13.3	2.86	11.4375	955.0	2.48	Outcome2	5.71	13.3	0.0	No	n/a	7.592298980747451	n/a	n/a	n/a	ISITrial	Loss
30.341	3.0	0.029	131.173	3.0	1	8.92	4.46	12.5525	955.0	1.82	Outcome2	10.7	8.92	2.868	Yes	2.0	-1.77944507361268	1.366	31.707	n/a	GetAnswer	Loss
31.729	4.0	0.022	132.561	3.0	1	8.92	4.46	12.5525	955.0	1.82	Outcome2	10.7	8.92	2.868	Yes	n/a	-1.77944507361268	n/a	n/a	n/a	ShowChoice	Loss
35.757	1.0	0.028	136.589	3.0	1	8.92	4.46	12.5525	955.0	1.82	Outcome2	10.7	8.92	2.868	Yes	n/a	-1.77944507361268	n/a	n/a	n/a	ShowResult	Loss
36.777	3.243	0.02	137.609	3.0	1	8.92	4.46	12.5525	955.0	1.82	Outcome2	10.7	8.92	2.868	Yes	n/a	-1.77944507361268	n/a	n/a	n/a	ISITrial	Loss
40.037	2.868	0.017	140.869	3.0	1	8.92	4.46	12.5525	955.0	1.82	Outcome2	10.7	8.92	2.868	Yes	n/a	-1.77944507361268	n/a	n/a	n/a	TrialHappPreview	Loss
42.929	4.029	0.024	143.761	3.0	1	8.92	4.46	12.5525	955.0	1.82	Outcome2	10.7	8.92	2.868	Yes	n/a	-1.77944507361268	n/a	n/a	688.0	TrialHappiness	Loss
42.929	0.52	n/a	144.165	3.0	1	8.92	4.46	12.5525	955.0	1.82	Outcome2	10.7	8.92	2.868	Yes	n/a	-1.77944507361268	n/a	n/a	688.0	TrialHappinessSliderResponse	Loss
46.958	3.472	4.029	147.79	3.0	1	8.92	4.46	12.5525	955.0	1.82	Outcome2	10.7	8.92	2.868	Yes	n/a	-1.77944507361268	n/a	n/a	n/a	ISIRate	Loss
50.451	3.0	0.021	151.283	4.0	1	6.7	3.35	13.39	955.0	3.6	Outcome1	6.7	7.9	0.0	No	2.0	-1.20215175537939	1.005	51.456	n/a	GetAnswer	Gain
51.471	4.0	0.014	152.303	4.0	1	6.7	3.35	13.39	955.0	3.6	Outcome1	6.7	7.9	0.0	No	n/a	-1.20215175537939	n/a	n/a	n/a	ShowChoice	Gain
55.5	1.0	0.029	156.332	4.0	1	6.7	3.35	13.39	955.0	3.6	Outcome1	6.7	7.9	0.0	No	n/a	-1.20215175537939	n/a	n/a	n/a	ShowResult	Gain
56.519	2.011	0.019	157.351	4.0	1	6.7	3.35	13.39	955.0	3.6	Outcome1	6.7	7.9	0.0	No	n/a	-1.20215175537939	n/a	n/a	n/a	ISITrial	Gain
58.559	3.0	0.029	159.391	5.0	1	0.87	1.0	13.4988	955.0	1.5	Outcome2	2.1	0.87	2.5825	Yes	2.0	-1.22734994337486	1.583	60.142	n/a	GetAnswer	Mixed
60.164	4.0	0.022	160.996	5.0	1	0.87	1.0	13.4988	955.0	1.5	Outcome2	2.1	0.87	2.5825	Yes	n/a	-1.22734994337486	n/a	n/a	n/a	ShowChoice	Mixed
64.192	1.0	0.028	165.024	5.0	1	0.87	1.0	13.4988	955.0	1.5	Outcome2	2.1	0.87	2.5825	Yes	n/a	-1.22734994337486	n/a	n/a	n/a	ShowResult	Mixed
65.212	5.129	0.02	166.044	5.0	1	0.87	1.0	13.4988	955.0	1.5	Outcome2	2.1	0.87	2.5825	Yes	n/a	-1.22734994337486	n/a	n/a	n/a	ISITrial	Mixed
70.361	2.582	0.02	171.193	5.0	1	0.87	1.0	13.4988	955.0	1.5	Outcome2	2.1	0.87	2.5825	Yes	n/a	-1.22734994337486	n/a	n/a	n/a	TrialHappPreview	Mixed
72.969	4.028	0.026	173.801	5.0	1	0.87	1.0	13.4988	955.0	1.5	Outcome2	2.1	0.87	2.5825	Yes	n/a	-1.22734994337486	n/a	n/a	640.0	TrialHappiness	Mixed
72.969	2.281	n/a	174.166	5.0	1	0.87	1.0	13.4988	955.0	1.5	Outcome2	2.1	0.87	2.5825	Yes	n/a	-1.22734994337486	n/a	n/a	640.0	TrialHappinessSliderResponse	Mixed
76.997	2.33	4.028	177.829	5.0	1	0.87	1.0	13.4988	955.0	1.5	Outcome2	2.1	0.87	2.5825	Yes	n/a	-1.22734994337486	n/a	n/a	n/a	ISIRate	Mixed
79.354	3.0	0.027	180.186	6.0	1	-1.3	-5.0	13.3363	955.0	0.3	Outcome2	-8.68	-1.3	0.0	No	2.0	7.37938844847112	1.491	80.845	n/a	GetAnswer	Mixed
80.859	4.0	0.014	181.691	6.0	1	-1.3	-5.0	13.3363	955.0	0.3	Outcome2	-8.68	-1.3	0.0	No	n/a	7.37938844847112	n/a	n/a	n/a	ShowChoice	Mixed
84.888	1.0	0.029	185.72	6.0	1	-1.3	-5.0	13.3363	955.0	0.3	Outcome2	-8.68	-1.3	0.0	No	n/a	7.37938844847112	n/a	n/a	n/a	ShowResult	Mixed
85.907	6.232	0.019	186.739	6.0	1	-1.3	-5.0	13.3363	955.0	0.3	Outcome2	-8.68	-1.3	0.0	No	n/a	7.37938844847112	n/a	n/a	n/a	ISITrial	Mixed
92.159	3.0	0.02	192.991	7.0	1	9.1	0.68	14.4738	955.0	2.22	Outcome1	9.1	1.36	0.0	No	2.0	7.736126840317099	1.364	93.523	n/a	GetAnswer	Gain
93.547	4.0	0.024	194.379	7.0	1	9.1	0.68	14.4738	955.0	2.22	Outcome1	9.1	1.36	0.0	No	n/a	7.736126840317099	n/a	n/a	n/a	ShowChoice	Gain
97.576	1.0	0.029	198.408	7.0	1	9.1	0.68	14.4738	955.0	2.22	Outcome1	9.1	1.36	0.0	No	n/a	7.736126840317099	n/a	n/a	n/a	ShowResult	Gain
98.595	2.305	0.019	199.427	7.0	1	9.1	0.68	14.4738	955.0	2.22	Outcome1	9.1	1.36	0.0	No	n/a	7.736126840317099	n/a	n/a	n/a	ISITrial	Gain
100.919	3.0	0.019	201.751	8.0	1	-2.0	-2.0	14.2238	955.0	0.66	Certain	1.3	-6.79	3.1125	Yes	4.0	8.09286523216308	1.577	102.496	n/a	GetAnswer	Mixed
102.524	4.0	0.028	203.356	8.0	1	-2.0	-2.0	14.2238	955.0	0.66	Certain	1.3	-6.79	3.1125	Yes	n/a	8.09286523216308	n/a	n/a	n/a	ShowChoice	Mixed
106.552	1.0	0.028	207.384	8.0	1	-2.0	-2.0	14.2238	955.0	0.66	Certain	1.3	-6.79	3.1125	Yes	n/a	8.09286523216308	n/a	n/a	n/a	ShowResult	Mixed
107.572	3.506	0.02	208.404	8.0	1	-2.0	-2.0	14.2238	955.0	0.66	Certain	1.3	-6.79	3.1125	Yes	n/a	8.09286523216308	n/a	n/a	n/a	ISITrial	Mixed
111.099	3.112	0.021	211.931	8.0	1	-2.0	-2.0	14.2238	955.0	0.66	Certain	1.3	-6.79	3.1125	Yes	n/a	8.09286523216308	n/a	n/a	n/a	TrialHappPreview	Mixed
114.242	4.029	0.031	215.074	8.0	1	-2.0	-2.0	14.2238	955.0	0.66	Certain	1.3	-6.79	3.1125	Yes	n/a	8.09286523216308	n/a	n/a	832.0	TrialHappiness	Mixed
114.243	0.817	n/a	215.417	8.0	1	-2.0	-2.0	14.2238	955.0	0.66	Certain	1.3	-6.79	3.1125	Yes	n/a	8.09286523216308	n/a	n/a	832.0	TrialHappinessSliderResponse	Mixed
118.271	4.45	4.029	219.103	8.0	1	-2.0	-2.0	14.2238	955.0	0.66	Certain	1.3	-6.79	3.1125	Yes	n/a	8.09286523216308	n/a	n/a	n/a	ISIRate	Mixed
122.751	3.0	0.03	223.583	9.0	1	8.3	1.56	15.2613	955.0	5.0	Outcome2	3.11	8.3	0.0	No	2.0	5.18799546998868	1.168	123.919	n/a	GetAnswer	Gain
123.938	4.0	0.019	224.77	9.0	1	8.3	1.56	15.2613	955.0	5.0	Outcome2	3.11	8.3	0.0	No	n/a	5.18799546998868	n/a	n/a	n/a	ShowChoice	Gain
127.966	1.0	0.028	228.798	9.0	1	8.3	1.56	15.2613	955.0	5.0	Outcome2	3.11	8.3	0.0	No	n/a	5.18799546998868	n/a	n/a	n/a	ShowResult	Gain
128.986	2.0	0.02	229.818	9.0	1	8.3	1.56	15.2613	955.0	5.0	Outcome2	3.11	8.3	0.0	No	n/a	5.18799546998868	n/a	n/a	n/a	ISITrial	Gain
131.009	3.0	0.023	231.841	10.0	1	0.0	0.0	15.2613	955.0	0.4	Certain	2.9	-2.43	4.0	Yes	4.0	5.3272933182333	1.397	132.406	n/a	GetAnswer	Mixed
132.43	4.0	0.024	233.262	10.0	1	0.0	0.0	15.2613	955.0	0.4	Certain	2.9	-2.43	4.0	Yes	n/a	5.3272933182333	n/a	n/a	n/a	ShowChoice	Mixed
136.458	1.0	0.028	237.29	10.0	1	0.0	0.0	15.2613	955.0	0.4	Certain	2.9	-2.43	4.0	Yes	n/a	5.3272933182333	n/a	n/a	n/a	ShowResult	Mixed
137.478	2.0	0.02	238.31	10.0	1	0.0	0.0	15.2613	955.0	0.4	Certain	2.9	-2.43	4.0	Yes	n/a	5.3272933182333	n/a	n/a	n/a	ISITrial	Mixed
139.501	4.0	0.023	240.333	10.0	1	0.0	0.0	15.2613	955.0	0.4	Certain	2.9	-2.43	4.0	Yes	n/a	5.3272933182333	n/a	n/a	n/a	TrialHappPreview	Mixed
143.53	4.028	0.029	244.362	10.0	1	0.0	0.0	15.2613	955.0	0.4	Certain	2.9	-2.43	4.0	Yes	n/a	5.3272933182333	n/a	n/a	592.0	TrialHappiness	Mixed
143.53	0.306	n/a	244.78	10.0	1	0.0	0.0	15.2613	955.0	0.4	Certain	2.9	-2.43	4.0	Yes	n/a	5.3272933182333	n/a	n/a	592.0	TrialHappinessSliderResponse	Mixed
147.558	8.0	4.028	248.39	10.0	1	0.0	0.0	15.2613	955.0	0.4	Certain	2.9	-2.43	4.0	Yes	n/a	5.3272933182333	n/a	n/a	n/a	ISIRate	Mixed
155.582	3.0	0.024	256.414	11.0	1	0.9	-4.0	15.3738	955.0	0.4	Outcome2	-8.64	0.9	0.0	No	2.0	9.5436013590034	1.545	157.127	n/a	GetAnswer	Mixed
157.154	4.0	0.027	257.986	11.0	1	0.9	-4.0	15.3738	955.0	0.4	Outcome2	-8.64	0.9	0.0	No	n/a	9.5436013590034	n/a	n/a	n/a	ShowChoice	Mixed
161.182	1.0	0.028	262.014	11.0	1	0.9	-4.0	15.3738	955.0	0.4	Outcome2	-8.64	0.9	0.0	No	n/a	9.5436013590034	n/a	n/a	n/a	ShowResult	Mixed
162.202	3.324	0.02	263.034	11.0	1	0.9	-4.0	15.3738	955.0	0.4	Outcome2	-8.64	0.9	0.0	No	n/a	9.5436013590034	n/a	n/a	n/a	ISITrial	Mixed
165.545	3.0	0.019	266.377	12.0	1	3.1	-2.0	15.7613	955.0	0.52	Outcome2	-6.85	3.1	2.61875	Yes	2.0	9.95469988674972	1.32	166.865	n/a	GetAnswer	Mixed
166.883	4.0	0.018	267.715	12.0	1	3.1	-2.0	15.7613	955.0	0.52	Outcome2	-6.85	3.1	2.61875	Yes	n/a	9.95469988674972	n/a	n/a	n/a	ShowChoice	Mixed
170.911	1.0	0.028	271.743	12.0	1	3.1	-2.0	15.7613	955.0	0.52	Outcome2	-6.85	3.1	2.61875	Yes	n/a	9.95469988674972	n/a	n/a	n/a	ShowResult	Mixed
171.931	6.642	0.02	272.763	12.0	1	3.1	-2.0	15.7613	955.0	0.52	Outcome2	-6.85	3.1	2.61875	Yes	n/a	9.95469988674972	n/a	n/a	n/a	ISITrial	Mixed
178.601	2.619	0.028	279.433	12.0	1	3.1	-2.0	15.7613	955.0	0.52	Outcome2	-6.85	3.1	2.61875	Yes	n/a	9.95469988674972	n/a	n/a	n/a	TrialHappPreview	Mixed
181.242	4.029	0.022	282.074	12.0	1	3.1	-2.0	15.7613	955.0	0.52	Outcome2	-6.85	3.1	2.61875	Yes	n/a	9.95469988674972	n/a	n/a	840.0	TrialHappiness	Mixed
181.243	0.835	n/a	282.332	12.0	1	3.1	-2.0	15.7613	955.0	0.52	Outcome2	-6.85	3.1	2.61875	Yes	n/a	9.95469988674972	n/a	n/a	840.0	TrialHappinessSliderResponse	Mixed
185.271	2.475	4.029	286.103	12.0	1	3.1	-2.0	15.7613	955.0	0.52	Outcome2	-6.85	3.1	2.61875	Yes	n/a	9.95469988674972	n/a	n/a	n/a	ISIRate	Mixed
187.779	3.0	0.033	288.611	13.0	1	6.08	3.04	16.5213	955.0	2.0	Outcome2	6.9	6.08	0.0	No	2.0	-0.816628916572292	1.09	188.869	n/a	GetAnswer	Gain
188.899	4.0	0.03	289.731	13.0	1	6.08	3.04	16.5213	955.0	2.0	Outcome2	6.9	6.08	0.0	No	n/a	-0.816628916572292	n/a	n/a	n/a	ShowChoice	Gain
192.927	1.0	0.028	293.759	13.0	1	6.08	3.04	16.5213	955.0	2.0	Outcome2	6.9	6.08	0.0	No	n/a	-0.816628916572292	n/a	n/a	n/a	ShowResult	Gain
193.947	3.48	0.02	294.779	13.0	1	6.08	3.04	16.5213	955.0	2.0	Outcome2	6.9	6.08	0.0	No	n/a	-0.816628916572292	n/a	n/a	n/a	ISITrial	Gain
197.457	3.0	0.03	298.289	14.0	1	8.5	1.11	17.5838	955.0	1.68	Outcome1	8.5	2.22	0.0	No	2.0	6.2831257078142695	1.041	198.498	n/a	GetAnswer	Gain
198.527	4.0	0.029	299.359	14.0	1	8.5	1.11	17.5838	955.0	1.68	Outcome1	8.5	2.22	0.0	No	n/a	6.2831257078142695	n/a	n/a	n/a	ShowChoice	Gain
202.556	1.0	0.029	303.388	14.0	1	8.5	1.11	17.5838	955.0	1.68	Outcome1	8.5	2.22	0.0	No	n/a	6.2831257078142695	n/a	n/a	n/a	ShowResult	Gain
203.576	5.019	0.02	304.408	14.0	1	8.5	1.11	17.5838	955.0	1.68	Outcome1	8.5	2.22	0.0	No	n/a	6.2831257078142695	n/a	n/a	n/a	ISITrial	Gain
208.624	3.0	0.029	309.456	15.0	1	10.06	5.03	18.8413	955.0	2.0	Outcome1	10.06	10.9	3.3485	Yes	2.0	-0.838335220838052	0.869	209.493	n/a	GetAnswer	Loss
209.51	4.0	0.017	310.342	15.0	1	10.06	5.03	18.8413	955.0	2.0	Outcome1	10.06	10.9	3.3485	Yes	n/a	-0.838335220838052	n/a	n/a	n/a	ShowChoice	Loss
213.522	1.0	0.012	314.354	15.0	1	10.06	5.03	18.8413	955.0	2.0	Outcome1	10.06	10.9	3.3485	Yes	n/a	-0.838335220838052	n/a	n/a	n/a	ShowResult	Loss
214.542	7.614	0.02	315.374	15.0	1	10.06	5.03	18.8413	955.0	2.0	Outcome1	10.06	10.9	3.3485	Yes	n/a	-0.838335220838052	n/a	n/a	n/a	ISITrial	Loss
222.181	3.348	0.025	323.013	15.0	1	10.06	5.03	18.8413	955.0	2.0	Outcome1	10.06	10.9	3.3485	Yes	n/a	-0.838335220838052	n/a	n/a	n/a	TrialHappPreview	Loss
225.558	4.029	0.029	326.39	15.0	1	10.06	5.03	18.8413	955.0	2.0	Outcome1	10.06	10.9	3.3485	Yes	n/a	-0.838335220838052	n/a	n/a	776.0	TrialHappiness	Loss
225.559	1.988	n/a	326.717	15.0	1	10.06	5.03	18.8413	955.0	2.0	Outcome1	10.06	10.9	3.3485	Yes	n/a	-0.838335220838052	n/a	n/a	776.0	TrialHappinessSliderResponse	Loss
229.587	5.394	4.029	330.419	15.0	1	10.06	5.03	18.8413	955.0	2.0	Outcome1	10.06	10.9	3.3485	Yes	n/a	-0.838335220838052	n/a	n/a	n/a	ISIRate	Loss
235.003	3.0	0.022	335.835	16.0	1	3.99	2.0	19.3401	955.0	2.22	Outcome2	5.1	3.99	0.0	No	2.0	-1.10890902227256	1.015	236.018	n/a	GetAnswer	Gain
236.04	4.0	0.022	336.872	16.0	1	3.99	2.0	19.3401	955.0	2.22	Outcome2	5.1	3.99	0.0	No	n/a	-1.10890902227256	n/a	n/a	n/a	ShowChoice	Gain
240.068	1.0	0.028	340.9	16.0	1	3.99	2.0	19.3401	955.0	2.22	Outcome2	5.1	3.99	0.0	No	n/a	-1.10890902227256	n/a	n/a	n/a	ShowResult	Gain
241.088	3.008	0.02	341.92	16.0	1	3.99	2.0	19.3401	955.0	2.22	Outcome2	5.1	3.99	0.0	No	n/a	-1.10890902227256	n/a	n/a	n/a	ISITrial	Gain
244.13	3.0	0.034	344.962	17.0	1	5.7	2.0	20.0526	955.0	3.16	Outcome2	-2.13	5.7	3.0415	Yes	2.0	7.833522083805209	1.287	245.417	n/a	GetAnswer	Gain
245.434	4.0	0.017	346.266	17.0	1	5.7	2.0	20.0526	955.0	3.16	Outcome2	-2.13	5.7	3.0415	Yes	n/a	7.833522083805209	n/a	n/a	n/a	ShowChoice	Gain
249.463	1.0	0.029	350.295	17.0	1	5.7	2.0	20.0526	955.0	3.16	Outcome2	-2.13	5.7	3.0415	Yes	n/a	7.833522083805209	n/a	n/a	n/a	ShowResult	Gain
250.483	3.566	0.02	351.315	17.0	1	5.7	2.0	20.0526	955.0	3.16	Outcome2	-2.13	5.7	3.0415	Yes	n/a	7.833522083805209	n/a	n/a	n/a	ISITrial	Gain
254.077	3.042	0.028	354.909	17.0	1	5.7	2.0	20.0526	955.0	3.16	Outcome2	-2.13	5.7	3.0415	Yes	n/a	7.833522083805209	n/a	n/a	n/a	TrialHappPreview	Gain
257.136	4.012	0.017	357.968	17.0	1	5.7	2.0	20.0526	955.0	3.16	Outcome2	-2.13	5.7	3.0415	Yes	n/a	7.833522083805209	n/a	n/a	864.0	TrialHappiness	Gain
257.137	0.884	n/a	358.227	17.0	1	5.7	2.0	20.0526	955.0	3.16	Outcome2	-2.13	5.7	3.0415	Yes	n/a	7.833522083805209	n/a	n/a	864.0	TrialHappinessSliderResponse	Gain
261.148	4.166	4.012	361.98	17.0	1	5.7	2.0	20.0526	955.0	3.16	Outcome2	-2.13	5.7	3.0415	Yes	n/a	7.833522083805209	n/a	n/a	n/a	ISIRate	Gain
265.344	3.0	0.03	366.176	18.0	1	-1.49	-1.0	19.8664	955.0	0.66	Outcome1	-1.49	-0.7	0.0	No	2.0	-0.7855794639486601	1.246	266.59	n/a	GetAnswer	Mixed
266.614	4.0	0.023	367.446	18.0	1	-1.49	-1.0	19.8664	955.0	0.66	Outcome1	-1.49	-0.7	0.0	No	n/a	-0.7855794639486601	n/a	n/a	n/a	ShowChoice	Mixed
270.626	1.0	0.012	371.458	18.0	1	-1.49	-1.0	19.8664	955.0	0.66	Outcome1	-1.49	-0.7	0.0	No	n/a	-0.7855794639486601	n/a	n/a	n/a	ShowResult	Mixed
271.646	6.787	0.02	372.478	18.0	1	-1.49	-1.0	19.8664	955.0	0.66	Outcome1	-1.49	-0.7	0.0	No	n/a	-0.7855794639486601	n/a	n/a	n/a	ISITrial	Mixed
278.45	3.0	0.017	379.282	19.0	1	13.1	3.23	21.5039	955.0	2.22	Outcome2	6.46	13.1	0.0	No	2.0	6.644394110985281	1.061	279.511	n/a	GetAnswer	Loss
279.536	4.0	0.025	380.368	19.0	1	13.1	3.23	21.5039	955.0	2.22	Outcome2	6.46	13.1	0.0	No	n/a	6.644394110985281	n/a	n/a	n/a	ShowChoice	Loss
283.548	1.0	0.012	384.38	19.0	1	13.1	3.23	21.5039	955.0	2.22	Outcome2	6.46	13.1	0.0	No	n/a	6.644394110985281	n/a	n/a	n/a	ShowResult	Loss
284.568	2.0	0.02	385.4	19.0	1	13.1	3.23	21.5039	955.0	2.22	Outcome2	6.46	13.1	0.0	No	n/a	6.644394110985281	n/a	n/a	n/a	ISITrial	Loss
286.591	3.0	0.023	387.423	20.0	1	8.1	0.68	22.5164	955.0	4.2	Outcome2	1.35	8.1	2.92125	Yes	2.0	6.74745186862967	1.088	287.679	n/a	GetAnswer	Gain
287.694	4.0	0.015	388.526	20.0	1	8.1	0.68	22.5164	955.0	4.2	Outcome2	1.35	8.1	2.92125	Yes	n/a	6.74745186862967	n/a	n/a	n/a	ShowChoice	Gain
291.706	1.0	0.012	392.538	20.0	1	8.1	0.68	22.5164	955.0	4.2	Outcome2	1.35	8.1	2.92125	Yes	n/a	6.74745186862967	n/a	n/a	n/a	ShowResult	Gain
292.726	8.0	0.02	393.558	20.0	1	8.1	0.68	22.5164	955.0	4.2	Outcome2	1.35	8.1	2.92125	Yes	n/a	6.74745186862967	n/a	n/a	n/a	ISITrial	Gain
300.75	2.921	0.024	401.582	20.0	1	8.1	0.68	22.5164	955.0	4.2	Outcome2	1.35	8.1	2.92125	Yes	n/a	6.74745186862967	n/a	n/a	n/a	TrialHappPreview	Gain
303.692	4.012	0.021	404.524	20.0	1	8.1	0.68	22.5164	955.0	4.2	Outcome2	1.35	8.1	2.92125	Yes	n/a	6.74745186862967	n/a	n/a	856.0	TrialHappiness	Gain
303.692	2.055	n/a	404.803	20.0	1	8.1	0.68	22.5164	955.0	4.2	Outcome2	1.35	8.1	2.92125	Yes	n/a	6.74745186862967	n/a	n/a	856.0	TrialHappinessSliderResponse	Gain
307.704	3.685	4.012	408.536	20.0	1	8.1	0.68	22.5164	955.0	4.2	Outcome2	1.35	8.1	2.92125	Yes	n/a	6.74745186862967	n/a	n/a	n/a	ISIRate	Gain
311.415	3.0	0.026	412.247	21.0	1	13.06	6.53	24.1489	955.0	3.6	Outcome2	13.9	13.06	0.0	No	2.0	-0.843808984522461	0.932	312.347	n/a	GetAnswer	Loss
312.368	4.0	0.021	413.2	21.0	1	13.06	6.53	24.1489	955.0	3.6	Outcome2	13.9	13.06	0.0	No	n/a	-0.843808984522461	n/a	n/a	n/a	ShowChoice	Loss
316.38	1.0	0.012	417.212	21.0	1	13.06	6.53	24.1489	955.0	3.6	Outcome2	13.9	13.06	0.0	No	n/a	-0.843808984522461	n/a	n/a	n/a	ShowResult	Loss
317.399	3.555	0.019	418.231	21.0	1	13.06	6.53	24.1489	955.0	3.6	Outcome2	13.9	13.06	0.0	No	n/a	-0.843808984522461	n/a	n/a	n/a	ISITrial	Loss
320.977	3.0	0.023	421.809	22.0	1	9.3	1.1	25.3114	955.0	2.48	Outcome2	2.2	9.3	3.2195	Yes	2.0	7.098527746319371	0.917	321.894	n/a	GetAnswer	Gain
321.913	4.0	0.019	422.745	22.0	1	9.3	1.1	25.3114	955.0	2.48	Outcome2	2.2	9.3	3.2195	Yes	n/a	7.098527746319371	n/a	n/a	n/a	ShowChoice	Gain
325.925	1.0	0.012	426.757	22.0	1	9.3	1.1	25.3114	955.0	2.48	Outcome2	2.2	9.3	3.2195	Yes	n/a	7.098527746319371	n/a	n/a	n/a	ShowResult	Gain
326.945	6.793	0.02	427.777	22.0	1	9.3	1.1	25.3114	955.0	2.48	Outcome2	2.2	9.3	3.2195	Yes	n/a	7.098527746319371	n/a	n/a	n/a	ISITrial	Gain
333.748	3.22	0.01	434.58	22.0	1	9.3	1.1	25.3114	955.0	2.48	Outcome2	2.2	9.3	3.2195	Yes	n/a	7.098527746319371	n/a	n/a	n/a	TrialHappPreview	Gain
336.991	4.012	0.023	437.823	22.0	1	9.3	1.1	25.3114	955.0	2.48	Outcome2	2.2	9.3	3.2195	Yes	n/a	7.098527746319371	n/a	n/a	824.0	TrialHappiness	Gain
336.992	0.789	n/a	438.211	22.0	1	9.3	1.1	25.3114	955.0	2.48	Outcome2	2.2	9.3	3.2195	Yes	n/a	7.098527746319371	n/a	n/a	824.0	TrialHappinessSliderResponse	Gain
341.003	4.878	4.012	441.835	22.0	1	9.3	1.1	25.3114	955.0	2.48	Outcome2	2.2	9.3	3.2195	Yes	n/a	7.098527746319371	n/a	n/a	n/a	ISIRate	Gain
345.901	3.0	0.02	446.733	23.0	1	9.5	0.88	26.4989	955.0	2.8	Outcome1	9.5	1.75	0.0	No	2.0	7.754246885617219	0.866	346.767	n/a	GetAnswer	Gain
346.787	4.0	0.02	447.619	23.0	1	9.5	0.88	26.4989	955.0	2.8	Outcome1	9.5	1.75	0.0	No	n/a	7.754246885617219	n/a	n/a	n/a	ShowChoice	Gain
350.799	1.0	0.012	451.631	23.0	1	9.5	0.88	26.4989	955.0	2.8	Outcome1	9.5	1.75	0.0	No	n/a	7.754246885617219	n/a	n/a	n/a	ShowResult	Gain
351.819	8.0	0.02	452.651	23.0	1	9.5	0.88	26.4989	955.0	2.8	Outcome1	9.5	1.75	0.0	No	n/a	7.754246885617219	n/a	n/a	n/a	ISITrial	Gain
359.843	3.0	0.024	460.675	24.0	1	2.5	-1.0	26.8114	955.0	0.2	Outcome1	2.5	-5.4	3.255	Yes	2.0	7.90260475651189	1.275	361.118	n/a	GetAnswer	Mixed
361.13	4.0	0.012	461.962	24.0	1	2.5	-1.0	26.8114	955.0	0.2	Outcome1	2.5	-5.4	3.255	Yes	n/a	7.90260475651189	n/a	n/a	n/a	ShowChoice	Mixed
365.142	1.0	0.012	465.974	24.0	1	2.5	-1.0	26.8114	955.0	0.2	Outcome1	2.5	-5.4	3.255	Yes	n/a	7.90260475651189	n/a	n/a	n/a	ShowResult	Mixed
366.162	2.0	0.02	466.994	24.0	1	2.5	-1.0	26.8114	955.0	0.2	Outcome1	2.5	-5.4	3.255	Yes	n/a	7.90260475651189	n/a	n/a	n/a	ISITrial	Mixed
368.185	3.255	0.023	469.017	24.0	1	2.5	-1.0	26.8114	955.0	0.2	Outcome1	2.5	-5.4	3.255	Yes	n/a	7.90260475651189	n/a	n/a	n/a	TrialHappPreview	Mixed
371.461	4.012	0.021	472.293	24.0	1	2.5	-1.0	26.8114	955.0	0.2	Outcome1	2.5	-5.4	3.255	Yes	2{-2}	7.90260475651189	1.076	372.537	840.0	TrialHappiness	Mixed
371.462	0.836	n/a	472.534	24.0	1	2.5	-1.0	26.8114	955.0	0.2	Outcome1	2.5	-5.4	3.255	Yes	n/a	7.90260475651189	n/a	n/a	840.0	TrialHappinessSliderResponse	Mixed
375.473	5.02	4.012	476.305	24.0	1	2.5	-1.0	26.8114	955.0	0.2	Outcome1	2.5	-5.4	3.255	Yes	n/a	7.90260475651189	n/a	n/a	n/a	ISIRate	Mixed
380.522	3.0	0.029	481.354	25.0	1	10.5	1.36	28.1239	955.0	1.68	Outcome1	10.5	2.72	0.0	No	2.0	7.77916194790487	0.947	381.469	n/a	GetAnswer	Loss
381.491	4.0	0.022	482.323	25.0	1	10.5	1.36	28.1239	955.0	1.68	Outcome1	10.5	2.72	0.0	No	n/a	7.77916194790487	n/a	n/a	n/a	ShowChoice	Loss
385.503	1.0	0.012	486.335	25.0	1	10.5	1.36	28.1239	955.0	1.68	Outcome1	10.5	2.72	0.0	No	n/a	7.77916194790487	n/a	n/a	n/a	ShowResult	Loss
386.523	3.749	0.02	487.355	25.0	1	10.5	1.36	28.1239	955.0	1.68	Outcome1	10.5	2.72	0.0	No	n/a	7.77916194790487	n/a	n/a	n/a	ISITrial	Loss
390.301	3.0	0.029	491.133	26.0	1	0.94	1.0	28.2414	955.0	1.2	Outcome2	1.9	0.94	0.0	No	2.0	-0.963004907512269	0.958	391.259	n/a	GetAnswer	Mixed
391.27	4.0	0.011	492.102	26.0	1	0.94	1.0	28.2414	955.0	1.2	Outcome2	1.9	0.94	0.0	No	n/a	-0.963004907512269	n/a	n/a	n/a	ShowChoice	Mixed
395.282	1.0	0.012	496.114	26.0	1	0.94	1.0	28.2414	955.0	1.2	Outcome2	1.9	0.94	0.0	No	n/a	-0.963004907512269	n/a	n/a	n/a	ShowResult	Mixed
396.302	7.834	0.02	497.134	26.0	1	0.94	1.0	28.2414	955.0	1.2	Outcome2	1.9	0.94	0.0	No	n/a	-0.963004907512269	n/a	n/a	n/a	ISITrial	Mixed
404.159	3.0	0.023	504.991	27.0	1	2.0	2.0	28.4914	955.0	1.68	Certain	-1.54	6.5	2.54975	Yes	4.0	8.039637599094	1.294	405.453	n/a	GetAnswer	Gain
405.479	4.0	0.026	506.311	27.0	1	2.0	2.0	28.4914	955.0	1.68	Certain	-1.54	6.5	2.54975	Yes	n/a	8.039637599094	n/a	n/a	n/a	ShowChoice	Gain
409.491	1.0	0.012	510.323	27.0	1	2.0	2.0	28.4914	955.0	1.68	Certain	-1.54	6.5	2.54975	Yes	n/a	8.039637599094	n/a	n/a	n/a	ShowResult	Gain
410.511	4.225	0.02	511.343	27.0	1	2.0	2.0	28.4914	955.0	1.68	Certain	-1.54	6.5	2.54975	Yes	n/a	8.039637599094	n/a	n/a	n/a	ISITrial	Gain
414.757	2.55	0.021	515.589	27.0	1	2.0	2.0	28.4914	955.0	1.68	Certain	-1.54	6.5	2.54975	Yes	n/a	8.039637599094	n/a	n/a	n/a	TrialHappPreview	Gain
417.332	4.012	0.025	518.164	27.0	1	2.0	2.0	28.4914	955.0	1.68	Certain	-1.54	6.5	2.54975	Yes	n/a	8.039637599094	n/a	n/a	672.0	TrialHappiness	Gain
417.332	1.327	n/a	518.497	27.0	1	2.0	2.0	28.4914	955.0	1.68	Certain	-1.54	6.5	2.54975	Yes	n/a	8.039637599094	n/a	n/a	672.0	TrialHappinessSliderResponse	Gain
421.344	2.199	4.012	522.176	27.0	1	2.0	2.0	28.4914	955.0	1.68	Certain	-1.54	6.5	2.54975	Yes	n/a	8.039637599094	n/a	n/a	n/a	ISIRate	Gain
481.106	0.648	n/a	582.432	n/a	1	n/a	n/a	n/a	n/a	n/a	n/a	n/a	n/a	n/a	n/a	n/a	n/a	n/a	n/a	752.0	BlockStartHappinessSliderResponse	n/a
-67.803	-0.001	0.024	524.399	n/a	2	n/a	n/a	n/a	n/a	n/a	n/a	n/a	n/a	n/a	n/a	{SPACE}	n/a	53.502	-14.301	n/a	Rest	n/a
-14.276	4.0	0.025	577.926	n/a	2	n/a	n/a	n/a	n/a	n/a	n/a	n/a	n/a	n/a	n/a	n/a	n/a	n/a	n/a	n/a	BlockHappyPreview	n/a
-10.264	1.142	0.012	581.938	n/a	2	n/a	n/a	n/a	n/a	n/a	n/a	n/a	n/a	n/a	n/a	n/a	n/a	n/a	n/a	752.0	BlockStartHappiness	n/a
-1.304	-0.001	0.022	590.898	n/a	2	n/a	n/a	n/a	n/a	n/a	n/a	n/a	n/a	n/a	n/a	5.0	n/a	1.277	-0.027	n/a	ScanWait	n/a
0.0	10.0	0.027	592.202	n/a	2	n/a	n/a	n/a	n/a	n/a	n/a	n/a	n/a	n/a	n/a	n/a	n/a	n/a	n/a	n/a	GetReady	n/a
10.03	3.0	0.03	602.232	28.0	2	0.0	0.0	28.4914	70.0	2.0	Certain	1.08	-1.69	0.0	No	4.0	2.77078609221466	1.229	11.259	n/a	GetAnswer	Mixed
11.283	4.0	0.024	603.485	28.0	2	0.0	0.0	28.4914	70.0	2.0	Certain	1.08	-1.69	0.0	No	n/a	2.77078609221466	n/a	n/a	n/a	ShowChoice	Mixed
15.295	1.0	0.012	607.497	28.0	2	0.0	0.0	28.4914	70.0	2.0	Certain	1.08	-1.69	0.0	No	n/a	2.77078609221466	n/a	n/a	n/a	ShowResult	Mixed
16.315	3.575	0.02	608.517	28.0	2	0.0	0.0	28.4914	70.0	2.0	Certain	1.08	-1.69	0.0	No	n/a	2.77078609221466	n/a	n/a	n/a	ISITrial	Mixed
19.909	3.0	0.019	612.111	29.0	2	1.13	0.56	28.6327	70.0	2.8	Outcome2	13.5	1.13	3.529	Yes	2.0	-12.3718820861678	0.986	20.895	n/a	GetAnswer	Loss
20.912	4.0	0.017	613.114	29.0	2	1.13	0.56	28.6327	70.0	2.8	Outcome2	13.5	1.13	3.529	Yes	n/a	-12.3718820861678	n/a	n/a	n/a	ShowChoice	Loss
24.924	1.0	0.012	617.126	29.0	2	1.13	0.56	28.6327	70.0	2.8	Outcome2	13.5	1.13	3.529	Yes	n/a	-12.3718820861678	n/a	n/a	n/a	ShowResult	Loss
25.944	3.955	0.02	618.146	29.0	2	1.13	0.56	28.6327	70.0	2.8	Outcome2	13.5	1.13	3.529	Yes	n/a	-12.3718820861678	n/a	n/a	n/a	ISITrial	Loss
29.922	3.529	0.023	622.124	29.0	2	1.13	0.56	28.6327	70.0	2.8	Outcome2	13.5	1.13	3.529	Yes	n/a	-12.3718820861678	n/a	n/a	n/a	TrialHappPreview	Loss
33.466	4.012	0.015	625.668	29.0	2	1.13	0.56	28.6327	70.0	2.8	Outcome2	13.5	1.13	3.529	Yes	n/a	-12.3718820861678	n/a	n/a	656.0	TrialHappiness	Loss
33.467	0.436	n/a	626.025	29.0	2	1.13	0.56	28.6327	70.0	2.8	Outcome2	13.5	1.13	3.529	Yes	n/a	-12.3718820861678	n/a	n/a	656.0	TrialHappinessSliderResponse	Loss
37.478	6.116	4.012	629.68	29.0	2	1.13	0.56	28.6327	70.0	2.8	Outcome2	13.5	1.13	3.529	Yes	n/a	-12.3718820861678	n/a	n/a	n/a	ISIRate	Loss
43.613	3.0	0.019	635.815	30.0	2	1.23	0.0	28.7865	70.0	2.0	Outcome2	-1.28	1.23	0.0	No	2.0	2.5096371882086204	1.164	44.777	n/a	GetAnswer	Gain
44.8	4.0	0.023	637.002	30.0	2	1.23	0.0	28.7865	70.0	2.0	Outcome2	-1.28	1.23	0.0	No	n/a	2.5096371882086204	n/a	n/a	n/a	ShowChoice	Gain
48.812	1.0	0.012	641.014	30.0	2	1.23	0.0	28.7865	70.0	2.0	Outcome2	-1.28	1.23	0.0	No	n/a	2.5096371882086204	n/a	n/a	n/a	ShowResult	Gain
49.832	4.453	0.02	642.034	30.0	2	1.23	0.0	28.7865	70.0	2.0	Outcome2	-1.28	1.23	0.0	No	n/a	2.5096371882086204	n/a	n/a	n/a	ISITrial	Gain
54.312	3.0	0.027	646.514	31.0	2	-0.48	-0.24	28.7265	70.0	3.16	Outcome1	-0.48	11.7	2.50325	Yes	2.0	-12.1768707482993	1.302	55.614	n/a	GetAnswer	Loss
55.633	4.0	0.019	647.835	31.0	2	-0.48	-0.24	28.7265	70.0	3.16	Outcome1	-0.48	11.7	2.50325	Yes	n/a	-12.1768707482993	n/a	n/a	n/a	ShowChoice	Loss
59.645	1.0	0.012	651.847	31.0	2	-0.48	-0.24	28.7265	70.0	3.16	Outcome1	-0.48	11.7	2.50325	Yes	n/a	-12.1768707482993	n/a	n/a	n/a	ShowResult	Loss
60.664	4.786	0.019	652.866	31.0	2	-0.48	-0.24	28.7265	70.0	3.16	Outcome1	-0.48	11.7	2.50325	Yes	n/a	-12.1768707482993	n/a	n/a	n/a	ISITrial	Loss
65.462	2.503	0.012	657.664	31.0	2	-0.48	-0.24	28.7265	70.0	3.16	Outcome1	-0.48	11.7	2.50325	Yes	n/a	-12.1768707482993	n/a	n/a	n/a	TrialHappPreview	Loss
67.986	4.012	0.021	660.188	31.0	2	-0.48	-0.24	28.7265	70.0	3.16	Outcome1	-0.48	11.7	2.50325	Yes	2{-2}2{-2}	-12.1768707482993	2.138	70.124	604.0	TrialHappiness	Loss
67.987	1.644	n/a	660.683	31.0	2	-0.48	-0.24	28.7265	70.0	3.16	Outcome1	-0.48	11.7	2.50325	Yes	n/a	-12.1768707482993	n/a	n/a	604.0	TrialHappinessSliderResponse	Loss
71.998	2.013	4.012	664.2	31.0	2	-0.48	-0.24	28.7265	70.0	3.16	Outcome1	-0.48	11.7	2.50325	Yes	n/a	-12.1768707482993	n/a	n/a	n/a	ISIRate	Loss
74.038	3.0	0.027	666.24	32.0	2	-8.26	-2.0	27.694000000000003	70.0	1.0	Outcome2	3.7	-8.26	0.0	No	2.0	-11.9569160997732	1.282	75.32	n/a	GetAnswer	Mixed
75.342	4.0	0.022	667.544	32.0	2	-8.26	-2.0	27.694000000000003	70.0	1.0	Outcome2	3.7	-8.26	0.0	No	n/a	-11.9569160997732	n/a	n/a	n/a	ShowChoice	Mixed
79.354	1.0	0.012	671.556	32.0	2	-8.26	-2.0	27.694000000000003	70.0	1.0	Outcome2	3.7	-8.26	0.0	No	n/a	-11.9569160997732	n/a	n/a	n/a	ShowResult	Mixed
80.373	2.0	0.019	672.575	32.0	2	-8.26	-2.0	27.694000000000003	70.0	1.0	Outcome2	3.7	-8.26	0.0	No	n/a	-11.9569160997732	n/a	n/a	n/a	ISITrial	Mixed
82.396	3.0	0.023	674.598	33.0	2	0.02	-1.0	27.6965	70.0	1.5	Outcome1	0.02	-2.44	0.0	No	2.0	2.45956160241875	1.266	83.662	n/a	GetAnswer	Mixed
83.683	4.0	0.021	675.885	33.0	2	0.02	-1.0	27.6965	70.0	1.5	Outcome1	0.02	-2.44	0.0	No	n/a	2.45956160241875	n/a	n/a	n/a	ShowChoice	Mixed
87.695	1.0	0.012	679.897	33.0	2	0.02	-1.0	27.6965	70.0	1.5	Outcome1	0.02	-2.44	0.0	No	n/a	2.45956160241875	n/a	n/a	n/a	ShowResult	Mixed
88.715	5.099	0.02	680.917	33.0	2	0.02	-1.0	27.6965	70.0	1.5	Outcome1	0.02	-2.44	0.0	No	n/a	2.45956160241875	n/a	n/a	n/a	ISITrial	Mixed
93.83	3.0	0.016	686.032	34.0	2	-1.0	-1.0	27.5715	70.0	0.4	Certain	-2.79	-0.28	3.2315	Yes	4.0	2.51001511715797	1.633	95.463	n/a	GetAnswer	Mixed
95.485	4.0	0.022	687.687	34.0	2	-1.0	-1.0	27.5715	70.0	0.4	Certain	-2.79	-0.28	3.2315	Yes	n/a	2.51001511715797	n/a	n/a	n/a	ShowChoice	Mixed
99.497	1.0	0.012	691.699	34.0	2	-1.0	-1.0	27.5715	70.0	0.4	Certain	-2.79	-0.28	3.2315	Yes	n/a	2.51001511715797	n/a	n/a	n/a	ShowResult	Mixed
100.517	4.784	0.02	692.719	34.0	2	-1.0	-1.0	27.5715	70.0	0.4	Certain	-2.79	-0.28	3.2315	Yes	n/a	2.51001511715797	n/a	n/a	n/a	ISITrial	Mixed
105.314	3.232	0.013	697.516	34.0	2	-1.0	-1.0	27.5715	70.0	0.4	Certain	-2.79	-0.28	3.2315	Yes	n/a	2.51001511715797	n/a	n/a	n/a	TrialHappPreview	Mixed
108.574	4.012	0.028	700.776	34.0	2	-1.0	-1.0	27.5715	70.0	0.4	Certain	-2.79	-0.28	3.2315	Yes	n/a	2.51001511715797	n/a	n/a	584.0	TrialHappiness	Mixed
108.575	0.3	n/a	701.068	34.0	2	-1.0	-1.0	27.5715	70.0	0.4	Certain	-2.79	-0.28	3.2315	Yes	n/a	2.51001511715797	n/a	n/a	584.0	TrialHappinessSliderResponse	Mixed
112.586	4.926	4.012	704.788	34.0	2	-1.0	-1.0	27.5715	70.0	0.4	Certain	-2.79	-0.28	3.2315	Yes	n/a	2.51001511715797	n/a	n/a	n/a	ISIRate	Mixed
117.534	3.0	0.022	709.736	35.0	2	-9.33	-2.0	26.4053	70.0	1.5	Outcome2	4.1	-9.33	0.0	No	2.0	-13.4331065759637	1.211	118.745	n/a	GetAnswer	Mixed
118.771	4.0	0.026	710.973	35.0	2	-9.33	-2.0	26.4053	70.0	1.5	Outcome2	4.1	-9.33	0.0	No	n/a	-13.4331065759637	n/a	n/a	n/a	ShowChoice	Mixed
122.783	1.0	0.012	714.985	35.0	2	-9.33	-2.0	26.4053	70.0	1.5	Outcome2	4.1	-9.33	0.0	No	n/a	-13.4331065759637	n/a	n/a	n/a	ShowResult	Mixed
123.803	2.098	0.02	716.005	35.0	2	-9.33	-2.0	26.4053	70.0	1.5	Outcome2	4.1	-9.33	0.0	No	n/a	-13.4331065759637	n/a	n/a	n/a	ISITrial	Mixed
125.926	3.0	0.025	718.128	36.0	2	-1.92	-0.96	26.1653	70.0	4.2	Outcome2	12.1	-1.92	3.33575	Yes	2.0	-14.015873015873	0.914	126.84	n/a	GetAnswer	Loss
126.862	4.0	0.022	719.064	36.0	2	-1.92	-0.96	26.1653	70.0	4.2	Outcome2	12.1	-1.92	3.33575	Yes	n/a	-14.015873015873	n/a	n/a	n/a	ShowChoice	Loss
130.874	1.0	0.012	723.076	36.0	2	-1.92	-0.96	26.1653	70.0	4.2	Outcome2	12.1	-1.92	3.33575	Yes	n/a	-14.015873015873	n/a	n/a	n/a	ShowResult	Loss
131.894	5.156	0.02	724.096	36.0	2	-1.92	-0.96	26.1653	70.0	4.2	Outcome2	12.1	-1.92	3.33575	Yes	n/a	-14.015873015873	n/a	n/a	n/a	ISITrial	Loss
137.076	3.336	0.026	729.278	36.0	2	-1.92	-0.96	26.1653	70.0	4.2	Outcome2	12.1	-1.92	3.33575	Yes	n/a	-14.015873015873	n/a	n/a	n/a	TrialHappPreview	Loss
140.436	4.012	0.024	732.638	36.0	2	-1.92	-0.96	26.1653	70.0	4.2	Outcome2	12.1	-1.92	3.33575	Yes	n/a	-14.015873015873	n/a	n/a	440.0	TrialHappiness	Loss
140.437	0.286	n/a	733.027	36.0	2	-1.92	-0.96	26.1653	70.0	4.2	Outcome2	12.1	-1.92	3.33575	Yes	n/a	-14.015873015873	n/a	n/a	440.0	TrialHappinessSliderResponse	Loss
144.448	5.343	4.012	736.65	36.0	2	-1.92	-0.96	26.1653	70.0	4.2	Outcome2	12.1	-1.92	3.33575	Yes	n/a	-14.015873015873	n/a	n/a	n/a	ISIRate	Loss
149.814	3.0	0.023	742.016	37.0	2	0.15	0.08	26.1841	70.0	5.0	Outcome1	0.15	12.3	0.0	No	2.0	-12.1496598639456	1.117	150.931	n/a	GetAnswer	Loss
150.951	4.0	0.02	743.153	37.0	2	0.15	0.08	26.1841	70.0	5.0	Outcome1	0.15	12.3	0.0	No	n/a	-12.1496598639456	n/a	n/a	n/a	ShowChoice	Loss
154.963	1.0	0.012	747.165	37.0	2	0.15	0.08	26.1841	70.0	5.0	Outcome1	0.15	12.3	0.0	No	n/a	-12.1496598639456	n/a	n/a	n/a	ShowResult	Loss
155.983	3.598	0.02	748.185	37.0	2	0.15	0.08	26.1841	70.0	5.0	Outcome1	0.15	12.3	0.0	No	n/a	-12.1496598639456	n/a	n/a	n/a	ISITrial	Loss
159.61	3.0	0.029	751.812	38.0	2	-0.07	-0.04	26.1753	70.0	1.68	Outcome1	-0.07	12.5	0.0	No	2.0	-12.569160997732402	1.533	161.143	n/a	GetAnswer	Loss
161.165	4.0	0.022	753.367	38.0	2	-0.07	-0.04	26.1753	70.0	1.68	Outcome1	-0.07	12.5	0.0	No	n/a	-12.569160997732402	n/a	n/a	n/a	ShowChoice	Loss
165.177	1.0	0.012	757.379	38.0	2	-0.07	-0.04	26.1753	70.0	1.68	Outcome1	-0.07	12.5	0.0	No	n/a	-12.569160997732402	n/a	n/a	n/a	ShowResult	Loss
166.197	4.787	0.02	758.399	38.0	2	-0.07	-0.04	26.1753	70.0	1.68	Outcome1	-0.07	12.5	0.0	No	n/a	-12.569160997732402	n/a	n/a	n/a	ISITrial	Loss
171.011	3.0	0.027	763.213	39.0	2	1.88	1.0	26.4103	70.0	2.8	Outcome1	1.88	-0.18	2.86425	Yes	2.0	2.06122448979592	1.191	172.202	n/a	GetAnswer	Gain
172.215	4.0	0.013	764.417	39.0	2	1.88	1.0	26.4103	70.0	2.8	Outcome1	1.88	-0.18	2.86425	Yes	n/a	2.06122448979592	n/a	n/a	n/a	ShowChoice	Gain
176.226	1.0	0.011	768.428	39.0	2	1.88	1.0	26.4103	70.0	2.8	Outcome1	1.88	-0.18	2.86425	Yes	n/a	2.06122448979592	n/a	n/a	n/a	ShowResult	Gain
177.246	2.348	0.02	769.448	39.0	2	1.88	1.0	26.4103	70.0	2.8	Outcome1	1.88	-0.18	2.86425	Yes	n/a	2.06122448979592	n/a	n/a	n/a	ISITrial	Gain
179.62	2.864	0.026	771.822	39.0	2	1.88	1.0	26.4103	70.0	2.8	Outcome1	1.88	-0.18	2.86425	Yes	n/a	2.06122448979592	n/a	n/a	n/a	TrialHappPreview	Gain
182.512	4.012	0.028	774.714	39.0	2	1.88	1.0	26.4103	70.0	2.8	Outcome1	1.88	-0.18	2.86425	Yes	n/a	2.06122448979592	n/a	n/a	560.0	TrialHappiness	Gain
182.513	0.245	n/a	775.213	39.0	2	1.88	1.0	26.4103	70.0	2.8	Outcome1	1.88	-0.18	2.86425	Yes	n/a	2.06122448979592	n/a	n/a	560.0	TrialHappinessSliderResponse	Gain
186.524	3.457	4.012	778.726	39.0	2	1.88	1.0	26.4103	70.0	2.8	Outcome1	1.88	-0.18	2.86425	Yes	n/a	2.06122448979592	n/a	n/a	n/a	ISIRate	Gain
190.001	3.0	0.02	782.203	40.0	2	-14.95	-7.0	24.5415	70.0	0.2	Outcome2	0.5	-14.95	0.0	No	2.0	-15.448979591836698	0.802	190.803	n/a	GetAnswer	Mixed
190.82	4.0	0.017	783.022	40.0	2	-14.95	-7.0	24.5415	70.0	0.2	Outcome2	0.5	-14.95	0.0	No	n/a	-15.448979591836698	n/a	n/a	n/a	ShowChoice	Mixed
194.832	1.0	0.012	787.034	40.0	2	-14.95	-7.0	24.5415	70.0	0.2	Outcome2	0.5	-14.95	0.0	No	n/a	-15.448979591836698	n/a	n/a	n/a	ShowResult	Mixed
195.852	3.158	0.02	788.054	40.0	2	-14.95	-7.0	24.5415	70.0	0.2	Outcome2	0.5	-14.95	0.0	No	n/a	-15.448979591836698	n/a	n/a	n/a	ISITrial	Mixed
199.028	3.0	0.018	791.23	41.0	2	-11.3	-3.0	23.129	70.0	1.82	Outcome1	-11.3	4.7	4.0	Yes	2.0	-16.0045351473923	0.786	199.814	n/a	GetAnswer	Gain
199.83	4.0	0.016	792.032	41.0	2	-11.3	-3.0	23.129	70.0	1.82	Outcome1	-11.3	4.7	4.0	Yes	n/a	-16.0045351473923	n/a	n/a	n/a	ShowChoice	Gain
203.842	1.0	0.012	796.044	41.0	2	-11.3	-3.0	23.129	70.0	1.82	Outcome1	-11.3	4.7	4.0	Yes	n/a	-16.0045351473923	n/a	n/a	n/a	ShowResult	Gain
204.862	4.506	0.02	797.064	41.0	2	-11.3	-3.0	23.129	70.0	1.82	Outcome1	-11.3	4.7	4.0	Yes	n/a	-16.0045351473923	n/a	n/a	n/a	ISITrial	Gain
209.392	4.0	0.024	801.594	41.0	2	-11.3	-3.0	23.129	70.0	1.82	Outcome1	-11.3	4.7	4.0	Yes	n/a	-16.0045351473923	n/a	n/a	n/a	TrialHappPreview	Gain
213.421	4.012	0.029	805.623	41.0	2	-11.3	-3.0	23.129	70.0	1.82	Outcome1	-11.3	4.7	4.0	Yes	n/a	-16.0045351473923	n/a	n/a	256.0	TrialHappiness	Gain
213.422	0.677	n/a	805.872	41.0	2	-11.3	-3.0	23.129	70.0	1.82	Outcome1	-11.3	4.7	4.0	Yes	n/a	-16.0045351473923	n/a	n/a	256.0	TrialHappinessSliderResponse	Gain
217.433	8.0	4.012	809.635	41.0	2	-11.3	-3.0	23.129	70.0	1.82	Outcome1	-11.3	4.7	4.0	Yes	n/a	-16.0045351473923	n/a	n/a	n/a	ISIRate	Gain
225.457	3.0	0.024	817.659	42.0	2	-6.89	-1.0	22.2678	70.0	1.68	Outcome1	-6.89	4.5	0.0	No	2.0	-11.390022675737	1.069	226.526	n/a	GetAnswer	Gain
226.544	4.0	0.018	818.746	42.0	2	-6.89	-1.0	22.2678	70.0	1.68	Outcome1	-6.89	4.5	0.0	No	n/a	-11.390022675737	n/a	n/a	n/a	ShowChoice	Gain
230.556	1.0	0.012	822.758	42.0	2	-6.89	-1.0	22.2678	70.0	1.68	Outcome1	-6.89	4.5	0.0	No	n/a	-11.390022675737	n/a	n/a	n/a	ShowResult	Gain
231.575	6.248	0.019	823.777	42.0	2	-6.89	-1.0	22.2678	70.0	1.68	Outcome1	-6.89	4.5	0.0	No	n/a	-11.390022675737	n/a	n/a	n/a	ISITrial	Gain
237.844	3.0	0.021	830.046	43.0	2	-1.7	-0.85	22.0553	70.0	3.6	Outcome2	9.9	-1.7	2.77575	Yes	2.0	-11.6009070294785	0.873	238.717	n/a	GetAnswer	Gain
238.73	4.0	0.013	830.932	43.0	2	-1.7	-0.85	22.0553	70.0	3.6	Outcome2	9.9	-1.7	2.77575	Yes	n/a	-11.6009070294785	n/a	n/a	n/a	ShowChoice	Gain
242.742	1.0	0.012	834.944	43.0	2	-1.7	-0.85	22.0553	70.0	3.6	Outcome2	9.9	-1.7	2.77575	Yes	n/a	-11.6009070294785	n/a	n/a	n/a	ShowResult	Gain
243.762	4.596	0.02	835.964	43.0	2	-1.7	-0.85	22.0553	70.0	3.6	Outcome2	9.9	-1.7	2.77575	Yes	n/a	-11.6009070294785	n/a	n/a	n/a	ISITrial	Gain
248.376	2.776	0.018	840.578	43.0	2	-1.7	-0.85	22.0553	70.0	3.6	Outcome2	9.9	-1.7	2.77575	Yes	n/a	-11.6009070294785	n/a	n/a	n/a	TrialHappPreview	Gain
251.184	4.012	0.032	843.386	43.0	2	-1.7	-0.85	22.0553	70.0	3.6	Outcome2	9.9	-1.7	2.77575	Yes	n/a	-11.6009070294785	n/a	n/a	168.0	TrialHappiness	Gain
251.185	1.727	n/a	843.721	43.0	2	-1.7	-0.85	22.0553	70.0	3.6	Outcome2	9.9	-1.7	2.77575	Yes	n/a	-11.6009070294785	n/a	n/a	168.0	TrialHappinessSliderResponse	Gain
255.196	3.103	4.012	847.398	43.0	2	-1.7	-0.85	22.0553	70.0	3.6	Outcome2	9.9	-1.7	2.77575	Yes	n/a	-11.6009070294785	n/a	n/a	n/a	ISIRate	Gain
258.322	3.0	0.023	850.524	44.0	2	-0.22	-1.0	22.0278	70.0	0.52	Outcome2	-1.34	-0.22	0.0	No	2.0	1.11885865457294	0.88	259.202	n/a	GetAnswer	Mixed
259.225	4.0	0.023	851.427	44.0	2	-0.22	-1.0	22.0278	70.0	0.52	Outcome2	-1.34	-0.22	0.0	No	n/a	1.11885865457294	n/a	n/a	n/a	ShowChoice	Mixed
263.253	1.0	0.028	855.455	44.0	2	-0.22	-1.0	22.0278	70.0	0.52	Outcome2	-1.34	-0.22	0.0	No	n/a	1.11885865457294	n/a	n/a	n/a	ShowResult	Mixed
264.273	2.42	0.02	856.475	44.0	2	-0.22	-1.0	22.0278	70.0	0.52	Outcome2	-1.34	-0.22	0.0	No	n/a	1.11885865457294	n/a	n/a	n/a	ISITrial	Mixed
266.714	3.0	0.021	858.916	45.0	2	0.0	0.0	22.0278	70.0	2.0	Certain	-0.56	0.57	0.0	No	4.0	1.1281179138322	1.093	267.807	n/a	GetAnswer	Mixed
267.834	4.0	0.027	860.036	45.0	2	0.0	0.0	22.0278	70.0	2.0	Certain	-0.56	0.57	0.0	No	n/a	1.1281179138322	n/a	n/a	n/a	ShowChoice	Mixed
271.846	1.0	0.012	864.048	45.0	2	0.0	0.0	22.0278	70.0	2.0	Certain	-0.56	0.57	0.0	No	n/a	1.1281179138322	n/a	n/a	n/a	ShowResult	Mixed
272.865	3.144	0.019	865.067	45.0	2	0.0	0.0	22.0278	70.0	2.0	Certain	-0.56	0.57	0.0	No	n/a	1.1281179138322	n/a	n/a	n/a	ISITrial	Mixed
276.025	3.0	0.016	868.227	46.0	2	-7.84	-2.0	21.0478	70.0	0.3	Outcome1	-7.84	2.7	3.84125	Yes	2.0	-10.5374149659864	1.154	277.179	n/a	GetAnswer	Mixed
277.195	4.0	0.016	869.397	46.0	2	-7.84	-2.0	21.0478	70.0	0.3	Outcome1	-7.84	2.7	3.84125	Yes	n/a	-10.5374149659864	n/a	n/a	n/a	ShowChoice	Mixed
281.207	1.0	0.012	873.409	46.0	2	-7.84	-2.0	21.0478	70.0	0.3	Outcome1	-7.84	2.7	3.84125	Yes	n/a	-10.5374149659864	n/a	n/a	n/a	ShowResult	Mixed
282.227	2.246	0.02	874.429	46.0	2	-7.84	-2.0	21.0478	70.0	0.3	Outcome1	-7.84	2.7	3.84125	Yes	n/a	-10.5374149659864	n/a	n/a	n/a	ISITrial	Mixed
284.5	3.841	0.027	876.702	46.0	2	-7.84	-2.0	21.0478	70.0	0.3	Outcome1	-7.84	2.7	3.84125	Yes	n/a	-10.5374149659864	n/a	n/a	n/a	TrialHappPreview	Mixed
288.362	4.012	0.021	880.564	46.0	2	-7.84	-2.0	21.0478	70.0	0.3	Outcome1	-7.84	2.7	3.84125	Yes	n/a	-10.5374149659864	n/a	n/a	312.0	TrialHappiness	Mixed
288.362	0.566	n/a	880.873	46.0	2	-7.84	-2.0	21.0478	70.0	0.3	Outcome1	-7.84	2.7	3.84125	Yes	n/a	-10.5374149659864	n/a	n/a	312.0	TrialHappinessSliderResponse	Mixed
292.374	7.365	4.012	884.576	46.0	2	-7.84	-2.0	21.0478	70.0	0.3	Outcome1	-7.84	2.7	3.84125	Yes	n/a	-10.5374149659864	n/a	n/a	n/a	ISIRate	Mixed
299.763	3.0	0.024	891.965	47.0	2	-9.2	-2.0	19.8978	70.0	1.2	Outcome1	-9.2	3.9	0.0	No	2.0	-13.0975056689342	0.763	300.526	n/a	GetAnswer	Mixed
300.548	4.0	0.022	892.75	47.0	2	-9.2	-2.0	19.8978	70.0	1.2	Outcome1	-9.2	3.9	0.0	No	n/a	-13.0975056689342	n/a	n/a	n/a	ShowChoice	Mixed
304.56	1.0	0.012	896.762	47.0	2	-9.2	-2.0	19.8978	70.0	1.2	Outcome1	-9.2	3.9	0.0	No	n/a	-13.0975056689342	n/a	n/a	n/a	ShowResult	Mixed
305.58	2.0	0.02	897.782	47.0	2	-9.2	-2.0	19.8978	70.0	1.2	Outcome1	-9.2	3.9	0.0	No	n/a	-13.0975056689342	n/a	n/a	n/a	ISITrial	Mixed
307.603	3.0	0.023	899.805	48.0	2	-11.87	-5.0	18.414	70.0	0.82	Outcome2	1.5	-11.87	2.83175	Yes	2.0	-13.3718820861678	0.81	308.413	n/a	GetAnswer	Mixed
308.438	4.0	0.025	900.64	48.0	2	-11.87	-5.0	18.414	70.0	0.82	Outcome2	1.5	-11.87	2.83175	Yes	n/a	-13.3718820861678	n/a	n/a	n/a	ShowChoice	Mixed
312.45	1.0	0.012	904.652	48.0	2	-11.87	-5.0	18.414	70.0	0.82	Outcome2	1.5	-11.87	2.83175	Yes	n/a	-13.3718820861678	n/a	n/a	n/a	ShowResult	Mixed
313.47	3.692	0.02	905.672	48.0	2	-11.87	-5.0	18.414	70.0	0.82	Outcome2	1.5	-11.87	2.83175	Yes	n/a	-13.3718820861678	n/a	n/a	n/a	ISITrial	Mixed
317.181	2.832	0.019	909.383	48.0	2	-11.87	-5.0	18.414	70.0	0.82	Outcome2	1.5	-11.87	2.83175	Yes	n/a	-13.3718820861678	n/a	n/a	n/a	TrialHappPreview	Mixed
320.04	4.012	0.027	912.242	48.0	2	-11.87	-5.0	18.414	70.0	0.82	Outcome2	1.5	-11.87	2.83175	Yes	n/a	-13.3718820861678	n/a	n/a	72.0	TrialHappiness	Mixed
320.04	1.144	n/a	912.592	48.0	2	-11.87	-5.0	18.414	70.0	0.82	Outcome2	1.5	-11.87	2.83175	Yes	n/a	-13.3718820861678	n/a	n/a	72.0	TrialHappinessSliderResponse	Mixed
324.052	3.327	4.012	916.254	48.0	2	-11.87	-5.0	18.414	70.0	0.82	Outcome2	1.5	-11.87	2.83175	Yes	n/a	-13.3718820861678	n/a	n/a	n/a	ISIRate	Mixed
327.395	3.0	0.016	919.597	49.0	2	1.38	1.0	18.5865	70.0	2.8	Outcome1	1.38	0.58	0.0	No	2.0	0.8023431594860161	1.126	328.521	n/a	GetAnswer	Gain
328.532	4.0	0.011	920.734	49.0	2	1.38	1.0	18.5865	70.0	2.8	Outcome1	1.38	0.58	0.0	No	n/a	0.8023431594860161	n/a	n/a	n/a	ShowChoice	Gain
332.544	1.0	0.012	924.746	49.0	2	1.38	1.0	18.5865	70.0	2.8	Outcome1	1.38	0.58	0.0	No	n/a	0.8023431594860161	n/a	n/a	n/a	ShowResult	Gain
333.564	8.0	0.02	925.766	49.0	2	1.38	1.0	18.5865	70.0	2.8	Outcome1	1.38	0.58	0.0	No	n/a	0.8023431594860161	n/a	n/a	n/a	ISITrial	Gain
341.588	3.0	0.024	933.79	50.0	2	0.88	0.0	18.6965	70.0	0.82	Outcome1	0.88	0.08	3.54725	Yes	2.0	0.802532123960695	1.187	342.775	n/a	GetAnswer	Mixed
342.791	4.0	0.016	934.993	50.0	2	0.88	0.0	18.6965	70.0	0.82	Outcome1	0.88	0.08	3.54725	Yes	n/a	0.802532123960695	n/a	n/a	n/a	ShowChoice	Mixed
346.803	1.0	0.012	939.005	50.0	2	0.88	0.0	18.6965	70.0	0.82	Outcome1	0.88	0.08	3.54725	Yes	n/a	0.802532123960695	n/a	n/a	n/a	ShowResult	Mixed
347.823	7.537	0.02	940.025	50.0	2	0.88	0.0	18.6965	70.0	0.82	Outcome1	0.88	0.08	3.54725	Yes	n/a	0.802532123960695	n/a	n/a	n/a	ISITrial	Mixed
355.379	3.547	0.019	947.581	50.0	2	0.88	0.0	18.6965	70.0	0.82	Outcome1	0.88	0.08	3.54725	Yes	n/a	0.802532123960695	n/a	n/a	n/a	TrialHappPreview	Mixed
358.956	4.012	0.03	951.158	50.0	2	0.88	0.0	18.6965	70.0	0.82	Outcome1	0.88	0.08	3.54725	Yes	n/a	0.802532123960695	n/a	n/a	408.0	TrialHappiness	Mixed
358.957	0.365	n/a	952.17	50.0	2	0.88	0.0	18.6965	70.0	0.82	Outcome1	0.88	0.08	3.54725	Yes	n/a	0.802532123960695	n/a	n/a	408.0	TrialHappinessSliderResponse	Mixed
362.968	6.189	4.012	955.17	50.0	2	0.88	0.0	18.6965	70.0	0.82	Outcome1	0.88	0.08	3.54725	Yes	n/a	0.802532123960695	n/a	n/a	n/a	ISIRate	Mixed
369.187	3.0	0.03	961.389	51.0	2	-15.58	-8.0	16.749000000000002	70.0	1.0	Outcome1	-15.58	-0.3	0.0	No	2.0	-15.2834467120181	1.799	370.986	n/a	GetAnswer	Mixed
371.009	4.0	0.023	963.211	51.0	2	-15.58	-8.0	16.749000000000002	70.0	1.0	Outcome1	-15.58	-0.3	0.0	No	n/a	-15.2834467120181	n/a	n/a	n/a	ShowChoice	Mixed
375.021	1.0	0.012	967.223	51.0	2	-15.58	-8.0	16.749000000000002	70.0	1.0	Outcome1	-15.58	-0.3	0.0	No	n/a	-15.2834467120181	n/a	n/a	n/a	ShowResult	Mixed
376.041	5.508	0.02	968.243	51.0	2	-15.58	-8.0	16.749000000000002	70.0	1.0	Outcome1	-15.58	-0.3	0.0	No	n/a	-15.2834467120181	n/a	n/a	n/a	ISITrial	Mixed
381.574	3.0	0.025	973.776	52.0	2	1.68	0.0	16.959	70.0	1.82	Outcome2	-0.52	1.68	0.0	No	2.0	2.19973544973545	1.043	382.617	n/a	GetAnswer	Gain
382.644	4.0	0.027	974.846	52.0	2	1.68	0.0	16.959	70.0	1.82	Outcome2	-0.52	1.68	0.0	No	n/a	2.19973544973545	n/a	n/a	n/a	ShowChoice	Gain
386.656	1.0	0.012	978.858	52.0	2	1.68	0.0	16.959	70.0	1.82	Outcome2	-0.52	1.68	0.0	No	n/a	2.19973544973545	n/a	n/a	n/a	ShowResult	Gain
387.675	5.913	0.019	979.877	52.0	2	1.68	0.0	16.959	70.0	1.82	Outcome2	-0.52	1.68	0.0	No	n/a	2.19973544973545	n/a	n/a	n/a	ISITrial	Gain
393.61	3.0	0.022	985.812	53.0	2	2.42	1.0	17.2615	70.0	3.16	Outcome2	0.19	2.42	2.99675	Yes	2.0	2.2316704459561603	1.332	394.942	n/a	GetAnswer	Gain
394.964	4.0	0.022	987.166	53.0	2	2.42	1.0	17.2615	70.0	3.16	Outcome2	0.19	2.42	2.99675	Yes	n/a	2.2316704459561603	n/a	n/a	n/a	ShowChoice	Gain
398.976	1.0	0.012	991.178	53.0	2	2.42	1.0	17.2615	70.0	3.16	Outcome2	0.19	2.42	2.99675	Yes	n/a	2.2316704459561603	n/a	n/a	n/a	ShowResult	Gain
399.996	3.66	0.02	992.198	53.0	2	2.42	1.0	17.2615	70.0	3.16	Outcome2	0.19	2.42	2.99675	Yes	n/a	2.2316704459561603	n/a	n/a	n/a	ISITrial	Gain
403.673	2.997	0.017	995.875	53.0	2	2.42	1.0	17.2615	70.0	3.16	Outcome2	0.19	2.42	2.99675	Yes	n/a	2.2316704459561603	n/a	n/a	n/a	TrialHappPreview	Gain
406.699	4.029	0.029	998.901	53.0	2	2.42	1.0	17.2615	70.0	3.16	Outcome2	0.19	2.42	2.99675	Yes	n/a	2.2316704459561603	n/a	n/a	472.0	TrialHappiness	Gain
406.7	0.234	n/a	999.411	53.0	2	2.42	1.0	17.2615	70.0	3.16	Outcome2	0.19	2.42	2.99675	Yes	n/a	2.2316704459561603	n/a	n/a	472.0	TrialHappinessSliderResponse	Gain
410.728	3.987	4.029	1002.93	53.0	2	2.42	1.0	17.2615	70.0	3.16	Outcome2	0.19	2.42	2.99675	Yes	n/a	2.2316704459561603	n/a	n/a	n/a	ISIRate	Gain
414.74	3.0	0.025	1006.942	54.0	2	1.92	0.0	17.5015	70.0	3.16	Outcome2	-0.6	1.92	0.0	No	2.0	2.52362055933484	1.213	415.953	n/a	GetAnswer	Gain
415.977	4.0	0.024	1008.179	54.0	2	1.92	0.0	17.5015	70.0	3.16	Outcome2	-0.6	1.92	0.0	No	n/a	2.52362055933484	n/a	n/a	n/a	ShowChoice	Gain
419.989	1.0	0.012	1012.191	54.0	2	1.92	0.0	17.5015	70.0	3.16	Outcome2	-0.6	1.92	0.0	No	n/a	2.52362055933484	n/a	n/a	n/a	ShowResult	Gain
421.008	8.0	0.019	1013.21	54.0	2	1.92	0.0	17.5015	70.0	3.16	Outcome2	-0.6	1.92	0.0	No	n/a	2.52362055933484	n/a	n/a	n/a	ISITrial	Gain
450.982	0.284	n/a	1044.962	n/a	2	n/a	n/a	n/a	n/a	n/a	n/a	n/a	n/a	n/a	n/a	n/a	n/a	n/a	n/a	440.0	BlockStartHappinessSliderResponse	n/a
-41.876	-0.001	0.024	1021.234	n/a	3	n/a	n/a	n/a	n/a	n/a	n/a	n/a	n/a	n/a	n/a	{SPACE}	n/a	17.92	-23.956	n/a	Rest	n/a
-23.939	4.0	0.017	1039.171	n/a	3	n/a	n/a	n/a	n/a	n/a	n/a	n/a	n/a	n/a	n/a	n/a	n/a	n/a	n/a	n/a	BlockHappyPreview	n/a
-19.927	2.062	0.012	1043.183	n/a	3	n/a	n/a	n/a	n/a	n/a	n/a	n/a	n/a	n/a	n/a	n/a	n/a	n/a	n/a	440.0	BlockStartHappiness	n/a
-1.923	-0.001	0.018	1061.187	n/a	3	n/a	n/a	n/a	n/a	n/a	n/a	n/a	n/a	n/a	n/a	5.0	n/a	1.908	-0.015	n/a	ScanWait	n/a
0.0	10.0	0.015	1063.11	n/a	3	n/a	n/a	n/a	n/a	n/a	n/a	n/a	n/a	n/a	n/a	n/a	n/a	n/a	n/a	n/a	GetReady	n/a
10.013	3.0	0.013	1073.123	55.0	3	11.5	1.38	18.939	955.0	2.8	Outcome2	2.75	11.5	2.53325	Yes	2.0	8.74858437146093	1.175	11.188	n/a	GetAnswer	Loss
11.2	4.0	0.012	1074.31	55.0	3	11.5	1.38	18.939	955.0	2.8	Outcome2	2.75	11.5	2.53325	Yes	n/a	8.74858437146093	n/a	n/a	n/a	ShowChoice	Loss
15.212	1.0	0.012	1078.322	55.0	3	11.5	1.38	18.939	955.0	2.8	Outcome2	2.75	11.5	2.53325	Yes	n/a	8.74858437146093	n/a	n/a	n/a	ShowResult	Loss
16.231	7.709	0.019	1079.341	55.0	3	11.5	1.38	18.939	955.0	2.8	Outcome2	2.75	11.5	2.53325	Yes	n/a	8.74858437146093	n/a	n/a	n/a	ISITrial	Loss
23.955	2.533	0.015	1087.065	55.0	3	11.5	1.38	18.939	955.0	2.8	Outcome2	2.75	11.5	2.53325	Yes	n/a	8.74858437146093	n/a	n/a	n/a	TrialHappPreview	Loss
26.512	4.012	0.024	1089.622	55.0	3	11.5	1.38	18.939	955.0	2.8	Outcome2	2.75	11.5	2.53325	Yes	n/a	8.74858437146093	n/a	n/a	512.0	TrialHappiness	Loss
26.513	0.0	n/a	1089.623	55.0	3	11.5	1.38	18.939	955.0	2.8	Outcome2	2.75	11.5	2.53325	Yes	n/a	8.74858437146093	n/a	n/a	512.0	TrialHappinessSliderResponse	Loss
30.524	2.133	4.012	1093.634	55.0	3	11.5	1.38	18.939	955.0	2.8	Outcome2	2.75	11.5	2.53325	Yes	n/a	8.74858437146093	n/a	n/a	n/a	ISIRate	Loss
32.681	3.0	0.024	1095.791	56.0	3	7.3	-0.4	19.8515	955.0	2.48	Outcome2	-0.81	7.3	0.0	No	2.0	8.10872027180068	1.075	33.756	n/a	GetAnswer	Gain
33.784	4.0	0.027	1096.894	56.0	3	7.3	-0.4	19.8515	955.0	2.48	Outcome2	-0.81	7.3	0.0	No	n/a	8.10872027180068	n/a	n/a	n/a	ShowChoice	Gain
37.796	1.0	0.012	1100.906	56.0	3	7.3	-0.4	19.8515	955.0	2.48	Outcome2	-0.81	7.3	0.0	No	n/a	8.10872027180068	n/a	n/a	n/a	ShowResult	Gain
38.816	4.697	0.02	1101.926	56.0	3	7.3	-0.4	19.8515	955.0	2.48	Outcome2	-0.81	7.3	0.0	No	n/a	8.10872027180068	n/a	n/a	n/a	ISITrial	Gain
43.53	3.0	0.017	1106.64	57.0	3	5.9	1.0	20.589	955.0	3.6	Outcome1	5.9	-2.71	0.0	No	2.0	8.61041902604756	1.545	45.075	n/a	GetAnswer	Gain
45.101	4.0	0.026	1108.211	57.0	3	5.9	1.0	20.589	955.0	3.6	Outcome1	5.9	-2.71	0.0	No	n/a	8.61041902604756	n/a	n/a	n/a	ShowChoice	Gain
49.113	1.0	0.012	1112.223	57.0	3	5.9	1.0	20.589	955.0	3.6	Outcome1	5.9	-2.71	0.0	No	n/a	8.61041902604756	n/a	n/a	n/a	ShowResult	Gain
50.133	4.291	0.02	1113.243	57.0	3	5.9	1.0	20.589	955.0	3.6	Outcome1	5.9	-2.71	0.0	No	n/a	8.61041902604756	n/a	n/a	n/a	ISITrial	Gain
54.446	3.0	0.022	1117.556	58.0	3	9.17	4.58	21.7352	955.0	2.22	Outcome1	9.17	11.1	3.04575	Yes	2.0	-1.92997357493394	1.191	55.637	n/a	GetAnswer	Loss
55.649	4.0	0.012	1118.759	58.0	3	9.17	4.58	21.7352	955.0	2.22	Outcome1	9.17	11.1	3.04575	Yes	n/a	-1.92997357493394	n/a	n/a	n/a	ShowChoice	Loss
59.661	1.0	0.012	1122.771	58.0	3	9.17	4.58	21.7352	955.0	2.22	Outcome1	9.17	11.1	3.04575	Yes	n/a	-1.92997357493394	n/a	n/a	n/a	ShowResult	Loss
60.681	2.037	0.02	1123.791	58.0	3	9.17	4.58	21.7352	955.0	2.22	Outcome1	9.17	11.1	3.04575	Yes	n/a	-1.92997357493394	n/a	n/a	n/a	ISITrial	Loss
62.737	3.046	0.019	1125.847	58.0	3	9.17	4.58	21.7352	955.0	2.22	Outcome1	9.17	11.1	3.04575	Yes	n/a	-1.92997357493394	n/a	n/a	n/a	TrialHappPreview	Loss
65.813	4.012	0.03	1128.923	58.0	3	9.17	4.58	21.7352	955.0	2.22	Outcome1	9.17	11.1	3.04575	Yes	n/a	-1.92997357493394	n/a	n/a	536.0	TrialHappiness	Loss
65.814	0.201	n/a	1129.817	58.0	3	9.17	4.58	21.7352	955.0	2.22	Outcome1	9.17	11.1	3.04575	Yes	n/a	-1.92997357493394	n/a	n/a	536.0	TrialHappinessSliderResponse	Loss
69.825	4.183	4.012	1132.935	58.0	3	9.17	4.58	21.7352	955.0	2.22	Outcome1	9.17	11.1	3.04575	Yes	n/a	-1.92997357493394	n/a	n/a	n/a	ISIRate	Loss
74.038	3.0	0.03	1137.148	59.0	3	8.23	4.12	22.764	955.0	4.2	Outcome1	8.23	10.1	0.0	No	2.0	-1.8743865609664	1.017	75.055	n/a	GetAnswer	Gain
75.074	4.0	0.019	1138.184	59.0	3	8.23	4.12	22.764	955.0	4.2	Outcome1	8.23	10.1	0.0	No	n/a	-1.8743865609664	n/a	n/a	n/a	ShowChoice	Gain
79.086	1.0	0.012	1142.196	59.0	3	8.23	4.12	22.764	955.0	4.2	Outcome1	8.23	10.1	0.0	No	n/a	-1.8743865609664	n/a	n/a	n/a	ShowResult	Gain
80.106	5.064	0.02	1143.216	59.0	3	8.23	4.12	22.764	955.0	4.2	Outcome1	8.23	10.1	0.0	No	n/a	-1.8743865609664	n/a	n/a	n/a	ISITrial	Gain
85.188	3.0	0.018	1148.298	60.0	3	11.3	0.81	24.1765	955.0	2.48	Outcome2	1.62	11.3	3.5625	Yes	2.0	9.6806342015855	1.157	86.345	n/a	GetAnswer	Loss
86.358	4.0	0.013	1149.468	60.0	3	11.3	0.81	24.1765	955.0	2.48	Outcome2	1.62	11.3	3.5625	Yes	n/a	9.6806342015855	n/a	n/a	n/a	ShowChoice	Loss
90.37	1.0	0.012	1153.48	60.0	3	11.3	0.81	24.1765	955.0	2.48	Outcome2	1.62	11.3	3.5625	Yes	n/a	9.6806342015855	n/a	n/a	n/a	ShowResult	Loss
91.389	8.0	0.019	1154.499	60.0	3	11.3	0.81	24.1765	955.0	2.48	Outcome2	1.62	11.3	3.5625	Yes	n/a	9.6806342015855	n/a	n/a	n/a	ISITrial	Loss
99.413	3.562	0.024	1162.523	60.0	3	11.3	0.81	24.1765	955.0	2.48	Outcome2	1.62	11.3	3.5625	Yes	n/a	9.6806342015855	n/a	n/a	n/a	TrialHappPreview	Loss
102.991	4.012	0.016	1166.101	60.0	3	11.3	0.81	24.1765	955.0	2.48	Outcome2	1.62	11.3	3.5625	Yes	n/a	9.6806342015855	n/a	n/a	656.0	TrialHappiness	Loss
102.991	1.231	n/a	1166.164	60.0	3	11.3	0.81	24.1765	955.0	2.48	Outcome2	1.62	11.3	3.5625	Yes	n/a	9.6806342015855	n/a	n/a	656.0	TrialHappinessSliderResponse	Loss
107.003	6.25	4.012	1170.113	60.0	3	11.3	0.81	24.1765	955.0	2.48	Outcome2	1.62	11.3	3.5625	Yes	n/a	9.6806342015855	n/a	n/a	n/a	ISIRate	Loss
113.272	3.0	0.019	1176.382	61.0	3	-1.5	-5.0	23.989	955.0	0.2	Outcome1	-1.5	-9.62	0.0	No	2.0	8.116647791619481	1.429	114.701	n/a	GetAnswer	Mixed
114.726	4.0	0.025	1177.836	61.0	3	-1.5	-5.0	23.989	955.0	0.2	Outcome1	-1.5	-9.62	0.0	No	n/a	8.116647791619481	n/a	n/a	n/a	ShowChoice	Mixed
118.738	1.0	0.012	1181.848	61.0	3	-1.5	-5.0	23.989	955.0	0.2	Outcome1	-1.5	-9.62	0.0	No	n/a	8.116647791619481	n/a	n/a	n/a	ShowResult	Mixed
119.758	4.586	0.02	1182.868	61.0	3	-1.5	-5.0	23.989	955.0	0.2	Outcome1	-1.5	-9.62	0.0	No	n/a	8.116647791619481	n/a	n/a	n/a	ISITrial	Mixed
124.371	3.0	0.027	1187.481	62.0	3	-0.5	-4.0	23.9265	955.0	0.82	Outcome2	-8.96	-0.5	3.74875	Yes	2.0	8.45526613816535	1.345	125.716	n/a	GetAnswer	Mixed
125.742	4.0	0.026	1188.852	62.0	3	-0.5	-4.0	23.9265	955.0	0.82	Outcome2	-8.96	-0.5	3.74875	Yes	n/a	8.45526613816535	n/a	n/a	n/a	ShowChoice	Mixed
129.754	1.0	0.012	1192.864	62.0	3	-0.5	-4.0	23.9265	955.0	0.82	Outcome2	-8.96	-0.5	3.74875	Yes	n/a	8.45526613816535	n/a	n/a	n/a	ShowResult	Mixed
130.774	5.212	0.02	1193.884	62.0	3	-0.5	-4.0	23.9265	955.0	0.82	Outcome2	-8.96	-0.5	3.74875	Yes	n/a	8.45526613816535	n/a	n/a	n/a	ISITrial	Mixed
136.006	3.749	0.02	1199.116	62.0	3	-0.5	-4.0	23.9265	955.0	0.82	Outcome2	-8.96	-0.5	3.74875	Yes	n/a	8.45526613816535	n/a	n/a	n/a	TrialHappPreview	Mixed
139.784	4.012	0.029	1202.894	62.0	3	-0.5	-4.0	23.9265	955.0	0.82	Outcome2	-8.96	-0.5	3.74875	Yes	n/a	8.45526613816535	n/a	n/a	640.0	TrialHappiness	Mixed
139.785	0.402	n/a	1203.235	62.0	3	-0.5	-4.0	23.9265	955.0	0.82	Outcome2	-8.96	-0.5	3.74875	Yes	n/a	8.45526613816535	n/a	n/a	640.0	TrialHappinessSliderResponse	Mixed
143.796	6.995	4.012	1206.906	62.0	3	-0.5	-4.0	23.9265	955.0	0.82	Outcome2	-8.96	-0.5	3.74875	Yes	n/a	8.45526613816535	n/a	n/a	n/a	ISIRate	Mixed
150.817	3.0	0.026	1213.927	63.0	3	7.1	2.0	24.814	955.0	2.22	Outcome1	7.1	-1.97	0.0	No	2.0	9.06568516421291	1.098	151.915	n/a	GetAnswer	Gain
151.937	4.0	0.022	1215.047	63.0	3	7.1	2.0	24.814	955.0	2.22	Outcome1	7.1	-1.97	0.0	No	n/a	9.06568516421291	n/a	n/a	n/a	ShowChoice	Gain
155.949	1.0	0.012	1219.059	63.0	3	7.1	2.0	24.814	955.0	2.22	Outcome1	7.1	-1.97	0.0	No	n/a	9.06568516421291	n/a	n/a	n/a	ShowResult	Gain
156.969	5.595	0.02	1220.079	63.0	3	7.1	2.0	24.814	955.0	2.22	Outcome1	7.1	-1.97	0.0	No	n/a	9.06568516421291	n/a	n/a	n/a	ISITrial	Gain
162.586	3.0	0.022	1225.696	64.0	3	6.3	1.0	25.6015	955.0	5.0	Outcome2	-3.12	6.3	0.0	No	2.0	9.422423556058892	1.368	163.954	n/a	GetAnswer	Gain
163.973	4.0	0.018	1227.083	64.0	3	6.3	1.0	25.6015	955.0	5.0	Outcome2	-3.12	6.3	0.0	No	n/a	9.422423556058892	n/a	n/a	n/a	ShowChoice	Gain
167.985	1.0	0.012	1231.095	64.0	3	6.3	1.0	25.6015	955.0	5.0	Outcome2	-3.12	6.3	0.0	No	n/a	9.422423556058892	n/a	n/a	n/a	ShowResult	Gain
169.005	5.47	0.02	1232.115	64.0	3	6.3	1.0	25.6015	955.0	5.0	Outcome2	-3.12	6.3	0.0	No	n/a	9.422423556058892	n/a	n/a	n/a	ISITrial	Gain
174.505	3.0	0.03	1237.615	65.0	3	5.3	0.0	26.264	955.0	2.48	Outcome1	5.3	-4.48	2.99675	Yes	2.0	9.77916194790487	1.218	175.723	n/a	GetAnswer	Gain
175.742	4.0	0.019	1238.852	65.0	3	5.3	0.0	26.264	955.0	2.48	Outcome1	5.3	-4.48	2.99675	Yes	n/a	9.77916194790487	n/a	n/a	n/a	ShowChoice	Gain
179.754	1.0	0.012	1242.864	65.0	3	5.3	0.0	26.264	955.0	2.48	Outcome1	5.3	-4.48	2.99675	Yes	n/a	9.77916194790487	n/a	n/a	n/a	ShowResult	Gain
180.773	3.344	0.019	1243.883	65.0	3	5.3	0.0	26.264	955.0	2.48	Outcome1	5.3	-4.48	2.99675	Yes	n/a	9.77916194790487	n/a	n/a	n/a	ISITrial	Gain
184.133	2.997	0.016	1247.243	65.0	3	5.3	0.0	26.264	955.0	2.48	Outcome1	5.3	-4.48	2.99675	Yes	n/a	9.77916194790487	n/a	n/a	n/a	TrialHappPreview	Gain
187.159	4.012	0.029	1250.269	65.0	3	5.3	0.0	26.264	955.0	2.48	Outcome1	5.3	-4.48	2.99675	Yes	n/a	9.77916194790487	n/a	n/a	704.0	TrialHappiness	Gain
187.16	1.836	n/a	1251.3	65.0	3	5.3	0.0	26.264	955.0	2.48	Outcome1	5.3	-4.48	2.99675	Yes	n/a	9.77916194790487	n/a	n/a	704.0	TrialHappinessSliderResponse	Gain
191.171	3.987	4.012	1254.281	65.0	3	5.3	0.0	26.264	955.0	2.48	Outcome1	5.3	-4.48	2.99675	Yes	n/a	9.77916194790487	n/a	n/a	n/a	ISIRate	Gain
195.183	3.0	0.025	1258.293	66.0	3	1.88	2.0	26.499	955.0	0.66	Outcome2	3.3	1.88	0.0	No	2.0	-1.41732729331823	1.166	196.349	n/a	GetAnswer	Mixed
196.37	4.0	0.021	1259.48	66.0	3	1.88	2.0	26.499	955.0	0.66	Outcome2	3.3	1.88	0.0	No	n/a	-1.41732729331823	n/a	n/a	n/a	ShowChoice	Mixed
200.382	1.0	0.012	1263.492	66.0	3	1.88	2.0	26.499	955.0	0.66	Outcome2	3.3	1.88	0.0	No	n/a	-1.41732729331823	n/a	n/a	n/a	ShowResult	Mixed
201.402	3.959	0.02	1264.512	66.0	3	1.88	2.0	26.499	955.0	0.66	Outcome2	3.3	1.88	0.0	No	n/a	-1.41732729331823	n/a	n/a	n/a	ISITrial	Mixed
205.38	3.0	0.019	1268.49	67.0	3	0.26	1.0	26.5315	955.0	1.0	Outcome2	1.7	0.26	2.9185	Yes	2.0	-1.44101547753869	1.318	206.698	n/a	GetAnswer	Mixed
206.718	4.0	0.02	1269.828	67.0	3	0.26	1.0	26.5315	955.0	1.0	Outcome2	1.7	0.26	2.9185	Yes	n/a	-1.44101547753869	n/a	n/a	n/a	ShowChoice	Mixed
210.73	1.0	0.012	1273.84	67.0	3	0.26	1.0	26.5315	955.0	1.0	Outcome2	1.7	0.26	2.9185	Yes	n/a	-1.44101547753869	n/a	n/a	n/a	ShowResult	Mixed
211.749	4.199	0.019	1274.859	67.0	3	0.26	1.0	26.5315	955.0	1.0	Outcome2	1.7	0.26	2.9185	Yes	n/a	-1.44101547753869	n/a	n/a	n/a	ISITrial	Mixed
215.962	2.918	0.014	1279.072	67.0	3	0.26	1.0	26.5315	955.0	1.0	Outcome2	1.7	0.26	2.9185	Yes	n/a	-1.44101547753869	n/a	n/a	n/a	TrialHappPreview	Mixed
218.904	4.012	0.024	1282.014	67.0	3	0.26	1.0	26.5315	955.0	1.0	Outcome2	1.7	0.26	2.9185	Yes	n/a	-1.44101547753869	n/a	n/a	672.0	TrialHappiness	Mixed
218.905	0.481	n/a	1282.477	67.0	3	0.26	1.0	26.5315	955.0	1.0	Outcome2	1.7	0.26	2.9185	Yes	n/a	-1.44101547753869	n/a	n/a	672.0	TrialHappinessSliderResponse	Mixed
222.916	3.674	4.012	1286.026	67.0	3	0.26	1.0	26.5315	955.0	1.0	Outcome2	1.7	0.26	2.9185	Yes	n/a	-1.44101547753869	n/a	n/a	n/a	ISIRate	Mixed
226.61	3.0	0.02	1289.72	68.0	3	12.9	1.37	28.144	955.0	2.0	Outcome2	2.74	12.9	0.0	No	2.0	10.1608154020385	1.146	227.756	n/a	GetAnswer	Loss
227.781	4.0	0.025	1290.891	68.0	3	12.9	1.37	28.144	955.0	2.0	Outcome2	2.74	12.9	0.0	No	n/a	10.1608154020385	n/a	n/a	n/a	ShowChoice	Loss
231.793	1.0	0.012	1294.903	68.0	3	12.9	1.37	28.144	955.0	2.0	Outcome2	2.74	12.9	0.0	No	n/a	10.1608154020385	n/a	n/a	n/a	ShowResult	Loss
232.812	2.185	0.019	1295.922	68.0	3	12.9	1.37	28.144	955.0	2.0	Outcome2	2.74	12.9	0.0	No	n/a	10.1608154020385	n/a	n/a	n/a	ISITrial	Loss
235.019	3.0	0.022	1298.129	69.0	3	-0.52	0.0	28.079	955.0	0.52	Outcome2	1.1	-0.52	0.0	No	2.0	-1.62127217818045	1.701	236.72	n/a	GetAnswer	Mixed
236.741	4.0	0.021	1299.851	69.0	3	-0.52	0.0	28.079	955.0	0.52	Outcome2	1.1	-0.52	0.0	No	n/a	-1.62127217818045	n/a	n/a	n/a	ShowChoice	Mixed
240.753	1.0	0.012	1303.863	69.0	3	-0.52	0.0	28.079	955.0	0.52	Outcome2	1.1	-0.52	0.0	No	n/a	-1.62127217818045	n/a	n/a	n/a	ShowResult	Mixed
241.772	2.0	0.019	1304.882	69.0	3	-0.52	0.0	28.079	955.0	0.52	Outcome2	1.1	-0.52	0.0	No	n/a	-1.62127217818045	n/a	n/a	n/a	ISITrial	Mixed
243.795	3.0	0.023	1306.905	70.0	3	10.25	5.12	29.3602	955.0	3.6	Outcome1	10.25	11.9	3.65125	Yes	2.0	-1.64798036995093	1.022	244.817	n/a	GetAnswer	Loss
244.832	4.0	0.015	1307.942	70.0	3	10.25	5.12	29.3602	955.0	3.6	Outcome1	10.25	11.9	3.65125	Yes	n/a	-1.64798036995093	n/a	n/a	n/a	ShowChoice	Loss
248.844	1.0	0.012	1311.954	70.0	3	10.25	5.12	29.3602	955.0	3.6	Outcome1	10.25	11.9	3.65125	Yes	n/a	-1.64798036995093	n/a	n/a	n/a	ShowResult	Loss
249.863	2.623	0.019	1312.973	70.0	3	10.25	5.12	29.3602	955.0	3.6	Outcome1	10.25	11.9	3.65125	Yes	n/a	-1.64798036995093	n/a	n/a	n/a	ISITrial	Loss
252.505	3.651	0.019	1315.615	70.0	3	10.25	5.12	29.3602	955.0	3.6	Outcome1	10.25	11.9	3.65125	Yes	n/a	-1.64798036995093	n/a	n/a	n/a	TrialHappPreview	Loss
256.182	4.012	0.026	1319.292	70.0	3	10.25	5.12	29.3602	955.0	3.6	Outcome1	10.25	11.9	3.65125	Yes	n/a	-1.64798036995093	n/a	n/a	584.0	TrialHappiness	Loss
256.183	0.997	n/a	1319.674	70.0	3	10.25	5.12	29.3602	955.0	3.6	Outcome1	10.25	11.9	3.65125	Yes	n/a	-1.64798036995093	n/a	n/a	584.0	TrialHappinessSliderResponse	Loss
260.194	6.605	4.012	1323.304	70.0	3	10.25	5.12	29.3602	955.0	3.6	Outcome1	10.25	11.9	3.65125	Yes	n/a	-1.64798036995093	n/a	n/a	n/a	ISIRate	Loss
266.831	3.0	0.032	1329.941	71.0	3	10.3	-1.16	30.6477	955.0	5.0	Outcome1	10.3	-2.32	0.0	No	2.0	12.6172140430351	0.885	267.716	n/a	GetAnswer	Gain
267.733	4.0	0.017	1330.843	71.0	3	10.3	-1.16	30.6477	955.0	5.0	Outcome1	10.3	-2.32	0.0	No	n/a	12.6172140430351	n/a	n/a	n/a	ShowChoice	Gain
271.745	1.0	0.012	1334.855	71.0	3	10.3	-1.16	30.6477	955.0	5.0	Outcome1	10.3	-2.32	0.0	No	n/a	12.6172140430351	n/a	n/a	n/a	ShowResult	Gain
272.765	5.499	0.02	1335.875	71.0	3	10.3	-1.16	30.6477	955.0	5.0	Outcome1	10.3	-2.32	0.0	No	n/a	12.6172140430351	n/a	n/a	n/a	ISITrial	Gain
278.282	3.0	0.018	1341.392	72.0	3	0.7	-6.0	30.7352	955.0	0.3	Outcome2	-12.34	0.7	3.0805	Yes	2.0	13.0373725934315	1.014	279.296	n/a	GetAnswer	Mixed
279.318	4.0	0.022	1342.428	72.0	3	0.7	-6.0	30.7352	955.0	0.3	Outcome2	-12.34	0.7	3.0805	Yes	n/a	13.0373725934315	n/a	n/a	n/a	ShowChoice	Mixed
283.33	1.0	0.012	1346.44	72.0	3	0.7	-6.0	30.7352	955.0	0.3	Outcome2	-12.34	0.7	3.0805	Yes	n/a	13.0373725934315	n/a	n/a	n/a	ShowResult	Mixed
284.35	5.672	0.02	1347.46	72.0	3	0.7	-6.0	30.7352	955.0	0.3	Outcome2	-12.34	0.7	3.0805	Yes	n/a	13.0373725934315	n/a	n/a	n/a	ISITrial	Mixed
290.033	3.08	0.011	1353.143	72.0	3	0.7	-6.0	30.7352	955.0	0.3	Outcome2	-12.34	0.7	3.0805	Yes	n/a	13.0373725934315	n/a	n/a	n/a	TrialHappPreview	Mixed
293.143	4.012	0.03	1356.253	72.0	3	0.7	-6.0	30.7352	955.0	0.3	Outcome2	-12.34	0.7	3.0805	Yes	n/a	13.0373725934315	n/a	n/a	632.0	TrialHappiness	Mixed
293.143	0.394	n/a	1356.633	72.0	3	0.7	-6.0	30.7352	955.0	0.3	Outcome2	-12.34	0.7	3.0805	Yes	n/a	13.0373725934315	n/a	n/a	632.0	TrialHappinessSliderResponse	Mixed
297.155	4.322	4.012	1360.265	72.0	3	0.7	-6.0	30.7352	955.0	0.3	Outcome2	-12.34	0.7	3.0805	Yes	n/a	13.0373725934315	n/a	n/a	n/a	ISIRate	Mixed
301.501	3.0	0.024	1364.611	73.0	3	2.0	2.0	30.9852	955.0	1.82	Certain	-3.94	8.7	0.0	No	4.0	12.6421291053228	1.162	302.663	n/a	GetAnswer	Gain
302.688	4.0	0.025	1365.798	73.0	3	2.0	2.0	30.9852	955.0	1.82	Certain	-3.94	8.7	0.0	No	n/a	12.6421291053228	n/a	n/a	n/a	ShowChoice	Gain
306.7	1.0	0.012	1369.81	73.0	3	2.0	2.0	30.9852	955.0	1.82	Certain	-3.94	8.7	0.0	No	n/a	12.6421291053228	n/a	n/a	n/a	ShowResult	Gain
307.72	4.616	0.02	1370.83	73.0	3	2.0	2.0	30.9852	955.0	1.82	Certain	-3.94	8.7	0.0	No	n/a	12.6421291053228	n/a	n/a	n/a	ISITrial	Gain
312.367	3.0	0.031	1375.477	74.0	3	2.0	2.0	31.2352	955.0	2.0	Certain	8.9	-4.11	3.05625	Yes	4.0	13.007927519818802	1.297	313.664	n/a	GetAnswer	Gain
313.687	4.0	0.023	1376.797	74.0	3	2.0	2.0	31.2352	955.0	2.0	Certain	8.9	-4.11	3.05625	Yes	n/a	13.007927519818802	n/a	n/a	n/a	ShowChoice	Gain
317.699	1.0	0.012	1380.809	74.0	3	2.0	2.0	31.2352	955.0	2.0	Certain	8.9	-4.11	3.05625	Yes	n/a	13.007927519818802	n/a	n/a	n/a	ShowResult	Gain
318.719	3.909	0.02	1381.829	74.0	3	2.0	2.0	31.2352	955.0	2.0	Certain	8.9	-4.11	3.05625	Yes	n/a	13.007927519818802	n/a	n/a	n/a	ISITrial	Gain
322.648	3.056	0.02	1385.758	74.0	3	2.0	2.0	31.2352	955.0	2.0	Certain	8.9	-4.11	3.05625	Yes	n/a	13.007927519818802	n/a	n/a	n/a	TrialHappPreview	Gain
325.723	4.012	0.019	1388.833	74.0	3	2.0	2.0	31.2352	955.0	2.0	Certain	8.9	-4.11	3.05625	Yes	2{-2}2{-2}	13.007927519818802	1.111	326.834	544.0	TrialHappiness	Gain
325.724	0.717	n/a	1389.228	74.0	3	2.0	2.0	31.2352	955.0	2.0	Certain	8.9	-4.11	3.05625	Yes	n/a	13.007927519818802	n/a	n/a	544.0	TrialHappinessSliderResponse	Gain
329.735	4.225	4.012	1392.845	74.0	3	2.0	2.0	31.2352	955.0	2.0	Certain	8.9	-4.11	3.05625	Yes	n/a	13.007927519818802	n/a	n/a	n/a	ISIRate	Gain
333.981	3.0	0.021	1397.091	75.0	3	12.7	-1.08	32.8227	955.0	1.82	Outcome1	12.7	-2.17	0.0	No	2.0	14.8686296715742	1.387	335.368	n/a	GetAnswer	Loss
335.386	4.0	0.018	1398.496	75.0	3	12.7	-1.08	32.8227	955.0	1.82	Outcome1	12.7	-2.17	0.0	No	n/a	14.8686296715742	n/a	n/a	n/a	ShowChoice	Loss
339.398	1.0	0.012	1402.508	75.0	3	12.7	-1.08	32.8227	955.0	1.82	Outcome1	12.7	-2.17	0.0	No	n/a	14.8686296715742	n/a	n/a	n/a	ShowResult	Loss
340.417	4.979	0.019	1403.527	75.0	3	12.7	-1.08	32.8227	955.0	1.82	Outcome1	12.7	-2.17	0.0	No	n/a	14.8686296715742	n/a	n/a	n/a	ISITrial	Loss
345.416	3.0	0.02	1408.526	76.0	3	6.1	-1.0	33.5852	955.0	4.2	Outcome2	-9.23	6.1	0.0	No	2.0	15.334088335220802	1.433	346.849	n/a	GetAnswer	Gain
346.87	4.0	0.021	1409.98	76.0	3	6.1	-1.0	33.5852	955.0	4.2	Outcome2	-9.23	6.1	0.0	No	n/a	15.334088335220802	n/a	n/a	n/a	ShowChoice	Gain
350.882	1.0	0.012	1413.992	76.0	3	6.1	-1.0	33.5852	955.0	4.2	Outcome2	-9.23	6.1	0.0	No	n/a	15.334088335220802	n/a	n/a	n/a	ShowResult	Gain
351.902	3.931	0.02	1415.012	76.0	3	6.1	-1.0	33.5852	955.0	4.2	Outcome2	-9.23	6.1	0.0	No	n/a	15.334088335220802	n/a	n/a	n/a	ISITrial	Gain
355.864	3.0	0.031	1418.974	77.0	3	13.7	-1.05	35.2977	955.0	3.16	Outcome1	13.7	-2.1	4.0	Yes	2.0	15.7995469988675	1.079	356.943	n/a	GetAnswer	Loss
356.967	4.0	0.024	1420.077	77.0	3	13.7	-1.05	35.2977	955.0	3.16	Outcome1	13.7	-2.1	4.0	Yes	n/a	15.7995469988675	n/a	n/a	n/a	ShowChoice	Loss
360.979	1.0	0.012	1424.089	77.0	3	13.7	-1.05	35.2977	955.0	3.16	Outcome1	13.7	-2.1	4.0	Yes	n/a	15.7995469988675	n/a	n/a	n/a	ShowResult	Loss
361.999	7.022	0.02	1425.109	77.0	3	13.7	-1.05	35.2977	955.0	3.16	Outcome1	13.7	-2.1	4.0	Yes	n/a	15.7995469988675	n/a	n/a	n/a	ISITrial	Loss
369.036	4.0	0.015	1432.146	77.0	3	13.7	-1.05	35.2977	955.0	3.16	Outcome1	13.7	-2.1	4.0	Yes	n/a	15.7995469988675	n/a	n/a	n/a	TrialHappPreview	Loss
373.065	4.012	0.029	1436.175	77.0	3	13.7	-1.05	35.2977	955.0	3.16	Outcome1	13.7	-2.1	4.0	Yes	n/a	15.7995469988675	n/a	n/a	632.0	TrialHappiness	Loss
373.066	0.386	n/a	1436.715	77.0	3	13.7	-1.05	35.2977	955.0	3.16	Outcome1	13.7	-2.1	4.0	Yes	n/a	15.7995469988675	n/a	n/a	632.0	TrialHappinessSliderResponse	Loss
377.077	8.0	4.012	1440.187	77.0	3	13.7	-1.05	35.2977	955.0	3.16	Outcome1	13.7	-2.1	4.0	Yes	n/a	15.7995469988675	n/a	n/a	n/a	ISIRate	Loss
385.101	3.0	0.024	1448.211	78.0	3	0.3	-7.0	35.3352	955.0	2.0	Outcome2	-14.47	0.3	0.0	No	2.0	14.7701019252548	0.875	385.976	n/a	GetAnswer	Mixed
386.004	4.0	0.028	1449.114	78.0	3	0.3	-7.0	35.3352	955.0	2.0	Outcome2	-14.47	0.3	0.0	No	n/a	14.7701019252548	n/a	n/a	n/a	ShowChoice	Mixed
390.016	1.0	0.012	1453.126	78.0	3	0.3	-7.0	35.3352	955.0	2.0	Outcome2	-14.47	0.3	0.0	No	n/a	14.7701019252548	n/a	n/a	n/a	ShowResult	Mixed
391.035	2.078	0.019	1454.145	78.0	3	0.3	-7.0	35.3352	955.0	2.0	Outcome2	-14.47	0.3	0.0	No	n/a	14.7701019252548	n/a	n/a	n/a	ISITrial	Mixed
393.142	3.0	0.029	1456.252	79.0	3	12.1	-1.52	36.8477	955.0	4.2	Outcome1	12.1	-3.04	2.7295	Yes	2.0	15.1359003397508	1.012	394.154	n/a	GetAnswer	Loss
394.178	4.0	0.024	1457.288	79.0	3	12.1	-1.52	36.8477	955.0	4.2	Outcome1	12.1	-3.04	2.7295	Yes	n/a	15.1359003397508	n/a	n/a	n/a	ShowChoice	Loss
398.19	1.0	0.012	1461.3	79.0	3	12.1	-1.52	36.8477	955.0	4.2	Outcome1	12.1	-3.04	2.7295	Yes	n/a	15.1359003397508	n/a	n/a	n/a	ShowResult	Loss
399.21	3.829	0.02	1462.32	79.0	3	12.1	-1.52	36.8477	955.0	4.2	Outcome1	12.1	-3.04	2.7295	Yes	n/a	15.1359003397508	n/a	n/a	n/a	ISITrial	Loss
403.055	2.73	0.016	1466.165	79.0	3	12.1	-1.52	36.8477	955.0	4.2	Outcome1	12.1	-3.04	2.7295	Yes	n/a	15.1359003397508	n/a	n/a	n/a	TrialHappPreview	Loss
405.813	4.012	0.028	1468.923	79.0	3	12.1	-1.52	36.8477	955.0	4.2	Outcome1	12.1	-3.04	2.7295	Yes	n/a	15.1359003397508	n/a	n/a	632.0	TrialHappiness	Loss
405.814	1.465	n/a	1469.405	79.0	3	12.1	-1.52	36.8477	955.0	4.2	Outcome1	12.1	-3.04	2.7295	Yes	n/a	15.1359003397508	n/a	n/a	632.0	TrialHappinessSliderResponse	Loss
409.825	2.918	4.012	1472.935	79.0	3	12.1	-1.52	36.8477	955.0	4.2	Outcome1	12.1	-3.04	2.7295	Yes	n/a	15.1359003397508	n/a	n/a	n/a	ISIRate	Loss
412.767	3.0	0.024	1475.877	80.0	3	11.75	5.88	38.3165	955.0	3.6	Outcome2	13.9	11.75	0.0	No	2.0	-2.14533786334466	1.058	413.825	n/a	GetAnswer	Loss
413.837	4.0	0.012	1476.947	80.0	3	11.75	5.88	38.3165	955.0	3.6	Outcome2	13.9	11.75	0.0	No	n/a	-2.14533786334466	n/a	n/a	n/a	ShowChoice	Loss
417.849	1.0	0.012	1480.959	80.0	3	11.75	5.88	38.3165	955.0	3.6	Outcome2	13.9	11.75	0.0	No	n/a	-2.14533786334466	n/a	n/a	n/a	ShowResult	Loss
418.869	3.336	0.02	1481.979	80.0	3	11.75	5.88	38.3165	955.0	3.6	Outcome2	13.9	11.75	0.0	No	n/a	-2.14533786334466	n/a	n/a	n/a	ISITrial	Loss
422.229	3.0	0.024	1485.339	81.0	3	8.1	0.0	39.329	955.0	4.2	Outcome1	8.1	-7.77	3.92375	Yes	2.0	15.8674971687429	1.296	423.525	n/a	GetAnswer	Gain
423.549	4.0	0.024	1486.659	81.0	3	8.1	0.0	39.329	955.0	4.2	Outcome1	8.1	-7.77	3.92375	Yes	n/a	15.8674971687429	n/a	n/a	n/a	ShowChoice	Gain
427.561	1.0	0.012	1490.671	81.0	3	8.1	0.0	39.329	955.0	4.2	Outcome1	8.1	-7.77	3.92375	Yes	n/a	15.8674971687429	n/a	n/a	n/a	ShowResult	Gain
428.581	3.919	0.02	1491.691	81.0	3	8.1	0.0	39.329	955.0	4.2	Outcome1	8.1	-7.77	3.92375	Yes	n/a	15.8674971687429	n/a	n/a	n/a	ISITrial	Gain
432.526	3.924	0.026	1495.636	81.0	3	8.1	0.0	39.329	955.0	4.2	Outcome1	8.1	-7.77	3.92375	Yes	n/a	15.8674971687429	n/a	n/a	n/a	TrialHappPreview	Gain
436.471	4.012	0.021	1499.581	81.0	3	8.1	0.0	39.329	955.0	4.2	Outcome1	8.1	-7.77	3.92375	Yes	n/a	15.8674971687429	n/a	n/a	764.0	TrialHappiness	Gain
436.472	3.555	n/a	1499.865	81.0	3	8.1	0.0	39.329	955.0	4.2	Outcome1	8.1	-7.77	3.92375	Yes	n/a	15.8674971687429	n/a	n/a	764.0	TrialHappinessSliderResponse	Gain
440.483	7.695	4.012	1503.593	81.0	3	8.1	0.0	39.329	955.0	4.2	Outcome1	8.1	-7.77	3.92375	Yes	n/a	15.8674971687429	n/a	n/a	n/a	ISIRate	Gain
448.206	3.0	0.028	1511.316	n/a	3	n/a	n/a	n/a	n/a	n/a	n/a	n/a	n/a	n/a	n/a	n/a	n/a	n/a	n/a	n/a	CurrentEarnings	n/a
451.232	-0.001	0.026	1514.342	n/a	3	n/a	n/a	n/a	n/a	n/a	n/a	n/a	n/a	n/a	n/a	{SPACE}	n/a	9.729	460.961	n/a	Goodbye	n/a
