onset	duration	onset_delay	onset_unadjusted	trial_number	block	amount_change	certain_amount	current_amount	mood_target	multiplier	outcome	outcome1_amount	outcome2_amount	question_duration	rating	response	rpe	rt	rt_time	slider_response	trial_phase	trial_type
-26.579	-0.001	0.02	11.345	n/a	0	n/a	n/a	n/a	n/a	n/a	n/a	n/a	n/a	n/a	n/a	{SPACE}	n/a	2.493	-24.086	n/a	Welcome	n/a
-24.072	5.0	0.014	13.852	n/a	0	n/a	n/a	n/a	n/a	n/a	n/a	n/a	n/a	n/a	n/a	n/a	n/a	n/a	n/a	n/a	LifeHappyPreview	n/a
-18.99	1.429	0.082	18.934	n/a	0	n/a	n/a	n/a	n/a	n/a	n/a	n/a	n/a	n/a	n/a	n/a	n/a	n/a	n/a	880.0	LifeHappiness	n/a
-18.989	0.906	n/a	19.458	n/a	0	n/a	n/a	n/a	n/a	n/a	n/a	n/a	n/a	n/a	n/a	n/a	n/a	n/a	n/a	880.0	LifeHappinessSliderResponse	n/a
-12.353	4.0	0.028	25.571	n/a	0	n/a	n/a	n/a	n/a	n/a	n/a	n/a	n/a	n/a	n/a	n/a	n/a	n/a	n/a	n/a	BlockHappyPreview	n/a
-8.341	3.568	0.012	29.583	n/a	0	n/a	n/a	n/a	n/a	n/a	n/a	n/a	n/a	n/a	n/a	n/a	n/a	n/a	n/a	872.0	BlockStartHappiness	n/a
-8.341	2.43	n/a	30.721	n/a	0	n/a	n/a	n/a	n/a	n/a	n/a	n/a	n/a	n/a	n/a	n/a	n/a	n/a	n/a	872.0	BlockStartHappinessSliderResponse	n/a
-1.17	-0.001	0.02	36.754	n/a	0	n/a	n/a	n/a	n/a	n/a	n/a	n/a	n/a	n/a	n/a	5.0	n/a	1.156	-0.014	n/a	ScanWait	n/a
0.0	10.0	0.014	37.924	n/a	1	n/a	n/a	n/a	n/a	n/a	n/a	n/a	n/a	n/a	n/a	n/a	n/a	n/a	n/a	n/a	GetReady	n/a
10.03	3.0	0.03	47.954	1.0	1	4.5	1.54	10.5625	955.0	1.68	Outcome1	4.5	3.09	0.0	No	2.0	1.40996602491506	0.965	10.995	n/a	GetAnswer	Gain
11.017	4.0	0.022	48.941	1.0	1	4.5	1.54	10.5625	955.0	1.68	Outcome1	4.5	3.09	0.0	No	n/a	1.40996602491506	n/a	n/a	n/a	ShowChoice	Gain
15.045	1.0	0.028	52.969	1.0	1	4.5	1.54	10.5625	955.0	1.68	Outcome1	4.5	3.09	0.0	No	n/a	1.40996602491506	n/a	n/a	n/a	ShowResult	Gain
16.065	2.431	0.02	53.989	1.0	1	4.5	1.54	10.5625	955.0	1.68	Outcome1	4.5	3.09	0.0	No	n/a	1.40996602491506	n/a	n/a	n/a	ISITrial	Gain
18.522	3.0	0.026	56.446	2.0	1	-1.84	-1.0	10.3325	955.0	0.2	Outcome1	-1.84	-1.5	0.0	No	2.0	-0.3446583616459039	1.43	19.952	n/a	GetAnswer	Mixed
19.977	4.0	0.025	57.901	2.0	1	-1.84	-1.0	10.3325	955.0	0.2	Outcome1	-1.84	-1.5	0.0	No	n/a	-0.3446583616459039	n/a	n/a	n/a	ShowChoice	Mixed
24.006	1.0	0.029	61.93	2.0	1	-1.84	-1.0	10.3325	955.0	0.2	Outcome1	-1.84	-1.5	0.0	No	n/a	-0.3446583616459039	n/a	n/a	n/a	ShowResult	Mixed
25.025	4.568	0.019	62.949	2.0	1	-1.84	-1.0	10.3325	955.0	0.2	Outcome1	-1.84	-1.5	0.0	No	n/a	-0.3446583616459039	n/a	n/a	n/a	ISITrial	Mixed
29.622	3.0	0.029	67.546	3.0	1	4.9	1.65	10.945	955.0	2.0	Outcome2	3.3	4.9	2.868	Yes	2.0	1.59796149490374	1.515	31.137	n/a	GetAnswer	Gain
31.16	4.0	0.023	69.084	3.0	1	4.9	1.65	10.945	955.0	2.0	Outcome2	3.3	4.9	2.868	Yes	n/a	1.59796149490374	n/a	n/a	n/a	ShowChoice	Gain
35.172	1.0	0.012	73.096	3.0	1	4.9	1.65	10.945	955.0	2.0	Outcome2	3.3	4.9	2.868	Yes	n/a	1.59796149490374	n/a	n/a	n/a	ShowResult	Gain
36.192	3.243	0.02	74.116	3.0	1	4.9	1.65	10.945	955.0	2.0	Outcome2	3.3	4.9	2.868	Yes	n/a	1.59796149490374	n/a	n/a	n/a	ISITrial	Gain
39.452	2.868	0.017	77.376	3.0	1	4.9	1.65	10.945	955.0	2.0	Outcome2	3.3	4.9	2.868	Yes	n/a	1.59796149490374	n/a	n/a	n/a	TrialHappPreview	Gain
42.344	4.012	0.024	80.268	3.0	1	4.9	1.65	10.945	955.0	2.0	Outcome2	3.3	4.9	2.868	Yes	n/a	1.59796149490374	n/a	n/a	728.0	TrialHappiness	Gain
42.344	1.803	n/a	80.762	3.0	1	4.9	1.65	10.945	955.0	2.0	Outcome2	3.3	4.9	2.868	Yes	n/a	1.59796149490374	n/a	n/a	728.0	TrialHappinessSliderResponse	Gain
46.356	3.472	4.012	84.28	3.0	1	4.9	1.65	10.945	955.0	2.0	Outcome2	3.3	4.9	2.868	Yes	n/a	1.59796149490374	n/a	n/a	n/a	ISIRate	Gain
49.85	3.0	0.022	87.774	4.0	1	12.5	4.18	12.5075	955.0	1.68	Outcome2	8.36	12.5	0.0	No	2.0	4.13816534541336	0.571	50.421	n/a	GetAnswer	Loss
50.435	4.0	0.014	88.359	4.0	1	12.5	4.18	12.5075	955.0	1.68	Outcome2	8.36	12.5	0.0	No	n/a	4.13816534541336	n/a	n/a	n/a	ShowChoice	Loss
54.447	1.0	0.012	92.371	4.0	1	12.5	4.18	12.5075	955.0	1.68	Outcome2	8.36	12.5	0.0	No	n/a	4.13816534541336	n/a	n/a	n/a	ShowResult	Loss
55.466	2.011	0.019	93.39	4.0	1	12.5	4.18	12.5075	955.0	1.68	Outcome2	8.36	12.5	0.0	No	n/a	4.13816534541336	n/a	n/a	n/a	ISITrial	Loss
57.506	3.0	0.029	95.43	5.0	1	-2.27	-2.0	12.2237	955.0	0.3	Outcome1	-2.27	-1.3	2.5825	Yes	2.0	-0.966119290298226	1.928	59.434	n/a	GetAnswer	Mixed
59.445	4.0	0.011	97.369	5.0	1	-2.27	-2.0	12.2237	955.0	0.3	Outcome1	-2.27	-1.3	2.5825	Yes	n/a	-0.966119290298226	n/a	n/a	n/a	ShowChoice	Mixed
63.457	1.0	0.012	101.381	5.0	1	-2.27	-2.0	12.2237	955.0	0.3	Outcome1	-2.27	-1.3	2.5825	Yes	n/a	-0.966119290298226	n/a	n/a	n/a	ShowResult	Mixed
64.477	5.129	0.02	102.401	5.0	1	-2.27	-2.0	12.2237	955.0	0.3	Outcome1	-2.27	-1.3	2.5825	Yes	n/a	-0.966119290298226	n/a	n/a	n/a	ISITrial	Mixed
69.625	2.582	0.019	107.549	5.0	1	-2.27	-2.0	12.2237	955.0	0.3	Outcome1	-2.27	-1.3	2.5825	Yes	n/a	-0.966119290298226	n/a	n/a	n/a	TrialHappPreview	Mixed
72.233	4.012	0.026	110.157	5.0	1	-2.27	-2.0	12.2237	955.0	0.3	Outcome1	-2.27	-1.3	2.5825	Yes	n/a	-0.966119290298226	n/a	n/a	776.0	TrialHappiness	Mixed
72.234	1.817	n/a	110.539	5.0	1	-2.27	-2.0	12.2237	955.0	0.3	Outcome1	-2.27	-1.3	2.5825	Yes	n/a	-0.966119290298226	n/a	n/a	776.0	TrialHappinessSliderResponse	Mixed
76.245	2.33	4.012	114.169	5.0	1	-2.27	-2.0	12.2237	955.0	0.3	Outcome1	-2.27	-1.3	2.5825	Yes	n/a	-0.966119290298226	n/a	n/a	n/a	ISIRate	Mixed
78.602	3.0	0.027	116.526	6.0	1	2.11	2.0	12.4875	955.0	0.4	Outcome1	2.11	2.9	0.0	No	2.0	-0.7927519818799549	0.947	79.549	n/a	GetAnswer	Mixed
79.572	4.0	0.023	117.496	6.0	1	2.11	2.0	12.4875	955.0	0.4	Outcome1	2.11	2.9	0.0	No	n/a	-0.7927519818799549	n/a	n/a	n/a	ShowChoice	Mixed
83.584	1.0	0.012	121.508	6.0	1	2.11	2.0	12.4875	955.0	0.4	Outcome1	2.11	2.9	0.0	No	n/a	-0.7927519818799549	n/a	n/a	n/a	ShowResult	Mixed
84.604	6.232	0.02	122.528	6.0	1	2.11	2.0	12.4875	955.0	0.4	Outcome1	2.11	2.9	0.0	No	n/a	-0.7927519818799549	n/a	n/a	n/a	ISITrial	Mixed
90.856	3.0	0.02	128.78	7.0	1	-0.5	-2.0	12.425	955.0	0.82	Outcome2	-4.54	-0.5	0.0	No	2.0	4.039637599094	1.337	92.193	n/a	GetAnswer	Mixed
92.21	4.0	0.017	130.134	7.0	1	-0.5	-2.0	12.425	955.0	0.82	Outcome2	-4.54	-0.5	0.0	No	n/a	4.039637599094	n/a	n/a	n/a	ShowChoice	Mixed
96.222	1.0	0.012	134.146	7.0	1	-0.5	-2.0	12.425	955.0	0.82	Outcome2	-4.54	-0.5	0.0	No	n/a	4.039637599094	n/a	n/a	n/a	ShowResult	Mixed
97.241	2.305	0.019	135.165	7.0	1	-0.5	-2.0	12.425	955.0	0.82	Outcome2	-4.54	-0.5	0.0	No	n/a	4.039637599094	n/a	n/a	n/a	ISITrial	Mixed
99.565	3.0	0.019	137.489	8.0	1	5.3	0.53	13.0875	955.0	2.48	Outcome1	5.3	1.06	3.1125	Yes	2.0	4.24235560588901	1.216	100.781	n/a	GetAnswer	Gain
100.802	4.0	0.021	138.726	8.0	1	5.3	0.53	13.0875	955.0	2.48	Outcome1	5.3	1.06	3.1125	Yes	n/a	4.24235560588901	n/a	n/a	n/a	ShowChoice	Gain
104.814	1.0	0.012	142.738	8.0	1	5.3	0.53	13.0875	955.0	2.48	Outcome1	5.3	1.06	3.1125	Yes	n/a	4.24235560588901	n/a	n/a	n/a	ShowResult	Gain
105.834	3.506	0.02	143.758	8.0	1	5.3	0.53	13.0875	955.0	2.48	Outcome1	5.3	1.06	3.1125	Yes	n/a	4.24235560588901	n/a	n/a	n/a	ISITrial	Gain
109.361	3.112	0.021	147.285	8.0	1	5.3	0.53	13.0875	955.0	2.48	Outcome1	5.3	1.06	3.1125	Yes	n/a	4.24235560588901	n/a	n/a	n/a	TrialHappPreview	Gain
112.504	4.012	0.031	150.428	8.0	1	5.3	0.53	13.0875	955.0	2.48	Outcome1	5.3	1.06	3.1125	Yes	n/a	4.24235560588901	n/a	n/a	792.0	TrialHappiness	Gain
112.504	1.792	n/a	150.916	8.0	1	5.3	0.53	13.0875	955.0	2.48	Outcome1	5.3	1.06	3.1125	Yes	n/a	4.24235560588901	n/a	n/a	792.0	TrialHappinessSliderResponse	Gain
116.516	4.45	4.012	154.44	8.0	1	5.3	0.53	13.0875	955.0	2.48	Outcome1	5.3	1.06	3.1125	Yes	n/a	4.24235560588901	n/a	n/a	n/a	ISIRate	Gain
120.996	3.0	0.03	158.92	9.0	1	8.3	2.06	14.125	955.0	5.0	Outcome1	8.3	4.13	0.0	No	2.0	4.17327293318233	0.891	121.887	n/a	GetAnswer	Gain
121.899	4.0	0.011	159.823	9.0	1	8.3	2.06	14.125	955.0	5.0	Outcome1	8.3	4.13	0.0	No	n/a	4.17327293318233	n/a	n/a	n/a	ShowChoice	Gain
125.911	1.0	0.012	163.835	9.0	1	8.3	2.06	14.125	955.0	5.0	Outcome1	8.3	4.13	0.0	No	n/a	4.17327293318233	n/a	n/a	n/a	ShowResult	Gain
126.93	2.0	0.019	164.854	9.0	1	8.3	2.06	14.125	955.0	5.0	Outcome1	8.3	4.13	0.0	No	n/a	4.17327293318233	n/a	n/a	n/a	ISITrial	Gain
128.953	3.0	0.023	166.877	10.0	1	13.9	4.77	15.8625	955.0	3.6	Outcome1	13.9	9.54	4.0	Yes	2.0	4.35787089467724	1.202	130.155	n/a	GetAnswer	Loss
130.173	4.0	0.018	168.097	10.0	1	13.9	4.77	15.8625	955.0	3.6	Outcome1	13.9	9.54	4.0	Yes	n/a	4.35787089467724	n/a	n/a	n/a	ShowChoice	Loss
134.185	1.0	0.012	172.109	10.0	1	13.9	4.77	15.8625	955.0	3.6	Outcome1	13.9	9.54	4.0	Yes	n/a	4.35787089467724	n/a	n/a	n/a	ShowResult	Loss
135.205	2.0	0.02	173.129	10.0	1	13.9	4.77	15.8625	955.0	3.6	Outcome1	13.9	9.54	4.0	Yes	n/a	4.35787089467724	n/a	n/a	n/a	ISITrial	Loss
137.228	4.0	0.023	175.152	10.0	1	13.9	4.77	15.8625	955.0	3.6	Outcome1	13.9	9.54	4.0	Yes	n/a	4.35787089467724	n/a	n/a	n/a	TrialHappPreview	Loss
141.257	4.012	0.029	179.181	10.0	1	13.9	4.77	15.8625	955.0	3.6	Outcome1	13.9	9.54	4.0	Yes	n/a	4.35787089467724	n/a	n/a	808.0	TrialHappiness	Loss
141.257	0.763	n/a	179.794	10.0	1	13.9	4.77	15.8625	955.0	3.6	Outcome1	13.9	9.54	4.0	Yes	n/a	4.35787089467724	n/a	n/a	808.0	TrialHappinessSliderResponse	Loss
145.269	8.0	4.012	183.193	10.0	1	13.9	4.77	15.8625	955.0	3.6	Outcome1	13.9	9.54	4.0	Yes	n/a	4.35787089467724	n/a	n/a	n/a	ISIRate	Loss
153.293	3.0	0.024	191.217	11.0	1	13.5	4.62	17.55	955.0	2.8	Outcome2	9.23	13.5	0.0	No	2.0	4.27066817667044	0.852	154.145	n/a	GetAnswer	Loss
154.162	4.0	0.017	192.086	11.0	1	13.5	4.62	17.55	955.0	2.8	Outcome2	9.23	13.5	0.0	No	n/a	4.27066817667044	n/a	n/a	n/a	ShowChoice	Loss
158.174	1.0	0.012	196.098	11.0	1	13.5	4.62	17.55	955.0	2.8	Outcome2	9.23	13.5	0.0	No	n/a	4.27066817667044	n/a	n/a	n/a	ShowResult	Loss
159.194	3.324	0.02	197.118	11.0	1	13.5	4.62	17.55	955.0	2.8	Outcome2	9.23	13.5	0.0	No	n/a	4.27066817667044	n/a	n/a	n/a	ISITrial	Loss
162.537	3.0	0.019	200.461	12.0	1	5.7	0.63	18.2625	955.0	3.16	Outcome1	5.7	1.26	2.61875	Yes	2.0	4.43714609286523	0.913	163.45	n/a	GetAnswer	Gain
163.473	4.0	0.023	201.397	12.0	1	5.7	0.63	18.2625	955.0	3.16	Outcome1	5.7	1.26	2.61875	Yes	n/a	4.43714609286523	n/a	n/a	n/a	ShowChoice	Gain
167.485	1.0	0.012	205.409	12.0	1	5.7	0.63	18.2625	955.0	3.16	Outcome1	5.7	1.26	2.61875	Yes	n/a	4.43714609286523	n/a	n/a	n/a	ShowResult	Gain
168.505	6.642	0.02	206.429	12.0	1	5.7	0.63	18.2625	955.0	3.16	Outcome1	5.7	1.26	2.61875	Yes	n/a	4.43714609286523	n/a	n/a	n/a	ISITrial	Gain
175.158	2.619	0.011	213.082	12.0	1	5.7	0.63	18.2625	955.0	3.16	Outcome1	5.7	1.26	2.61875	Yes	n/a	4.43714609286523	n/a	n/a	n/a	TrialHappPreview	Gain
177.799	4.012	0.022	215.723	12.0	1	5.7	0.63	18.2625	955.0	3.16	Outcome1	5.7	1.26	2.61875	Yes	n/a	4.43714609286523	n/a	n/a	824.0	TrialHappiness	Gain
177.8	2.407	n/a	216.149	12.0	1	5.7	0.63	18.2625	955.0	3.16	Outcome1	5.7	1.26	2.61875	Yes	n/a	4.43714609286523	n/a	n/a	824.0	TrialHappinessSliderResponse	Gain
181.811	2.475	4.012	219.735	12.0	1	5.7	0.63	18.2625	955.0	3.16	Outcome1	5.7	1.26	2.61875	Yes	n/a	4.43714609286523	n/a	n/a	n/a	ISIRate	Gain
184.302	3.0	0.016	222.226	13.0	1	3.7	1.0	18.725	955.0	1.0	Outcome1	3.7	-0.63	0.0	No	2.0	4.33182332955832	1.094	185.396	n/a	GetAnswer	Mixed
185.422	4.0	0.026	223.346	13.0	1	3.7	1.0	18.725	955.0	1.0	Outcome1	3.7	-0.63	0.0	No	n/a	4.33182332955832	n/a	n/a	n/a	ShowChoice	Mixed
189.434	1.0	0.012	227.358	13.0	1	3.7	1.0	18.725	955.0	1.0	Outcome1	3.7	-0.63	0.0	No	n/a	4.33182332955832	n/a	n/a	n/a	ShowResult	Mixed
190.454	3.48	0.02	228.378	13.0	1	3.7	1.0	18.725	955.0	1.0	Outcome1	3.7	-0.63	0.0	No	n/a	4.33182332955832	n/a	n/a	n/a	ISITrial	Mixed
193.964	3.0	0.03	231.888	14.0	1	8.58	4.29	19.7975	955.0	2.48	Outcome2	9.3	8.58	0.0	No	2.0	-0.7195167987919971	1.796	195.76	n/a	GetAnswer	Gain
195.786	4.0	0.026	233.71	14.0	1	8.58	4.29	19.7975	955.0	2.48	Outcome2	9.3	8.58	0.0	No	n/a	-0.7195167987919971	n/a	n/a	n/a	ShowChoice	Gain
199.798	1.0	0.012	237.722	14.0	1	8.58	4.29	19.7975	955.0	2.48	Outcome2	9.3	8.58	0.0	No	n/a	-0.7195167987919971	n/a	n/a	n/a	ShowResult	Gain
200.818	5.019	0.02	238.742	14.0	1	8.58	4.29	19.7975	955.0	2.48	Outcome2	9.3	8.58	0.0	No	n/a	-0.7195167987919971	n/a	n/a	n/a	ISITrial	Gain
205.867	3.0	0.03	243.791	15.0	1	10.3	2.84	21.085	955.0	5.0	Outcome1	10.3	5.67	3.3485	Yes	2.0	4.62853907134768	0.961	206.828	n/a	GetAnswer	Gain
206.853	4.0	0.025	244.777	15.0	1	10.3	2.84	21.085	955.0	5.0	Outcome1	10.3	5.67	3.3485	Yes	n/a	4.62853907134768	n/a	n/a	n/a	ShowChoice	Gain
210.865	1.0	0.012	248.789	15.0	1	10.3	2.84	21.085	955.0	5.0	Outcome1	10.3	5.67	3.3485	Yes	n/a	4.62853907134768	n/a	n/a	n/a	ShowResult	Gain
211.885	7.614	0.02	249.809	15.0	1	10.3	2.84	21.085	955.0	5.0	Outcome1	10.3	5.67	3.3485	Yes	n/a	4.62853907134768	n/a	n/a	n/a	ISITrial	Gain
219.524	3.348	0.025	257.448	15.0	1	10.3	2.84	21.085	955.0	5.0	Outcome1	10.3	5.67	3.3485	Yes	n/a	4.62853907134768	n/a	n/a	n/a	TrialHappPreview	Gain
222.901	4.012	0.029	260.825	15.0	1	10.3	2.84	21.085	955.0	5.0	Outcome1	10.3	5.67	3.3485	Yes	2{-2}2{-2}2{-2}2{-2}2{-2}2{-2}2{-2}	4.62853907134768	2.685	225.586	804.0	TrialHappiness	Gain
222.901	2.233	n/a	261.277	15.0	1	10.3	2.84	21.085	955.0	5.0	Outcome1	10.3	5.67	3.3485	Yes	n/a	4.62853907134768	n/a	n/a	804.0	TrialHappinessSliderResponse	Gain
226.913	5.394	4.012	264.837	15.0	1	10.3	2.84	21.085	955.0	5.0	Outcome1	10.3	5.67	3.3485	Yes	n/a	4.62853907134768	n/a	n/a	n/a	ISIRate	Gain
232.329	3.0	0.022	270.253	16.0	1	10.27	5.14	22.3688	955.0	2.22	Outcome1	10.27	11.1	0.0	No	2.0	-0.8254058135145341	1.237	233.566	n/a	GetAnswer	Loss
233.583	4.0	0.017	271.507	16.0	1	10.27	5.14	22.3688	955.0	2.22	Outcome1	10.27	11.1	0.0	No	n/a	-0.8254058135145341	n/a	n/a	n/a	ShowChoice	Loss
237.595	1.0	0.012	275.519	16.0	1	10.27	5.14	22.3688	955.0	2.22	Outcome1	10.27	11.1	0.0	No	n/a	-0.8254058135145341	n/a	n/a	n/a	ShowResult	Loss
238.615	3.008	0.02	276.539	16.0	1	10.27	5.14	22.3688	955.0	2.22	Outcome1	10.27	11.1	0.0	No	n/a	-0.8254058135145341	n/a	n/a	n/a	ISITrial	Loss
241.64	3.0	0.017	279.564	17.0	1	2.1	0.0	22.6313	955.0	1.5	Outcome1	2.1	-3.19	3.0415	Yes	2.0	5.2876557191393	1.813	243.453	n/a	GetAnswer	Mixed
243.479	4.0	0.026	281.403	17.0	1	2.1	0.0	22.6313	955.0	1.5	Outcome1	2.1	-3.19	3.0415	Yes	n/a	5.2876557191393	n/a	n/a	n/a	ShowChoice	Mixed
247.491	1.0	0.012	285.415	17.0	1	2.1	0.0	22.6313	955.0	1.5	Outcome1	2.1	-3.19	3.0415	Yes	n/a	5.2876557191393	n/a	n/a	n/a	ShowResult	Mixed
248.511	3.566	0.02	286.435	17.0	1	2.1	0.0	22.6313	955.0	1.5	Outcome1	2.1	-3.19	3.0415	Yes	n/a	5.2876557191393	n/a	n/a	n/a	ISITrial	Mixed
252.088	3.042	0.011	290.012	17.0	1	2.1	0.0	22.6313	955.0	1.5	Outcome1	2.1	-3.19	3.0415	Yes	n/a	5.2876557191393	n/a	n/a	n/a	TrialHappPreview	Mixed
255.147	4.012	0.017	293.071	17.0	1	2.1	0.0	22.6313	955.0	1.5	Outcome1	2.1	-3.19	3.0415	Yes	n/a	5.2876557191393	n/a	n/a	744.0	TrialHappiness	Mixed
255.148	1.119	n/a	293.382	17.0	1	2.1	0.0	22.6313	955.0	1.5	Outcome1	2.1	-3.19	3.0415	Yes	n/a	5.2876557191393	n/a	n/a	744.0	TrialHappinessSliderResponse	Mixed
259.159	4.166	4.012	297.083	17.0	1	2.1	0.0	22.6313	955.0	1.5	Outcome1	2.1	-3.19	3.0415	Yes	n/a	5.2876557191393	n/a	n/a	n/a	ISIRate	Mixed
263.355	3.0	0.03	301.279	18.0	1	13.7	3.61	24.3438	955.0	3.16	Outcome2	7.22	13.7	0.0	No	2.0	6.47791619479049	1.497	264.852	n/a	GetAnswer	Loss
264.877	4.0	0.025	302.801	18.0	1	13.7	3.61	24.3438	955.0	3.16	Outcome2	7.22	13.7	0.0	No	n/a	6.47791619479049	n/a	n/a	n/a	ShowChoice	Loss
268.889	1.0	0.012	306.813	18.0	1	13.7	3.61	24.3438	955.0	3.16	Outcome2	7.22	13.7	0.0	No	n/a	6.47791619479049	n/a	n/a	n/a	ShowResult	Loss
269.908	6.787	0.019	307.832	18.0	1	13.7	3.61	24.3438	955.0	3.16	Outcome2	7.22	13.7	0.0	No	n/a	6.47791619479049	n/a	n/a	n/a	ISITrial	Loss
276.712	3.0	0.017	314.636	19.0	1	1.7	-1.0	24.5563	955.0	1.0	Outcome2	-5.02	1.7	0.0	No	2.0	6.7168742921857305	1.299	278.011	n/a	GetAnswer	Mixed
278.033	4.0	0.022	315.957	19.0	1	1.7	-1.0	24.5563	955.0	1.0	Outcome2	-5.02	1.7	0.0	No	n/a	6.7168742921857305	n/a	n/a	n/a	ShowChoice	Mixed
282.045	1.0	0.012	319.969	19.0	1	1.7	-1.0	24.5563	955.0	1.0	Outcome2	-5.02	1.7	0.0	No	n/a	6.7168742921857305	n/a	n/a	n/a	ShowResult	Mixed
283.064	2.0	0.019	320.988	19.0	1	1.7	-1.0	24.5563	955.0	1.0	Outcome2	-5.02	1.7	0.0	No	n/a	6.7168742921857305	n/a	n/a	n/a	ISITrial	Mixed
285.087	3.0	0.023	323.011	20.0	1	-0.7	-4.0	24.4688	955.0	0.66	Outcome1	-0.7	-7.66	2.92125	Yes	2.0	6.95583238958097	2.184	287.271	n/a	GetAnswer	Mixed
287.294	4.0	0.023	325.218	20.0	1	-0.7	-4.0	24.4688	955.0	0.66	Outcome1	-0.7	-7.66	2.92125	Yes	n/a	6.95583238958097	n/a	n/a	n/a	ShowChoice	Mixed
291.306	1.0	0.012	329.23	20.0	1	-0.7	-4.0	24.4688	955.0	0.66	Outcome1	-0.7	-7.66	2.92125	Yes	n/a	6.95583238958097	n/a	n/a	n/a	ShowResult	Mixed
292.325	8.0	0.019	330.249	20.0	1	-0.7	-4.0	24.4688	955.0	0.66	Outcome1	-0.7	-7.66	2.92125	Yes	n/a	6.95583238958097	n/a	n/a	n/a	ISITrial	Mixed
300.349	2.921	0.024	338.273	20.0	1	-0.7	-4.0	24.4688	955.0	0.66	Outcome1	-0.7	-7.66	2.92125	Yes	n/a	6.95583238958097	n/a	n/a	n/a	TrialHappPreview	Mixed
303.292	4.012	0.022	341.216	20.0	1	-0.7	-4.0	24.4688	955.0	0.66	Outcome1	-0.7	-7.66	2.92125	Yes	n/a	6.95583238958097	n/a	n/a	736.0	TrialHappiness	Mixed
303.292	0.609	n/a	341.732	20.0	1	-0.7	-4.0	24.4688	955.0	0.66	Outcome1	-0.7	-7.66	2.92125	Yes	n/a	6.95583238958097	n/a	n/a	736.0	TrialHappinessSliderResponse	Mixed
307.304	3.685	4.012	345.228	20.0	1	-0.7	-4.0	24.4688	955.0	0.66	Outcome1	-0.7	-7.66	2.92125	Yes	n/a	6.95583238958097	n/a	n/a	n/a	ISIRate	Mixed
311.015	3.0	0.026	348.939	21.0	1	-0.09	0.0	24.4575	955.0	0.52	Outcome1	-0.09	1.1	0.0	No	2.0	-1.18959984899962	1.54	312.555	n/a	GetAnswer	Mixed
312.569	4.0	0.014	350.493	21.0	1	-0.09	0.0	24.4575	955.0	0.52	Outcome1	-0.09	1.1	0.0	No	n/a	-1.18959984899962	n/a	n/a	n/a	ShowChoice	Mixed
316.581	1.0	0.012	354.505	21.0	1	-0.09	0.0	24.4575	955.0	0.52	Outcome1	-0.09	1.1	0.0	No	n/a	-1.18959984899962	n/a	n/a	n/a	ShowResult	Mixed
317.601	3.555	0.02	355.525	21.0	1	-0.09	0.0	24.4575	955.0	0.52	Outcome1	-0.09	1.1	0.0	No	n/a	-1.18959984899962	n/a	n/a	n/a	ISITrial	Mixed
321.178	3.0	0.022	359.102	22.0	1	0.9	-3.0	24.57	955.0	0.4	Outcome2	-6.68	0.9	3.2195	Yes	2.0	7.57870894677237	1.852	323.03	n/a	GetAnswer	Mixed
323.051	4.0	0.02	360.975	22.0	1	0.9	-3.0	24.57	955.0	0.4	Outcome2	-6.68	0.9	3.2195	Yes	n/a	7.57870894677237	n/a	n/a	n/a	ShowChoice	Mixed
327.063	1.0	0.012	364.987	22.0	1	0.9	-3.0	24.57	955.0	0.4	Outcome2	-6.68	0.9	3.2195	Yes	n/a	7.57870894677237	n/a	n/a	n/a	ShowResult	Mixed
328.082	6.793	0.019	366.006	22.0	1	0.9	-3.0	24.57	955.0	0.4	Outcome2	-6.68	0.9	3.2195	Yes	n/a	7.57870894677237	n/a	n/a	n/a	ISITrial	Mixed
334.886	3.22	0.011	372.81	22.0	1	0.9	-3.0	24.57	955.0	0.4	Outcome2	-6.68	0.9	3.2195	Yes	n/a	7.57870894677237	n/a	n/a	n/a	TrialHappPreview	Mixed
338.129	4.012	0.023	376.053	22.0	1	0.9	-3.0	24.57	955.0	0.4	Outcome2	-6.68	0.9	3.2195	Yes	n/a	7.57870894677237	n/a	n/a	792.0	TrialHappiness	Mixed
338.13	0.727	n/a	376.42	22.0	1	0.9	-3.0	24.57	955.0	0.4	Outcome2	-6.68	0.9	3.2195	Yes	n/a	7.57870894677237	n/a	n/a	792.0	TrialHappinessSliderResponse	Mixed
342.141	4.878	4.012	380.065	22.0	1	0.9	-3.0	24.57	955.0	0.4	Outcome2	-6.68	0.9	3.2195	Yes	n/a	7.57870894677237	n/a	n/a	n/a	ISIRate	Mixed
347.039	3.0	0.02	384.963	23.0	1	11.9	5.95	26.0575	955.0	2.0	Outcome1	11.9	12.9	0.0	No	2.0	-1.00368063420159	1.705	348.744	n/a	GetAnswer	Loss
348.761	4.0	0.017	386.685	23.0	1	11.9	5.95	26.0575	955.0	2.0	Outcome1	11.9	12.9	0.0	No	n/a	-1.00368063420159	n/a	n/a	n/a	ShowChoice	Loss
352.773	1.0	0.012	390.697	23.0	1	11.9	5.95	26.0575	955.0	2.0	Outcome1	11.9	12.9	0.0	No	n/a	-1.00368063420159	n/a	n/a	n/a	ShowResult	Loss
353.793	8.0	0.02	391.717	23.0	1	11.9	5.95	26.0575	955.0	2.0	Outcome1	11.9	12.9	0.0	No	n/a	-1.00368063420159	n/a	n/a	n/a	ISITrial	Loss
361.817	3.0	0.024	399.741	24.0	1	7.3	0.12	26.97	955.0	2.48	Outcome2	0.24	7.3	3.255	Yes	2.0	7.060022650056619	0.923	362.74	n/a	GetAnswer	Gain
362.753	4.0	0.013	400.677	24.0	1	7.3	0.12	26.97	955.0	2.48	Outcome2	0.24	7.3	3.255	Yes	n/a	7.060022650056619	n/a	n/a	n/a	ShowChoice	Gain
366.765	1.0	0.012	404.689	24.0	1	7.3	0.12	26.97	955.0	2.48	Outcome2	0.24	7.3	3.255	Yes	n/a	7.060022650056619	n/a	n/a	n/a	ShowResult	Gain
367.785	2.0	0.02	405.709	24.0	1	7.3	0.12	26.97	955.0	2.48	Outcome2	0.24	7.3	3.255	Yes	n/a	7.060022650056619	n/a	n/a	n/a	ISITrial	Gain
369.807	3.255	0.022	407.731	24.0	1	7.3	0.12	26.97	955.0	2.48	Outcome2	0.24	7.3	3.255	Yes	n/a	7.060022650056619	n/a	n/a	n/a	TrialHappPreview	Gain
373.084	4.012	0.022	411.008	24.0	1	7.3	0.12	26.97	955.0	2.48	Outcome2	0.24	7.3	3.255	Yes	2{-2}2{-2}	7.060022650056619	1.62	374.704	764.0	TrialHappiness	Gain
373.084	1.34	n/a	411.288	24.0	1	7.3	0.12	26.97	955.0	2.48	Outcome2	0.24	7.3	3.255	Yes	n/a	7.060022650056619	n/a	n/a	764.0	TrialHappinessSliderResponse	Gain
377.096	5.02	4.012	415.02	24.0	1	7.3	0.12	26.97	955.0	2.48	Outcome2	0.24	7.3	3.255	Yes	n/a	7.060022650056619	n/a	n/a	n/a	ISIRate	Gain
382.144	3.0	0.028	420.068	25.0	1	10.95	5.48	28.3388	955.0	4.2	Outcome1	10.95	12.1	0.0	No	2.0	-1.14807474518686	1.183	383.327	n/a	GetAnswer	Loss
383.348	4.0	0.021	421.272	25.0	1	10.95	5.48	28.3388	955.0	4.2	Outcome1	10.95	12.1	0.0	No	n/a	-1.14807474518686	n/a	n/a	n/a	ShowChoice	Loss
387.36	1.0	0.012	425.284	25.0	1	10.95	5.48	28.3388	955.0	4.2	Outcome1	10.95	12.1	0.0	No	n/a	-1.14807474518686	n/a	n/a	n/a	ShowResult	Loss
388.38	3.749	0.02	426.304	25.0	1	10.95	5.48	28.3388	955.0	4.2	Outcome1	10.95	12.1	0.0	No	n/a	-1.14807474518686	n/a	n/a	n/a	ISITrial	Loss
392.158	3.0	0.029	430.082	26.0	1	11.9	1.98	29.8263	955.0	3.6	Outcome2	3.96	11.9	0.0	No	2.0	7.936579841449599	0.966	393.124	n/a	GetAnswer	Loss
393.144	4.0	0.02	431.068	26.0	1	11.9	1.98	29.8263	955.0	3.6	Outcome2	3.96	11.9	0.0	No	n/a	7.936579841449599	n/a	n/a	n/a	ShowChoice	Loss
397.156	1.0	0.012	435.08	26.0	1	11.9	1.98	29.8263	955.0	3.6	Outcome2	3.96	11.9	0.0	No	n/a	7.936579841449599	n/a	n/a	n/a	ShowResult	Loss
398.176	7.834	0.02	436.1	26.0	1	11.9	1.98	29.8263	955.0	3.6	Outcome2	3.96	11.9	0.0	No	n/a	7.936579841449599	n/a	n/a	n/a	ISITrial	Loss
406.032	3.0	0.022	443.956	27.0	1	4.32	2.16	30.3663	955.0	2.8	Outcome2	5.5	4.32	2.54975	Yes	2.0	-1.18412608531521	0.955	406.987	n/a	GetAnswer	Gain
407.002	4.0	0.015	444.926	27.0	1	4.32	2.16	30.3663	955.0	2.8	Outcome2	5.5	4.32	2.54975	Yes	n/a	-1.18412608531521	n/a	n/a	n/a	ShowChoice	Gain
411.014	1.0	0.012	448.938	27.0	1	4.32	2.16	30.3663	955.0	2.8	Outcome2	5.5	4.32	2.54975	Yes	n/a	-1.18412608531521	n/a	n/a	n/a	ShowResult	Gain
412.034	4.225	0.02	449.958	27.0	1	4.32	2.16	30.3663	955.0	2.8	Outcome2	5.5	4.32	2.54975	Yes	n/a	-1.18412608531521	n/a	n/a	n/a	ISITrial	Gain
416.28	2.55	0.021	454.204	27.0	1	4.32	2.16	30.3663	955.0	2.8	Outcome2	5.5	4.32	2.54975	Yes	n/a	-1.18412608531521	n/a	n/a	n/a	TrialHappPreview	Gain
418.854	4.012	0.024	456.778	27.0	1	4.32	2.16	30.3663	955.0	2.8	Outcome2	5.5	4.32	2.54975	Yes	n/a	-1.18412608531521	n/a	n/a	776.0	TrialHappiness	Gain
418.855	2.305	n/a	457.139	27.0	1	4.32	2.16	30.3663	955.0	2.8	Outcome2	5.5	4.32	2.54975	Yes	n/a	-1.18412608531521	n/a	n/a	776.0	TrialHappinessSliderResponse	Gain
422.866	2.199	4.012	460.79	27.0	1	4.32	2.16	30.3663	955.0	2.8	Outcome2	5.5	4.32	2.54975	Yes	n/a	-1.18412608531521	n/a	n/a	n/a	ISIRate	Gain
449.931	0.668	n/a	488.096	n/a	1	n/a	n/a	n/a	n/a	n/a	n/a	n/a	n/a	n/a	n/a	n/a	n/a	n/a	n/a	760.0	BlockStartHappinessSliderResponse	n/a
-34.704	-0.001	0.024	463.013	n/a	2	n/a	n/a	n/a	n/a	n/a	n/a	n/a	n/a	n/a	n/a	{SPACE}	n/a	20.8	-13.904	n/a	Rest	n/a
-13.875	4.0	0.029	483.842	n/a	2	n/a	n/a	n/a	n/a	n/a	n/a	n/a	n/a	n/a	n/a	n/a	n/a	n/a	n/a	n/a	BlockHappyPreview	n/a
-9.863	0.909	0.012	487.854	n/a	2	n/a	n/a	n/a	n/a	n/a	n/a	n/a	n/a	n/a	n/a	2{-2}	n/a	0.909	-8.954	760.0	BlockStartHappiness	n/a
-0.535	-0.001	0.025	497.182	n/a	2	n/a	n/a	n/a	n/a	n/a	n/a	n/a	n/a	n/a	n/a	5.0	n/a	0.525	-0.01	n/a	ScanWait	n/a
0.0	10.0	0.01	497.717	n/a	2	n/a	n/a	n/a	n/a	n/a	n/a	n/a	n/a	n/a	n/a	n/a	n/a	n/a	n/a	n/a	GetReady	n/a
10.014	3.0	0.014	507.731	28.0	2	-9.83	-4.0	29.1375	70.0	1.2	Outcome2	1.9	-9.83	0.0	No	2.0	-11.734693877551	1.291	11.305	n/a	GetAnswer	Mixed
11.318	4.0	0.013	509.035	28.0	2	-9.83	-4.0	29.1375	70.0	1.2	Outcome2	1.9	-9.83	0.0	No	n/a	-11.734693877551	n/a	n/a	n/a	ShowChoice	Mixed
15.33	1.0	0.012	513.047	28.0	2	-9.83	-4.0	29.1375	70.0	1.2	Outcome2	1.9	-9.83	0.0	No	n/a	-11.734693877551	n/a	n/a	n/a	ShowResult	Mixed
16.349	3.575	0.019	514.066	28.0	2	-9.83	-4.0	29.1375	70.0	1.2	Outcome2	1.9	-9.83	0.0	No	n/a	-11.734693877551	n/a	n/a	n/a	ISITrial	Mixed
19.943	3.0	0.019	517.66	29.0	2	2.62	1.0	29.465	70.0	1.68	Outcome2	-0.25	2.62	3.529	Yes	2.0	2.8684807256235803	1.872	21.815	n/a	GetAnswer	Loss
21.832	4.0	0.017	519.549	29.0	2	2.62	1.0	29.465	70.0	1.68	Outcome2	-0.25	2.62	3.529	Yes	n/a	2.8684807256235803	n/a	n/a	n/a	ShowChoice	Loss
25.844	1.0	0.012	523.561	29.0	2	2.62	1.0	29.465	70.0	1.68	Outcome2	-0.25	2.62	3.529	Yes	n/a	2.8684807256235803	n/a	n/a	n/a	ShowResult	Loss
26.864	3.955	0.02	524.581	29.0	2	2.62	1.0	29.465	70.0	1.68	Outcome2	-0.25	2.62	3.529	Yes	n/a	2.8684807256235803	n/a	n/a	n/a	ISITrial	Loss
30.843	3.529	0.024	528.56	29.0	2	2.62	1.0	29.465	70.0	1.68	Outcome2	-0.25	2.62	3.529	Yes	n/a	2.8684807256235803	n/a	n/a	n/a	TrialHappPreview	Loss
34.403	4.012	0.031	532.12	29.0	2	2.62	1.0	29.465	70.0	1.68	Outcome2	-0.25	2.62	3.529	Yes	n/a	2.8684807256235803	n/a	n/a	760.0	TrialHappiness	Loss
34.404	0.856	n/a	533.444	29.0	2	2.62	1.0	29.465	70.0	1.68	Outcome2	-0.25	2.62	3.529	Yes	n/a	2.8684807256235803	n/a	n/a	760.0	TrialHappinessSliderResponse	Loss
38.415	6.116	4.012	536.132	29.0	2	2.62	1.0	29.465	70.0	1.68	Outcome2	-0.25	2.62	3.529	Yes	n/a	2.8684807256235803	n/a	n/a	n/a	ISIRate	Loss
44.55	3.0	0.019	542.267	30.0	2	-3.2	-1.6	29.065	70.0	4.2	Outcome1	-3.2	10.1	0.0	No	2.0	-13.2993197278912	1.091	45.641	n/a	GetAnswer	Gain
45.67	4.0	0.029	543.387	30.0	2	-3.2	-1.6	29.065	70.0	4.2	Outcome1	-3.2	10.1	0.0	No	n/a	-13.2993197278912	n/a	n/a	n/a	ShowChoice	Gain
49.682	1.0	0.012	547.399	30.0	2	-3.2	-1.6	29.065	70.0	4.2	Outcome1	-3.2	10.1	0.0	No	n/a	-13.2993197278912	n/a	n/a	n/a	ShowResult	Gain
50.702	4.453	0.02	548.419	30.0	2	-3.2	-1.6	29.065	70.0	4.2	Outcome1	-3.2	10.1	0.0	No	n/a	-13.2993197278912	n/a	n/a	n/a	ISITrial	Gain
55.182	3.0	0.027	552.899	31.0	2	-10.78	-3.0	27.7175	70.0	0.66	Outcome1	-10.78	3.3	2.50325	Yes	2.0	-14.0816326530612	2.394	57.576	n/a	GetAnswer	Mixed
57.589	4.0	0.013	555.306	31.0	2	-10.78	-3.0	27.7175	70.0	0.66	Outcome1	-10.78	3.3	2.50325	Yes	n/a	-14.0816326530612	n/a	n/a	n/a	ShowChoice	Mixed
61.601	1.0	0.012	559.318	31.0	2	-10.78	-3.0	27.7175	70.0	0.66	Outcome1	-10.78	3.3	2.50325	Yes	n/a	-14.0816326530612	n/a	n/a	n/a	ShowResult	Mixed
62.621	4.786	0.02	560.338	31.0	2	-10.78	-3.0	27.7175	70.0	0.66	Outcome1	-10.78	3.3	2.50325	Yes	n/a	-14.0816326530612	n/a	n/a	n/a	ISITrial	Mixed
67.419	2.503	0.012	565.136	31.0	2	-10.78	-3.0	27.7175	70.0	0.66	Outcome1	-10.78	3.3	2.50325	Yes	n/a	-14.0816326530612	n/a	n/a	n/a	TrialHappPreview	Mixed
69.943	4.012	0.021	567.66	31.0	2	-10.78	-3.0	27.7175	70.0	0.66	Outcome1	-10.78	3.3	2.50325	Yes	n/a	-14.0816326530612	n/a	n/a	640.0	TrialHappiness	Mixed
69.944	2.48	n/a	568.014	31.0	2	-10.78	-3.0	27.7175	70.0	0.66	Outcome1	-10.78	3.3	2.50325	Yes	n/a	-14.0816326530612	n/a	n/a	640.0	TrialHappinessSliderResponse	Mixed
73.955	2.013	4.012	571.672	31.0	2	-10.78	-3.0	27.7175	70.0	0.66	Outcome1	-10.78	3.3	2.50325	Yes	n/a	-14.0816326530612	n/a	n/a	n/a	ISIRate	Mixed
75.994	3.0	0.026	573.711	32.0	2	-1.0	-1.0	27.5925	70.0	1.5	Certain	0.02	-2.56	0.0	No	4.0	2.5765306122449	1.877	77.871	n/a	GetAnswer	Mixed
77.883	4.0	0.012	575.6	32.0	2	-1.0	-1.0	27.5925	70.0	1.5	Certain	0.02	-2.56	0.0	No	n/a	2.5765306122449	n/a	n/a	n/a	ShowChoice	Mixed
81.895	1.0	0.012	579.612	32.0	2	-1.0	-1.0	27.5925	70.0	1.5	Certain	0.02	-2.56	0.0	No	n/a	2.5765306122449	n/a	n/a	n/a	ShowResult	Mixed
82.915	2.0	0.02	580.632	32.0	2	-1.0	-1.0	27.5925	70.0	1.5	Certain	0.02	-2.56	0.0	No	n/a	2.5765306122449	n/a	n/a	n/a	ISITrial	Mixed
84.938	3.0	0.023	582.655	33.0	2	-7.17	0.0	26.6963	70.0	5.0	Outcome1	-7.17	6.3	0.0	No	2.0	-13.469387755102	2.008	86.946	n/a	GetAnswer	Gain
86.961	4.0	0.015	584.678	33.0	2	-7.17	0.0	26.6963	70.0	5.0	Outcome1	-7.17	6.3	0.0	No	n/a	-13.469387755102	n/a	n/a	n/a	ShowChoice	Gain
90.973	1.0	0.012	588.69	33.0	2	-7.17	0.0	26.6963	70.0	5.0	Outcome1	-7.17	6.3	0.0	No	n/a	-13.469387755102	n/a	n/a	n/a	ShowResult	Gain
91.992	5.099	0.019	589.709	33.0	2	-7.17	0.0	26.6963	70.0	5.0	Outcome1	-7.17	6.3	0.0	No	n/a	-13.469387755102	n/a	n/a	n/a	ISITrial	Gain
97.108	3.0	0.017	594.825	34.0	2	-9.42	-2.0	25.5188	70.0	1.82	Outcome2	4.7	-9.42	3.2315	Yes	2.0	-14.115646258503402	2.723	99.831	n/a	GetAnswer	Gain
99.849	4.0	0.018	597.566	34.0	2	-9.42	-2.0	25.5188	70.0	1.82	Outcome2	4.7	-9.42	3.2315	Yes	n/a	-14.115646258503402	n/a	n/a	n/a	ShowChoice	Gain
103.861	1.0	0.012	601.578	34.0	2	-9.42	-2.0	25.5188	70.0	1.82	Outcome2	4.7	-9.42	3.2315	Yes	n/a	-14.115646258503402	n/a	n/a	n/a	ShowResult	Gain
104.881	4.784	0.02	602.598	34.0	2	-9.42	-2.0	25.5188	70.0	1.82	Outcome2	4.7	-9.42	3.2315	Yes	n/a	-14.115646258503402	n/a	n/a	n/a	ISITrial	Gain
109.679	3.232	0.014	607.396	34.0	2	-9.42	-2.0	25.5188	70.0	1.82	Outcome2	4.7	-9.42	3.2315	Yes	n/a	-14.115646258503402	n/a	n/a	n/a	TrialHappPreview	Gain
112.938	4.012	0.027	610.655	34.0	2	-9.42	-2.0	25.5188	70.0	1.82	Outcome2	4.7	-9.42	3.2315	Yes	n/a	-14.115646258503402	n/a	n/a	576.0	TrialHappiness	Gain
112.939	0.279	n/a	611.12	34.0	2	-9.42	-2.0	25.5188	70.0	1.82	Outcome2	4.7	-9.42	3.2315	Yes	n/a	-14.115646258503402	n/a	n/a	576.0	TrialHappinessSliderResponse	Gain
116.95	4.926	4.012	614.667	34.0	2	-9.42	-2.0	25.5188	70.0	1.82	Outcome2	4.7	-9.42	3.2315	Yes	n/a	-14.115646258503402	n/a	n/a	n/a	ISIRate	Gain
121.899	3.0	0.023	619.616	35.0	2	1.0	1.0	25.6438	70.0	3.16	Certain	-0.06	2.42	0.0	No	4.0	2.47808012093726	1.933	123.832	n/a	GetAnswer	Gain
123.854	4.0	0.022	621.571	35.0	2	1.0	1.0	25.6438	70.0	3.16	Certain	-0.06	2.42	0.0	No	n/a	2.47808012093726	n/a	n/a	n/a	ShowChoice	Gain
127.866	1.0	0.012	625.583	35.0	2	1.0	1.0	25.6438	70.0	3.16	Certain	-0.06	2.42	0.0	No	n/a	2.47808012093726	n/a	n/a	n/a	ShowResult	Gain
128.886	2.098	0.02	626.603	35.0	2	1.0	1.0	25.6438	70.0	3.16	Certain	-0.06	2.42	0.0	No	n/a	2.47808012093726	n/a	n/a	n/a	ISITrial	Gain
131.009	3.0	0.025	628.726	36.0	2	2.88	1.0	26.0038	70.0	2.8	Outcome2	0.35	2.88	3.33575	Yes	2.0	2.5258881330309904	1.278	132.287	n/a	GetAnswer	Loss
132.313	4.0	0.026	630.03	36.0	2	2.88	1.0	26.0038	70.0	2.8	Outcome2	0.35	2.88	3.33575	Yes	n/a	2.5258881330309904	n/a	n/a	n/a	ShowChoice	Loss
136.325	1.0	0.012	634.042	36.0	2	2.88	1.0	26.0038	70.0	2.8	Outcome2	0.35	2.88	3.33575	Yes	n/a	2.5258881330309904	n/a	n/a	n/a	ShowResult	Loss
137.345	5.156	0.02	635.062	36.0	2	2.88	1.0	26.0038	70.0	2.8	Outcome2	0.35	2.88	3.33575	Yes	n/a	2.5258881330309904	n/a	n/a	n/a	ISITrial	Loss
142.527	3.336	0.026	640.244	36.0	2	2.88	1.0	26.0038	70.0	2.8	Outcome2	0.35	2.88	3.33575	Yes	n/a	2.5258881330309904	n/a	n/a	n/a	TrialHappPreview	Loss
145.887	4.012	0.024	643.604	36.0	2	2.88	1.0	26.0038	70.0	2.8	Outcome2	0.35	2.88	3.33575	Yes	n/a	2.5258881330309904	n/a	n/a	688.0	TrialHappiness	Loss
145.888	3.357	n/a	643.933	36.0	2	2.88	1.0	26.0038	70.0	2.8	Outcome2	0.35	2.88	3.33575	Yes	n/a	2.5258881330309904	n/a	n/a	688.0	TrialHappinessSliderResponse	Loss
149.899	5.343	4.012	647.616	36.0	2	2.88	1.0	26.0038	70.0	2.8	Outcome2	0.35	2.88	3.33575	Yes	n/a	2.5258881330309904	n/a	n/a	n/a	ISIRate	Loss
155.265	3.0	0.023	652.982	37.0	2	-0.28	-2.0	25.9688	70.0	0.4	Outcome2	-3.31	-0.28	0.0	No	n/a	3.02872260015117	n/a	n/a	n/a	GetAnswer	Mixed
158.291	4.0	0.026	656.008	37.0	2	-0.28	-2.0	25.9688	70.0	0.4	Outcome2	-3.31	-0.28	0.0	No	n/a	3.02872260015117	n/a	n/a	n/a	ShowChoice	Mixed
162.303	1.0	0.012	660.02	37.0	2	-0.28	-2.0	25.9688	70.0	0.4	Outcome2	-3.31	-0.28	0.0	No	n/a	3.02872260015117	n/a	n/a	n/a	ShowResult	Mixed
163.323	3.598	0.02	661.04	37.0	2	-0.28	-2.0	25.9688	70.0	0.4	Outcome2	-3.31	-0.28	0.0	No	n/a	3.02872260015117	n/a	n/a	n/a	ISITrial	Mixed
166.95	3.0	0.029	664.667	38.0	2	-9.33	0.0	24.8026	70.0	4.2	Outcome2	8.1	-9.33	0.0	No	2.0	-17.4263038548753	1.492	168.442	n/a	GetAnswer	Gain
168.455	4.0	0.013	666.172	38.0	2	-9.33	0.0	24.8026	70.0	4.2	Outcome2	8.1	-9.33	0.0	No	n/a	-17.4263038548753	n/a	n/a	n/a	ShowChoice	Gain
172.467	1.0	0.012	670.184	38.0	2	-9.33	0.0	24.8026	70.0	4.2	Outcome2	8.1	-9.33	0.0	No	n/a	-17.4263038548753	n/a	n/a	n/a	ShowResult	Gain
173.486	4.787	0.019	671.203	38.0	2	-9.33	0.0	24.8026	70.0	4.2	Outcome2	8.1	-9.33	0.0	No	n/a	-17.4263038548753	n/a	n/a	n/a	ISITrial	Gain
178.301	3.0	0.028	676.018	39.0	2	0.0	0.0	24.8026	70.0	4.2	Certain	1.52	-1.63	2.86425	Yes	4.0	3.14550264550265	1.932	180.233	n/a	GetAnswer	Gain
180.257	4.0	0.024	677.974	39.0	2	0.0	0.0	24.8026	70.0	4.2	Certain	1.52	-1.63	2.86425	Yes	n/a	3.14550264550265	n/a	n/a	n/a	ShowChoice	Gain
184.269	1.0	0.012	681.986	39.0	2	0.0	0.0	24.8026	70.0	4.2	Certain	1.52	-1.63	2.86425	Yes	n/a	3.14550264550265	n/a	n/a	n/a	ShowResult	Gain
185.288	2.348	0.019	683.005	39.0	2	0.0	0.0	24.8026	70.0	4.2	Certain	1.52	-1.63	2.86425	Yes	n/a	3.14550264550265	n/a	n/a	n/a	ISITrial	Gain
187.662	2.864	0.026	685.379	39.0	2	0.0	0.0	24.8026	70.0	4.2	Certain	1.52	-1.63	2.86425	Yes	n/a	3.14550264550265	n/a	n/a	n/a	TrialHappPreview	Gain
190.554	4.012	0.028	688.271	39.0	2	0.0	0.0	24.8026	70.0	4.2	Certain	1.52	-1.63	2.86425	Yes	n/a	3.14550264550265	n/a	n/a	632.0	TrialHappiness	Gain
190.555	0.403	n/a	689.865	39.0	2	0.0	0.0	24.8026	70.0	4.2	Certain	1.52	-1.63	2.86425	Yes	n/a	3.14550264550265	n/a	n/a	632.0	TrialHappinessSliderResponse	Gain
194.566	3.457	4.012	692.283	39.0	2	0.0	0.0	24.8026	70.0	4.2	Certain	1.52	-1.63	2.86425	Yes	n/a	3.14550264550265	n/a	n/a	n/a	ISIRate	Gain
198.043	3.0	0.02	695.76	40.0	2	-0.02	-1.0	24.8001	70.0	1.2	Outcome1	-0.02	-3.0	0.0	No	2.0	2.9763794406651605	2.201	200.244	n/a	GetAnswer	Mixed
200.266	4.0	0.022	697.983	40.0	2	-0.02	-1.0	24.8001	70.0	1.2	Outcome1	-0.02	-3.0	0.0	No	n/a	2.9763794406651605	n/a	n/a	n/a	ShowChoice	Mixed
204.278	1.0	0.012	701.995	40.0	2	-0.02	-1.0	24.8001	70.0	1.2	Outcome1	-0.02	-3.0	0.0	No	n/a	2.9763794406651605	n/a	n/a	n/a	ShowResult	Mixed
205.298	3.158	0.02	703.015	40.0	2	-0.02	-1.0	24.8001	70.0	1.2	Outcome1	-0.02	-3.0	0.0	No	n/a	2.9763794406651605	n/a	n/a	n/a	ISITrial	Mixed
208.474	3.0	0.018	706.191	41.0	2	2.0	2.0	25.0501	70.0	3.16	Certain	11.7	-6.81	4.0	Yes	4.0	-18.5124716553288	0.952	209.426	n/a	GetAnswer	Loss
209.444	4.0	0.018	707.161	41.0	2	2.0	2.0	25.0501	70.0	3.16	Certain	11.7	-6.81	4.0	Yes	n/a	-18.5124716553288	n/a	n/a	n/a	ShowChoice	Loss
213.456	1.0	0.012	711.173	41.0	2	2.0	2.0	25.0501	70.0	3.16	Certain	11.7	-6.81	4.0	Yes	n/a	-18.5124716553288	n/a	n/a	n/a	ShowResult	Loss
214.476	4.506	0.02	712.193	41.0	2	2.0	2.0	25.0501	70.0	3.16	Certain	11.7	-6.81	4.0	Yes	n/a	-18.5124716553288	n/a	n/a	n/a	ISITrial	Loss
219.006	4.0	0.024	716.723	41.0	2	2.0	2.0	25.0501	70.0	3.16	Certain	11.7	-6.81	4.0	Yes	n/a	-18.5124716553288	n/a	n/a	n/a	TrialHappPreview	Loss
223.035	4.012	0.029	720.752	41.0	2	2.0	2.0	25.0501	70.0	3.16	Certain	11.7	-6.81	4.0	Yes	n/a	-18.5124716553288	n/a	n/a	608.0	TrialHappiness	Loss
223.035	0.345	n/a	720.998	41.0	2	2.0	2.0	25.0501	70.0	3.16	Certain	11.7	-6.81	4.0	Yes	n/a	-18.5124716553288	n/a	n/a	608.0	TrialHappinessSliderResponse	Loss
227.047	8.0	4.012	724.764	41.0	2	2.0	2.0	25.0501	70.0	3.16	Certain	11.7	-6.81	4.0	Yes	n/a	-18.5124716553288	n/a	n/a	n/a	ISIRate	Loss
235.071	3.0	0.024	732.788	42.0	2	-10.84	-1.0	23.6951	70.0	3.6	Outcome1	-10.84	7.9	0.0	No	n/a	-18.7414965986395	n/a	n/a	n/a	GetAnswer	Gain
238.096	4.0	0.025	735.813	42.0	2	-10.84	-1.0	23.6951	70.0	3.6	Outcome1	-10.84	7.9	0.0	No	n/a	-18.7414965986395	n/a	n/a	n/a	ShowChoice	Gain
242.108	1.0	0.012	739.825	42.0	2	-10.84	-1.0	23.6951	70.0	3.6	Outcome1	-10.84	7.9	0.0	No	n/a	-18.7414965986395	n/a	n/a	n/a	ShowResult	Gain
243.128	6.248	0.02	740.845	42.0	2	-10.84	-1.0	23.6951	70.0	3.6	Outcome1	-10.84	7.9	0.0	No	n/a	-18.7414965986395	n/a	n/a	n/a	ISITrial	Gain
249.397	3.0	0.021	747.114	43.0	2	-6.0	-6.0	22.9451	70.0	0.52	Certain	-16.25	3.1	2.77575	Yes	4.0	-19.3514739229025	2.655	252.052	n/a	GetAnswer	Mixed
252.072	4.0	0.02	749.789	43.0	2	-6.0	-6.0	22.9451	70.0	0.52	Certain	-16.25	3.1	2.77575	Yes	n/a	-19.3514739229025	n/a	n/a	n/a	ShowChoice	Mixed
256.084	1.0	0.012	753.801	43.0	2	-6.0	-6.0	22.9451	70.0	0.52	Certain	-16.25	3.1	2.77575	Yes	n/a	-19.3514739229025	n/a	n/a	n/a	ShowResult	Mixed
257.103	4.596	0.019	754.82	43.0	2	-6.0	-6.0	22.9451	70.0	0.52	Certain	-16.25	3.1	2.77575	Yes	n/a	-19.3514739229025	n/a	n/a	n/a	ISITrial	Mixed
261.717	2.776	0.018	759.434	43.0	2	-6.0	-6.0	22.9451	70.0	0.52	Certain	-16.25	3.1	2.77575	Yes	n/a	-19.3514739229025	n/a	n/a	n/a	TrialHappPreview	Mixed
264.509	4.012	0.016	762.226	43.0	2	-6.0	-6.0	22.9451	70.0	0.52	Certain	-16.25	3.1	2.77575	Yes	n/a	-19.3514739229025	n/a	n/a	544.0	TrialHappiness	Mixed
264.509	0.214	n/a	762.772	43.0	2	-6.0	-6.0	22.9451	70.0	0.52	Certain	-16.25	3.1	2.77575	Yes	n/a	-19.3514739229025	n/a	n/a	544.0	TrialHappinessSliderResponse	Mixed
268.521	3.103	4.012	766.238	43.0	2	-6.0	-6.0	22.9451	70.0	0.52	Certain	-16.25	3.1	2.77575	Yes	n/a	-19.3514739229025	n/a	n/a	n/a	ISIRate	Mixed
271.647	3.0	0.023	769.364	44.0	2	-17.57	-8.0	20.7489	70.0	0.66	Outcome1	-17.57	1.3	0.0	No	2.0	-18.8730158730159	1.5	273.147	n/a	GetAnswer	Mixed
273.168	4.0	0.021	770.885	44.0	2	-17.57	-8.0	20.7489	70.0	0.66	Outcome1	-17.57	1.3	0.0	No	n/a	-18.8730158730159	n/a	n/a	n/a	ShowChoice	Mixed
277.18	1.0	0.012	774.897	44.0	2	-17.57	-8.0	20.7489	70.0	0.66	Outcome1	-17.57	1.3	0.0	No	n/a	-18.8730158730159	n/a	n/a	n/a	ShowResult	Mixed
278.2	2.42	0.02	775.917	44.0	2	-17.57	-8.0	20.7489	70.0	0.66	Outcome1	-17.57	1.3	0.0	No	n/a	-18.8730158730159	n/a	n/a	n/a	ISITrial	Mixed
280.64	3.0	0.02	778.357	45.0	2	-7.0	-7.0	19.8739	70.0	0.2	Certain	2.5	-16.91	0.0	No	4.0	-19.410430839002306	2.995	283.635	n/a	GetAnswer	Mixed
283.649	4.0	0.014	781.366	45.0	2	-7.0	-7.0	19.8739	70.0	0.2	Certain	2.5	-16.91	0.0	No	n/a	-19.410430839002306	n/a	n/a	n/a	ShowChoice	Mixed
287.661	1.0	0.012	785.378	45.0	2	-7.0	-7.0	19.8739	70.0	0.2	Certain	2.5	-16.91	0.0	No	n/a	-19.410430839002306	n/a	n/a	n/a	ShowResult	Mixed
288.681	3.144	0.02	786.398	45.0	2	-7.0	-7.0	19.8739	70.0	0.2	Certain	2.5	-16.91	0.0	No	n/a	-19.410430839002306	n/a	n/a	n/a	ISITrial	Mixed
291.857	3.0	0.032	789.574	46.0	2	-6.85	-3.42	19.0177	70.0	2.22	Outcome2	13.1	-6.85	3.84125	Yes	2.0	-19.9478458049887	1.142	292.999	n/a	GetAnswer	Loss
293.027	4.0	0.028	790.744	46.0	2	-6.85	-3.42	19.0177	70.0	2.22	Outcome2	13.1	-6.85	3.84125	Yes	n/a	-19.9478458049887	n/a	n/a	n/a	ShowChoice	Loss
297.039	1.0	0.012	794.756	46.0	2	-6.85	-3.42	19.0177	70.0	2.22	Outcome2	13.1	-6.85	3.84125	Yes	n/a	-19.9478458049887	n/a	n/a	n/a	ShowResult	Loss
298.059	2.246	0.02	795.776	46.0	2	-6.85	-3.42	19.0177	70.0	2.22	Outcome2	13.1	-6.85	3.84125	Yes	n/a	-19.9478458049887	n/a	n/a	n/a	ISITrial	Loss
300.316	3.841	0.011	798.033	46.0	2	-6.85	-3.42	19.0177	70.0	2.22	Outcome2	13.1	-6.85	3.84125	Yes	n/a	-19.9478458049887	n/a	n/a	n/a	TrialHappPreview	Loss
304.178	4.012	0.021	801.895	46.0	2	-6.85	-3.42	19.0177	70.0	2.22	Outcome2	13.1	-6.85	3.84125	Yes	n/a	-19.9478458049887	n/a	n/a	536.0	TrialHappiness	Loss
304.178	0.202	n/a	802.268	46.0	2	-6.85	-3.42	19.0177	70.0	2.22	Outcome2	13.1	-6.85	3.84125	Yes	n/a	-19.9478458049887	n/a	n/a	536.0	TrialHappinessSliderResponse	Loss
308.19	7.365	4.012	805.907	46.0	2	-6.85	-3.42	19.0177	70.0	2.22	Outcome2	13.1	-6.85	3.84125	Yes	n/a	-19.9478458049887	n/a	n/a	n/a	ISIRate	Loss
315.578	3.0	0.023	813.295	47.0	2	-20.65	-10.0	16.4364	70.0	1.0	Outcome2	-0.3	-20.65	0.0	No	2.0	-20.3492063492064	2.634	318.212	n/a	GetAnswer	Mixed
318.236	4.0	0.024	815.953	47.0	2	-20.65	-10.0	16.4364	70.0	1.0	Outcome2	-0.3	-20.65	0.0	No	n/a	-20.3492063492064	n/a	n/a	n/a	ShowChoice	Mixed
322.248	1.0	0.012	819.965	47.0	2	-20.65	-10.0	16.4364	70.0	1.0	Outcome2	-0.3	-20.65	0.0	No	n/a	-20.3492063492064	n/a	n/a	n/a	ShowResult	Mixed
323.268	2.0	0.02	820.985	47.0	2	-20.65	-10.0	16.4364	70.0	1.0	Outcome2	-0.3	-20.65	0.0	No	n/a	-20.3492063492064	n/a	n/a	n/a	ISITrial	Mixed
325.291	3.0	0.023	823.008	48.0	2	1.0	1.0	16.5614	70.0	1.82	Certain	-0.29	2.68	2.83175	Yes	4.0	2.97260015117158	1.898	327.189	n/a	GetAnswer	Loss
327.213	4.0	0.024	824.93	48.0	2	1.0	1.0	16.5614	70.0	1.82	Certain	-0.29	2.68	2.83175	Yes	n/a	2.97260015117158	n/a	n/a	n/a	ShowChoice	Loss
331.225	1.0	0.012	828.942	48.0	2	1.0	1.0	16.5614	70.0	1.82	Certain	-0.29	2.68	2.83175	Yes	n/a	2.97260015117158	n/a	n/a	n/a	ShowResult	Loss
332.245	3.692	0.02	829.962	48.0	2	1.0	1.0	16.5614	70.0	1.82	Certain	-0.29	2.68	2.83175	Yes	n/a	2.97260015117158	n/a	n/a	n/a	ISITrial	Loss
335.956	2.832	0.019	833.673	48.0	2	1.0	1.0	16.5614	70.0	1.82	Certain	-0.29	2.68	2.83175	Yes	n/a	2.97260015117158	n/a	n/a	n/a	TrialHappPreview	Loss
338.815	4.012	0.027	836.532	48.0	2	1.0	1.0	16.5614	70.0	1.82	Certain	-0.29	2.68	2.83175	Yes	n/a	2.97260015117158	n/a	n/a	536.0	TrialHappiness	Loss
338.815	0.197	n/a	836.894	48.0	2	1.0	1.0	16.5614	70.0	1.82	Certain	-0.29	2.68	2.83175	Yes	n/a	2.97260015117158	n/a	n/a	536.0	TrialHappinessSliderResponse	Loss
342.827	3.327	4.012	840.544	48.0	2	1.0	1.0	16.5614	70.0	1.82	Certain	-0.29	2.68	2.83175	Yes	n/a	2.97260015117158	n/a	n/a	n/a	ISIRate	Loss
346.17	3.0	0.016	843.887	49.0	2	-16.31	-5.0	14.5226	70.0	2.22	Outcome2	5.1	-16.31	0.0	No	2.0	-21.40589569161	2.451	348.621	n/a	GetAnswer	Gain
348.644	4.0	0.023	846.361	49.0	2	-16.31	-5.0	14.5226	70.0	2.22	Outcome2	5.1	-16.31	0.0	No	n/a	-21.40589569161	n/a	n/a	n/a	ShowChoice	Gain
352.656	1.0	0.012	850.373	49.0	2	-16.31	-5.0	14.5226	70.0	2.22	Outcome2	5.1	-16.31	0.0	No	n/a	-21.40589569161	n/a	n/a	n/a	ShowResult	Gain
353.676	8.0	0.02	851.393	49.0	2	-16.31	-5.0	14.5226	70.0	2.22	Outcome2	5.1	-16.31	0.0	No	n/a	-21.40589569161	n/a	n/a	n/a	ISITrial	Gain
361.7	3.0	0.024	859.417	50.0	2	-16.03	-5.0	12.5188	70.0	3.6	Outcome1	-16.03	5.9	3.54725	Yes	n/a	-21.9342403628118	n/a	n/a	n/a	GetAnswer	Gain
364.725	4.0	0.025	862.442	50.0	2	-16.03	-5.0	12.5188	70.0	3.6	Outcome1	-16.03	5.9	3.54725	Yes	n/a	-21.9342403628118	n/a	n/a	n/a	ShowChoice	Gain
368.737	1.0	0.012	866.454	50.0	2	-16.03	-5.0	12.5188	70.0	3.6	Outcome1	-16.03	5.9	3.54725	Yes	n/a	-21.9342403628118	n/a	n/a	n/a	ShowResult	Gain
369.757	7.537	0.02	867.474	50.0	2	-16.03	-5.0	12.5188	70.0	3.6	Outcome1	-16.03	5.9	3.54725	Yes	n/a	-21.9342403628118	n/a	n/a	n/a	ISITrial	Gain
377.313	3.547	0.019	875.03	50.0	2	-16.03	-5.0	12.5188	70.0	3.6	Outcome1	-16.03	5.9	3.54725	Yes	n/a	-21.9342403628118	n/a	n/a	n/a	TrialHappPreview	Gain
380.89	4.012	0.03	878.607	50.0	2	-16.03	-5.0	12.5188	70.0	3.6	Outcome1	-16.03	5.9	3.54725	Yes	n/a	-21.9342403628118	n/a	n/a	456.0	TrialHappiness	Gain
380.891	0.269	n/a	878.949	50.0	2	-16.03	-5.0	12.5188	70.0	3.6	Outcome1	-16.03	5.9	3.54725	Yes	n/a	-21.9342403628118	n/a	n/a	456.0	TrialHappinessSliderResponse	Gain
384.902	6.189	4.012	882.619	50.0	2	-16.03	-5.0	12.5188	70.0	3.6	Outcome1	-16.03	5.9	3.54725	Yes	n/a	-21.9342403628118	n/a	n/a	n/a	ISIRate	Gain
391.121	3.0	0.03	888.838	51.0	2	-16.8	-6.0	10.4188	70.0	2.0	Outcome1	-16.8	4.3	0.0	No	2.0	-21.1020408163265	1.365	392.486	n/a	GetAnswer	Mixed
392.509	4.0	0.023	890.226	51.0	2	-16.8	-6.0	10.4188	70.0	2.0	Outcome1	-16.8	4.3	0.0	No	n/a	-21.1020408163265	n/a	n/a	n/a	ShowChoice	Mixed
396.537	1.0	0.028	894.254	51.0	2	-16.8	-6.0	10.4188	70.0	2.0	Outcome1	-16.8	4.3	0.0	No	n/a	-21.1020408163265	n/a	n/a	n/a	ShowResult	Mixed
397.557	5.508	0.02	895.274	51.0	2	-16.8	-6.0	10.4188	70.0	2.0	Outcome1	-16.8	4.3	0.0	No	n/a	-21.1020408163265	n/a	n/a	n/a	ISITrial	Mixed
403.09	3.0	0.025	900.807	52.0	2	0.0	0.0	10.4188	70.0	2.8	Certain	-0.94	1.88	0.0	No	4.0	2.8161375661375696	1.057	404.147	n/a	GetAnswer	Gain
404.16	4.0	0.013	901.877	52.0	2	0.0	0.0	10.4188	70.0	2.8	Certain	-0.94	1.88	0.0	No	n/a	2.8161375661375696	n/a	n/a	n/a	ShowChoice	Gain
408.172	1.0	0.012	905.889	52.0	2	0.0	0.0	10.4188	70.0	2.8	Certain	-0.94	1.88	0.0	No	n/a	2.8161375661375696	n/a	n/a	n/a	ShowResult	Gain
409.192	5.913	0.02	906.909	52.0	2	0.0	0.0	10.4188	70.0	2.8	Certain	-0.94	1.88	0.0	No	n/a	2.8161375661375696	n/a	n/a	n/a	ISITrial	Gain
415.126	3.0	0.021	912.843	53.0	2	-10.68	0.0	9.0838	70.0	2.48	Outcome1	-10.68	11.3	2.99675	Yes	2.0	-21.977324263038604	0.936	416.062	n/a	GetAnswer	Loss
416.079	4.0	0.016	913.796	53.0	2	-10.68	0.0	9.0838	70.0	2.48	Outcome1	-10.68	11.3	2.99675	Yes	n/a	-21.977324263038604	n/a	n/a	n/a	ShowChoice	Loss
420.091	1.0	0.012	917.808	53.0	2	-10.68	0.0	9.0838	70.0	2.48	Outcome1	-10.68	11.3	2.99675	Yes	n/a	-21.977324263038604	n/a	n/a	n/a	ShowResult	Loss
421.111	3.66	0.02	918.828	53.0	2	-10.68	0.0	9.0838	70.0	2.48	Outcome1	-10.68	11.3	2.99675	Yes	n/a	-21.977324263038604	n/a	n/a	n/a	ISITrial	Loss
424.789	2.997	0.018	922.506	53.0	2	-10.68	0.0	9.0838	70.0	2.48	Outcome1	-10.68	11.3	2.99675	Yes	n/a	-21.977324263038604	n/a	n/a	n/a	TrialHappPreview	Loss
427.814	4.012	0.028	925.531	53.0	2	-10.68	0.0	9.0838	70.0	2.48	Outcome1	-10.68	11.3	2.99675	Yes	n/a	-21.977324263038604	n/a	n/a	472.0	TrialHappiness	Loss
427.815	0.231	n/a	926.078	53.0	2	-10.68	0.0	9.0838	70.0	2.48	Outcome1	-10.68	11.3	2.99675	Yes	n/a	-21.977324263038604	n/a	n/a	472.0	TrialHappinessSliderResponse	Loss
431.826	3.987	4.012	929.543	53.0	2	-10.68	0.0	9.0838	70.0	2.48	Outcome1	-10.68	11.3	2.99675	Yes	n/a	-21.977324263038604	n/a	n/a	n/a	ISIRate	Loss
435.838	3.0	0.025	933.555	54.0	2	-8.0	-8.0	8.0838	70.0	0.3	Certain	-19.99	2.7	0.0	No	4.0	-22.687074829932	2.904	438.742	n/a	GetAnswer	Mixed
438.764	4.0	0.022	936.481	54.0	2	-8.0	-8.0	8.0838	70.0	0.3	Certain	-19.99	2.7	0.0	No	n/a	-22.687074829932	n/a	n/a	n/a	ShowChoice	Mixed
442.776	1.0	0.012	940.493	54.0	2	-8.0	-8.0	8.0838	70.0	0.3	Certain	-19.99	2.7	0.0	No	n/a	-22.687074829932	n/a	n/a	n/a	ShowResult	Mixed
443.795	8.0	0.019	941.512	54.0	2	-8.0	-8.0	8.0838	70.0	0.3	Certain	-19.99	2.7	0.0	No	n/a	-22.687074829932	n/a	n/a	n/a	ISITrial	Mixed
478.617	0.404	n/a	976.755	n/a	2	n/a	n/a	n/a	n/a	n/a	n/a	n/a	n/a	n/a	n/a	n/a	n/a	n/a	n/a	384.0	BlockStartHappinessSliderResponse	n/a
-34.052	-0.001	0.024	949.536	n/a	3	n/a	n/a	n/a	n/a	n/a	n/a	n/a	n/a	n/a	n/a	{SPACE}	n/a	22.763	-11.289	n/a	Rest	n/a
-11.267	4.0	0.022	972.321	n/a	3	n/a	n/a	n/a	n/a	n/a	n/a	n/a	n/a	n/a	n/a	n/a	n/a	n/a	n/a	n/a	BlockHappyPreview	n/a
-7.255	0.825	0.012	976.333	n/a	3	n/a	n/a	n/a	n/a	n/a	n/a	n/a	n/a	n/a	n/a	n/a	n/a	n/a	n/a	384.0	BlockStartHappiness	n/a
-1.454	-0.001	0.011	982.134	n/a	3	n/a	n/a	n/a	n/a	n/a	n/a	n/a	n/a	n/a	n/a	5.0	n/a	1.434	-0.02	n/a	ScanWait	n/a
0.0	10.0	0.02	983.588	n/a	3	n/a	n/a	n/a	n/a	n/a	n/a	n/a	n/a	n/a	n/a	n/a	n/a	n/a	n/a	n/a	GetReady	n/a
10.014	3.0	0.014	993.602	55.0	3	8.9	-0.4	9.1963	955.0	2.0	Outcome2	-0.8	8.9	2.53325	Yes	2.0	9.69988674971687	1.328	11.342	n/a	GetAnswer	Gain
11.368	4.0	0.026	994.956	55.0	3	8.9	-0.4	9.1963	955.0	2.0	Outcome2	-0.8	8.9	2.53325	Yes	n/a	9.69988674971687	n/a	n/a	n/a	ShowChoice	Gain
15.38	1.0	0.012	998.968	55.0	3	8.9	-0.4	9.1963	955.0	2.0	Outcome2	-0.8	8.9	2.53325	Yes	n/a	9.69988674971687	n/a	n/a	n/a	ShowResult	Gain
16.399	7.709	0.019	999.987	55.0	3	8.9	-0.4	9.1963	955.0	2.0	Outcome2	-0.8	8.9	2.53325	Yes	n/a	9.69988674971687	n/a	n/a	n/a	ISITrial	Gain
24.123	2.533	0.015	1007.711	55.0	3	8.9	-0.4	9.1963	955.0	2.0	Outcome2	-0.8	8.9	2.53325	Yes	n/a	9.69988674971687	n/a	n/a	n/a	TrialHappPreview	Gain
26.68	4.012	0.024	1010.268	55.0	3	8.9	-0.4	9.1963	955.0	2.0	Outcome2	-0.8	8.9	2.53325	Yes	n/a	9.69988674971687	n/a	n/a	376.0	TrialHappiness	Gain
26.681	0.434	n/a	1010.962	55.0	3	8.9	-0.4	9.1963	955.0	2.0	Outcome2	-0.8	8.9	2.53325	Yes	n/a	9.69988674971687	n/a	n/a	376.0	TrialHappinessSliderResponse	Gain
30.692	2.133	4.012	1014.28	55.0	3	8.9	-0.4	9.1963	955.0	2.0	Outcome2	-0.8	8.9	2.53325	Yes	n/a	9.69988674971687	n/a	n/a	n/a	ISIRate	Gain
32.849	3.0	0.024	1016.437	56.0	3	8.7	-0.89	10.2838	955.0	1.82	Outcome1	8.7	-1.78	0.0	No	2.0	10.4824462061155	1.667	34.516	n/a	GetAnswer	Gain
34.537	4.0	0.021	1018.125	56.0	3	8.7	-0.89	10.2838	955.0	1.82	Outcome1	8.7	-1.78	0.0	No	n/a	10.4824462061155	n/a	n/a	n/a	ShowChoice	Gain
38.549	1.0	0.012	1022.137	56.0	3	8.7	-0.89	10.2838	955.0	1.82	Outcome1	8.7	-1.78	0.0	No	n/a	10.4824462061155	n/a	n/a	n/a	ShowResult	Gain
39.569	4.697	0.02	1023.157	56.0	3	8.7	-0.89	10.2838	955.0	1.82	Outcome1	8.7	-1.78	0.0	No	n/a	10.4824462061155	n/a	n/a	n/a	ISITrial	Gain
44.283	3.0	0.017	1027.871	57.0	3	7.1	1.0	11.1713	955.0	2.22	Outcome1	7.1	-4.04	0.0	No	2.0	11.138165345413402	1.002	45.285	n/a	GetAnswer	Gain
45.303	4.0	0.018	1028.891	57.0	3	7.1	1.0	11.1713	955.0	2.22	Outcome1	7.1	-4.04	0.0	No	n/a	11.138165345413402	n/a	n/a	n/a	ShowChoice	Gain
49.315	1.0	0.012	1032.903	57.0	3	7.1	1.0	11.1713	955.0	2.22	Outcome1	7.1	-4.04	0.0	No	n/a	11.138165345413402	n/a	n/a	n/a	ShowResult	Gain
50.334	4.291	0.019	1033.922	57.0	3	7.1	1.0	11.1713	955.0	2.22	Outcome1	7.1	-4.04	0.0	No	n/a	11.138165345413402	n/a	n/a	n/a	ISITrial	Gain
54.647	3.0	0.022	1038.235	58.0	3	9.1	-1.34	12.3088	955.0	2.22	Outcome1	9.1	-2.69	3.04575	Yes	2.0	11.7938844847112	1.099	55.746	n/a	GetAnswer	Gain
55.767	4.0	0.021	1039.355	58.0	3	9.1	-1.34	12.3088	955.0	2.22	Outcome1	9.1	-2.69	3.04575	Yes	n/a	11.7938844847112	n/a	n/a	n/a	ShowChoice	Gain
59.779	1.0	0.012	1043.367	58.0	3	9.1	-1.34	12.3088	955.0	2.22	Outcome1	9.1	-2.69	3.04575	Yes	n/a	11.7938844847112	n/a	n/a	n/a	ShowResult	Gain
60.799	2.037	0.02	1044.387	58.0	3	9.1	-1.34	12.3088	955.0	2.22	Outcome1	9.1	-2.69	3.04575	Yes	n/a	11.7938844847112	n/a	n/a	n/a	ISITrial	Gain
62.855	3.046	0.019	1046.443	58.0	3	9.1	-1.34	12.3088	955.0	2.22	Outcome1	9.1	-2.69	3.04575	Yes	n/a	11.7938844847112	n/a	n/a	n/a	TrialHappPreview	Gain
65.931	4.012	0.03	1049.519	58.0	3	9.1	-1.34	12.3088	955.0	2.22	Outcome1	9.1	-2.69	3.04575	Yes	n/a	11.7938844847112	n/a	n/a	232.0	TrialHappiness	Gain
65.932	0.735	n/a	1049.912	58.0	3	9.1	-1.34	12.3088	955.0	2.22	Outcome1	9.1	-2.69	3.04575	Yes	n/a	11.7938844847112	n/a	n/a	232.0	TrialHappinessSliderResponse	Gain
69.943	4.183	4.012	1053.531	58.0	3	9.1	-1.34	12.3088	955.0	2.22	Outcome1	9.1	-2.69	3.04575	Yes	n/a	11.7938844847112	n/a	n/a	n/a	ISIRate	Gain
74.156	3.0	0.03	1057.744	59.0	3	9.9	2.0	13.5463	955.0	3.6	Outcome1	9.9	-5.0	0.0	No	2.0	14.8958097395243	0.842	74.998	n/a	GetAnswer	Gain
75.025	4.0	0.027	1058.613	59.0	3	9.9	2.0	13.5463	955.0	3.6	Outcome1	9.9	-5.0	0.0	No	n/a	14.8958097395243	n/a	n/a	n/a	ShowChoice	Gain
79.037	1.0	0.012	1062.625	59.0	3	9.9	2.0	13.5463	955.0	3.6	Outcome1	9.9	-5.0	0.0	No	n/a	14.8958097395243	n/a	n/a	n/a	ShowResult	Gain
80.057	5.064	0.02	1063.645	59.0	3	9.9	2.0	13.5463	955.0	3.6	Outcome1	9.9	-5.0	0.0	No	n/a	14.8958097395243	n/a	n/a	n/a	ISITrial	Gain
85.139	3.0	0.018	1068.727	60.0	3	-2.72	-1.0	13.2063	955.0	0.2	Outcome2	0.5	-2.72	3.5625	Yes	2.0	-3.22008305020763	1.22	86.359	n/a	GetAnswer	Mixed
86.376	4.0	0.017	1069.964	60.0	3	-2.72	-1.0	13.2063	955.0	0.2	Outcome2	0.5	-2.72	3.5625	Yes	n/a	-3.22008305020763	n/a	n/a	n/a	ShowChoice	Mixed
90.388	1.0	0.012	1073.976	60.0	3	-2.72	-1.0	13.2063	955.0	0.2	Outcome2	0.5	-2.72	3.5625	Yes	n/a	-3.22008305020763	n/a	n/a	n/a	ShowResult	Mixed
91.407	8.0	0.019	1074.995	60.0	3	-2.72	-1.0	13.2063	955.0	0.2	Outcome2	0.5	-2.72	3.5625	Yes	n/a	-3.22008305020763	n/a	n/a	n/a	ISITrial	Mixed
99.431	3.562	0.024	1083.019	60.0	3	-2.72	-1.0	13.2063	955.0	0.2	Outcome2	0.5	-2.72	3.5625	Yes	n/a	-3.22008305020763	n/a	n/a	n/a	TrialHappPreview	Mixed
103.009	4.012	0.016	1086.597	60.0	3	-2.72	-1.0	13.2063	955.0	0.2	Outcome2	0.5	-2.72	3.5625	Yes	n/a	-3.22008305020763	n/a	n/a	288.0	TrialHappiness	Mixed
103.009	0.606	n/a	1086.933	60.0	3	-2.72	-1.0	13.2063	955.0	0.2	Outcome2	0.5	-2.72	3.5625	Yes	n/a	-3.22008305020763	n/a	n/a	288.0	TrialHappinessSliderResponse	Mixed
107.021	6.25	4.012	1090.609	60.0	3	-2.72	-1.0	13.2063	955.0	0.2	Outcome2	0.5	-2.72	3.5625	Yes	n/a	-3.22008305020763	n/a	n/a	n/a	ISIRate	Mixed
113.289	3.0	0.018	1096.877	61.0	3	1.5	-6.0	13.3938	955.0	0.82	Outcome1	1.5	-14.08	0.0	No	2.0	15.582106455266098	0.617	113.906	n/a	GetAnswer	Mixed
113.925	4.0	0.019	1097.513	61.0	3	1.5	-6.0	13.3938	955.0	0.82	Outcome1	1.5	-14.08	0.0	No	n/a	15.582106455266098	n/a	n/a	n/a	ShowChoice	Mixed
117.937	1.0	0.012	1101.525	61.0	3	1.5	-6.0	13.3938	955.0	0.82	Outcome1	1.5	-14.08	0.0	No	n/a	15.582106455266098	n/a	n/a	n/a	ShowResult	Mixed
118.956	4.586	0.019	1102.544	61.0	3	1.5	-6.0	13.3938	955.0	0.82	Outcome1	1.5	-14.08	0.0	No	n/a	15.582106455266098	n/a	n/a	n/a	ISITrial	Mixed
123.57	3.0	0.028	1107.158	62.0	3	8.5	0.0	14.4563	955.0	1.68	Outcome1	8.5	-7.84	3.74875	Yes	2.0	16.3374858437146	1.682	125.252	n/a	GetAnswer	Gain
125.275	4.0	0.023	1108.863	62.0	3	8.5	0.0	14.4563	955.0	1.68	Outcome1	8.5	-7.84	3.74875	Yes	n/a	16.3374858437146	n/a	n/a	n/a	ShowChoice	Gain
129.287	1.0	0.012	1112.875	62.0	3	8.5	0.0	14.4563	955.0	1.68	Outcome1	8.5	-7.84	3.74875	Yes	n/a	16.3374858437146	n/a	n/a	n/a	ShowResult	Gain
130.307	5.212	0.02	1113.895	62.0	3	8.5	0.0	14.4563	955.0	1.68	Outcome1	8.5	-7.84	3.74875	Yes	n/a	16.3374858437146	n/a	n/a	n/a	ISITrial	Gain
135.539	3.749	0.02	1119.127	62.0	3	8.5	0.0	14.4563	955.0	1.68	Outcome1	8.5	-7.84	3.74875	Yes	n/a	16.3374858437146	n/a	n/a	n/a	TrialHappPreview	Gain
139.317	4.012	0.029	1122.905	62.0	3	8.5	0.0	14.4563	955.0	1.68	Outcome1	8.5	-7.84	3.74875	Yes	n/a	16.3374858437146	n/a	n/a	272.0	TrialHappiness	Gain
139.318	0.644	n/a	1123.355	62.0	3	8.5	0.0	14.4563	955.0	1.68	Outcome1	8.5	-7.84	3.74875	Yes	n/a	16.3374858437146	n/a	n/a	272.0	TrialHappinessSliderResponse	Gain
143.329	6.995	4.012	1126.917	62.0	3	8.5	0.0	14.4563	955.0	1.68	Outcome1	8.5	-7.84	3.74875	Yes	n/a	16.3374858437146	n/a	n/a	n/a	ISIRate	Gain
150.35	3.0	0.026	1133.938	63.0	3	12.7	-2.33	16.0438	955.0	1.82	Outcome2	-4.66	12.7	0.0	No	2.0	17.3646659116648	1.362	151.712	n/a	GetAnswer	Loss
151.738	4.0	0.026	1135.326	63.0	3	12.7	-2.33	16.0438	955.0	1.82	Outcome2	-4.66	12.7	0.0	No	n/a	17.3646659116648	n/a	n/a	n/a	ShowChoice	Loss
155.75	1.0	0.012	1139.338	63.0	3	12.7	-2.33	16.0438	955.0	1.82	Outcome2	-4.66	12.7	0.0	No	n/a	17.3646659116648	n/a	n/a	n/a	ShowResult	Loss
156.77	5.595	0.02	1140.358	63.0	3	12.7	-2.33	16.0438	955.0	1.82	Outcome2	-4.66	12.7	0.0	No	n/a	17.3646659116648	n/a	n/a	n/a	ISITrial	Loss
162.386	3.0	0.021	1145.974	64.0	3	0.3	-9.0	16.0813	955.0	2.0	Outcome1	0.3	-17.84	0.0	No	2.0	18.1381653454134	2.163	164.549	n/a	GetAnswer	Mixed
164.576	4.0	0.027	1148.164	64.0	3	0.3	-9.0	16.0813	955.0	2.0	Outcome1	0.3	-17.84	0.0	No	n/a	18.1381653454134	n/a	n/a	n/a	ShowChoice	Mixed
168.588	1.0	0.012	1152.176	64.0	3	0.3	-9.0	16.0813	955.0	2.0	Outcome1	0.3	-17.84	0.0	No	n/a	18.1381653454134	n/a	n/a	n/a	ShowResult	Mixed
169.608	5.47	0.02	1153.196	64.0	3	0.3	-9.0	16.0813	955.0	2.0	Outcome1	0.3	-17.84	0.0	No	n/a	18.1381653454134	n/a	n/a	n/a	ISITrial	Mixed
175.108	3.0	0.03	1158.696	65.0	3	6.5	-3.0	16.8938	955.0	1.68	Outcome1	6.5	-12.41	2.99675	Yes	2.0	18.9116647791619	1.239	176.347	n/a	GetAnswer	Gain
176.362	4.0	0.015	1159.95	65.0	3	6.5	-3.0	16.8938	955.0	1.68	Outcome1	6.5	-12.41	2.99675	Yes	n/a	18.9116647791619	n/a	n/a	n/a	ShowChoice	Gain
180.374	1.0	0.012	1163.962	65.0	3	6.5	-3.0	16.8938	955.0	1.68	Outcome1	6.5	-12.41	2.99675	Yes	n/a	18.9116647791619	n/a	n/a	n/a	ShowResult	Gain
181.393	3.344	0.019	1164.981	65.0	3	6.5	-3.0	16.8938	955.0	1.68	Outcome1	6.5	-12.41	2.99675	Yes	n/a	18.9116647791619	n/a	n/a	n/a	ISITrial	Gain
184.753	2.997	0.016	1168.341	65.0	3	6.5	-3.0	16.8938	955.0	1.68	Outcome1	6.5	-12.41	2.99675	Yes	n/a	18.9116647791619	n/a	n/a	n/a	TrialHappPreview	Gain
187.779	4.012	0.029	1171.367	65.0	3	6.5	-3.0	16.8938	955.0	1.68	Outcome1	6.5	-12.41	2.99675	Yes	n/a	18.9116647791619	n/a	n/a	312.0	TrialHappiness	Gain
187.78	0.564	n/a	1171.93	65.0	3	6.5	-3.0	16.8938	955.0	1.68	Outcome1	6.5	-12.41	2.99675	Yes	n/a	18.9116647791619	n/a	n/a	312.0	TrialHappinessSliderResponse	Gain
191.791	3.987	4.012	1175.379	65.0	3	6.5	-3.0	16.8938	955.0	1.68	Outcome1	6.5	-12.41	2.99675	Yes	n/a	18.9116647791619	n/a	n/a	n/a	ISIRate	Gain
195.803	3.0	0.025	1179.391	66.0	3	6.7	-3.0	17.7313	955.0	1.82	Outcome2	-12.31	6.7	0.0	No	n/a	19.005662514156302	n/a	n/a	n/a	GetAnswer	Gain
198.829	4.0	0.026	1182.417	66.0	3	6.7	-3.0	17.7313	955.0	1.82	Outcome2	-12.31	6.7	0.0	No	n/a	19.005662514156302	n/a	n/a	n/a	ShowChoice	Gain
202.841	1.0	0.012	1186.429	66.0	3	6.7	-3.0	17.7313	955.0	1.82	Outcome2	-12.31	6.7	0.0	No	n/a	19.005662514156302	n/a	n/a	n/a	ShowResult	Gain
203.861	3.959	0.02	1187.449	66.0	3	6.7	-3.0	17.7313	955.0	1.82	Outcome2	-12.31	6.7	0.0	No	n/a	19.005662514156302	n/a	n/a	n/a	ISITrial	Gain
207.839	3.0	0.019	1191.427	67.0	3	-2.0	-2.0	17.4813	955.0	3.16	Certain	7.7	-12.03	2.9185	Yes	4.0	19.7338618346546	2.267	210.106	n/a	GetAnswer	Gain
210.129	4.0	0.023	1193.717	67.0	3	-2.0	-2.0	17.4813	955.0	3.16	Certain	7.7	-12.03	2.9185	Yes	n/a	19.7338618346546	n/a	n/a	n/a	ShowChoice	Gain
214.141	1.0	0.012	1197.729	67.0	3	-2.0	-2.0	17.4813	955.0	3.16	Certain	7.7	-12.03	2.9185	Yes	n/a	19.7338618346546	n/a	n/a	n/a	ShowResult	Gain
215.161	4.199	0.02	1198.749	67.0	3	-2.0	-2.0	17.4813	955.0	3.16	Certain	7.7	-12.03	2.9185	Yes	n/a	19.7338618346546	n/a	n/a	n/a	ISITrial	Gain
219.374	2.918	0.014	1202.962	67.0	3	-2.0	-2.0	17.4813	955.0	3.16	Certain	7.7	-12.03	2.9185	Yes	n/a	19.7338618346546	n/a	n/a	n/a	TrialHappPreview	Gain
222.316	4.012	0.024	1205.904	67.0	3	-2.0	-2.0	17.4813	955.0	3.16	Certain	7.7	-12.03	2.9185	Yes	n/a	19.7338618346546	n/a	n/a	288.0	TrialHappiness	Gain
222.316	1.185	n/a	1206.315	67.0	3	-2.0	-2.0	17.4813	955.0	3.16	Certain	7.7	-12.03	2.9185	Yes	n/a	19.7338618346546	n/a	n/a	288.0	TrialHappinessSliderResponse	Gain
226.328	3.674	4.012	1209.916	67.0	3	-2.0	-2.0	17.4813	955.0	3.16	Certain	7.7	-12.03	2.9185	Yes	n/a	19.7338618346546	n/a	n/a	n/a	ISIRate	Gain
230.022	3.0	0.02	1213.61	68.0	3	10.9	0.0	18.8438	955.0	2.0	Outcome2	-9.97	10.9	0.0	No	2.0	20.8697621744054	0.466	230.488	n/a	GetAnswer	Loss
230.507	4.0	0.019	1214.095	68.0	3	10.9	0.0	18.8438	955.0	2.0	Outcome2	-9.97	10.9	0.0	No	n/a	20.8697621744054	n/a	n/a	n/a	ShowChoice	Loss
234.519	1.0	0.012	1218.107	68.0	3	10.9	0.0	18.8438	955.0	2.0	Outcome2	-9.97	10.9	0.0	No	n/a	20.8697621744054	n/a	n/a	n/a	ShowResult	Loss
235.539	2.185	0.02	1219.127	68.0	3	10.9	0.0	18.8438	955.0	2.0	Outcome2	-9.97	10.9	0.0	No	n/a	20.8697621744054	n/a	n/a	n/a	ISITrial	Loss
237.745	3.0	0.021	1221.333	69.0	3	4.1	-6.0	19.3563	955.0	1.5	Outcome1	4.1	-17.53	0.0	No	n/a	21.625141562853894	n/a	n/a	n/a	GetAnswer	Mixed
240.771	4.0	0.026	1224.359	69.0	3	4.1	-6.0	19.3563	955.0	1.5	Outcome1	4.1	-17.53	0.0	No	n/a	21.625141562853894	n/a	n/a	n/a	ShowChoice	Mixed
244.783	1.0	0.012	1228.371	69.0	3	4.1	-6.0	19.3563	955.0	1.5	Outcome1	4.1	-17.53	0.0	No	n/a	21.625141562853894	n/a	n/a	n/a	ShowResult	Mixed
245.803	2.0	0.02	1229.391	69.0	3	4.1	-6.0	19.3563	955.0	1.5	Outcome1	4.1	-17.53	0.0	No	n/a	21.625141562853894	n/a	n/a	n/a	ISITrial	Mixed
247.826	3.0	0.023	1231.414	70.0	3	0.27	2.0	19.3901	955.0	1.2	Outcome1	0.27	3.9	3.65125	Yes	2.0	-3.6275953189883	1.244	249.07	n/a	GetAnswer	Mixed
249.096	4.0	0.026	1232.684	70.0	3	0.27	2.0	19.3901	955.0	1.2	Outcome1	0.27	3.9	3.65125	Yes	n/a	-3.6275953189883	n/a	n/a	n/a	ShowChoice	Mixed
253.108	1.0	0.012	1236.696	70.0	3	0.27	2.0	19.3901	955.0	1.2	Outcome1	0.27	3.9	3.65125	Yes	n/a	-3.6275953189883	n/a	n/a	n/a	ShowResult	Mixed
254.128	2.623	0.02	1237.716	70.0	3	0.27	2.0	19.3901	955.0	1.2	Outcome1	0.27	3.9	3.65125	Yes	n/a	-3.6275953189883	n/a	n/a	n/a	ISITrial	Mixed
256.769	3.651	0.018	1240.357	70.0	3	0.27	2.0	19.3901	955.0	1.2	Outcome1	0.27	3.9	3.65125	Yes	n/a	-3.6275953189883	n/a	n/a	n/a	TrialHappPreview	Mixed
260.447	4.012	0.027	1244.035	70.0	3	0.27	2.0	19.3901	955.0	1.2	Outcome1	0.27	3.9	3.65125	Yes	n/a	-3.6275953189883	n/a	n/a	656.0	TrialHappiness	Mixed
260.447	0.442	n/a	1244.402	70.0	3	0.27	2.0	19.3901	955.0	1.2	Outcome1	0.27	3.9	3.65125	Yes	n/a	-3.6275953189883	n/a	n/a	656.0	TrialHappinessSliderResponse	Mixed
264.459	6.605	4.012	1248.047	70.0	3	0.27	2.0	19.3901	955.0	1.2	Outcome1	0.27	3.9	3.65125	Yes	n/a	-3.6275953189883	n/a	n/a	n/a	ISIRate	Mixed
271.095	3.0	0.031	1254.683	71.0	3	2.3	-6.0	19.6776	955.0	2.0	Outcome1	2.3	-14.58	0.0	No	2.0	16.8844847112118	1.096	272.191	n/a	GetAnswer	Mixed
272.215	4.0	0.024	1255.803	71.0	3	2.3	-6.0	19.6776	955.0	2.0	Outcome1	2.3	-14.58	0.0	No	n/a	16.8844847112118	n/a	n/a	n/a	ShowChoice	Mixed
276.227	1.0	0.012	1259.815	71.0	3	2.3	-6.0	19.6776	955.0	2.0	Outcome1	2.3	-14.58	0.0	No	n/a	16.8844847112118	n/a	n/a	n/a	ShowResult	Mixed
277.247	5.499	0.02	1260.835	71.0	3	2.3	-6.0	19.6776	955.0	2.0	Outcome1	2.3	-14.58	0.0	No	n/a	16.8844847112118	n/a	n/a	n/a	ISITrial	Mixed
282.763	3.0	0.017	1266.351	72.0	3	-3.13	-2.0	19.2863	955.0	0.52	Outcome1	-3.13	-0.9	3.0805	Yes	n/a	-2.22536806342016	n/a	n/a	n/a	GetAnswer	Mixed
285.789	4.0	0.026	1269.377	72.0	3	-3.13	-2.0	19.2863	955.0	0.52	Outcome1	-3.13	-0.9	3.0805	Yes	n/a	-2.22536806342016	n/a	n/a	n/a	ShowChoice	Mixed
289.801	1.0	0.012	1273.389	72.0	3	-3.13	-2.0	19.2863	955.0	0.52	Outcome1	-3.13	-0.9	3.0805	Yes	n/a	-2.22536806342016	n/a	n/a	n/a	ShowResult	Mixed
290.821	5.672	0.02	1274.409	72.0	3	-3.13	-2.0	19.2863	955.0	0.52	Outcome1	-3.13	-0.9	3.0805	Yes	n/a	-2.22536806342016	n/a	n/a	n/a	ISITrial	Mixed
296.505	3.08	0.012	1280.093	72.0	3	-3.13	-2.0	19.2863	955.0	0.52	Outcome1	-3.13	-0.9	3.0805	Yes	n/a	-2.22536806342016	n/a	n/a	n/a	TrialHappPreview	Mixed
299.614	4.012	0.029	1283.202	72.0	3	-3.13	-2.0	19.2863	955.0	0.52	Outcome1	-3.13	-0.9	3.0805	Yes	n/a	-2.22536806342016	n/a	n/a	544.0	TrialHappiness	Mixed
299.614	0.209	n/a	1283.469	72.0	3	-3.13	-2.0	19.2863	955.0	0.52	Outcome1	-3.13	-0.9	3.0805	Yes	n/a	-2.22536806342016	n/a	n/a	544.0	TrialHappinessSliderResponse	Mixed
303.626	4.322	4.012	1287.214	72.0	3	-3.13	-2.0	19.2863	955.0	0.52	Outcome1	-3.13	-0.9	3.0805	Yes	n/a	-2.22536806342016	n/a	n/a	n/a	ISIRate	Mixed
307.972	3.0	0.024	1291.56	73.0	3	6.9	-3.0	20.1488	955.0	2.0	Outcome2	-12.56	6.9	0.0	No	2.0	19.4643261608154	0.513	308.485	n/a	GetAnswer	Gain
308.507	4.0	0.022	1292.095	73.0	3	6.9	-3.0	20.1488	955.0	2.0	Outcome2	-12.56	6.9	0.0	No	n/a	19.4643261608154	n/a	n/a	n/a	ShowChoice	Gain
312.519	1.0	0.012	1296.107	73.0	3	6.9	-3.0	20.1488	955.0	2.0	Outcome2	-12.56	6.9	0.0	No	n/a	19.4643261608154	n/a	n/a	n/a	ShowResult	Gain
313.539	4.616	0.02	1297.127	73.0	3	6.9	-3.0	20.1488	955.0	2.0	Outcome2	-12.56	6.9	0.0	No	n/a	19.4643261608154	n/a	n/a	n/a	ISITrial	Gain
318.186	3.0	0.031	1301.774	74.0	3	2.0	2.0	20.3988	955.0	5.0	Certain	-7.63	12.3	3.05625	Yes	4.0	19.9297848244621	1.005	319.191	n/a	GetAnswer	Loss
319.206	4.0	0.015	1302.794	74.0	3	2.0	2.0	20.3988	955.0	5.0	Certain	-7.63	12.3	3.05625	Yes	n/a	19.9297848244621	n/a	n/a	n/a	ShowChoice	Loss
323.218	1.0	0.012	1306.806	74.0	3	2.0	2.0	20.3988	955.0	5.0	Certain	-7.63	12.3	3.05625	Yes	n/a	19.9297848244621	n/a	n/a	n/a	ShowResult	Loss
324.238	3.909	0.02	1307.826	74.0	3	2.0	2.0	20.3988	955.0	5.0	Certain	-7.63	12.3	3.05625	Yes	n/a	19.9297848244621	n/a	n/a	n/a	ISITrial	Loss
328.166	3.056	0.019	1311.754	74.0	3	2.0	2.0	20.3988	955.0	5.0	Certain	-7.63	12.3	3.05625	Yes	n/a	19.9297848244621	n/a	n/a	n/a	TrialHappPreview	Loss
331.242	4.012	0.02	1314.83	74.0	3	2.0	2.0	20.3988	955.0	5.0	Certain	-7.63	12.3	3.05625	Yes	n/a	19.9297848244621	n/a	n/a	544.0	TrialHappiness	Loss
331.242	0.214	n/a	1315.159	74.0	3	2.0	2.0	20.3988	955.0	5.0	Certain	-7.63	12.3	3.05625	Yes	n/a	19.9297848244621	n/a	n/a	544.0	TrialHappinessSliderResponse	Loss
335.254	4.225	4.012	1318.842	74.0	3	2.0	2.0	20.3988	955.0	5.0	Certain	-7.63	12.3	3.05625	Yes	n/a	19.9297848244621	n/a	n/a	n/a	ISIRate	Loss
339.5	3.0	0.021	1323.088	75.0	3	6.71	3.36	21.2376	955.0	2.8	Outcome2	9.5	6.71	0.0	No	2.0	-2.7856738391846	0.765	340.265	n/a	GetAnswer	Gain
340.286	4.0	0.021	1323.874	75.0	3	6.71	3.36	21.2376	955.0	2.8	Outcome2	9.5	6.71	0.0	No	n/a	-2.7856738391846	n/a	n/a	n/a	ShowChoice	Gain
344.298	1.0	0.012	1327.886	75.0	3	6.71	3.36	21.2376	955.0	2.8	Outcome2	9.5	6.71	0.0	No	n/a	-2.7856738391846	n/a	n/a	n/a	ShowResult	Gain
345.317	4.979	0.019	1328.905	75.0	3	6.71	3.36	21.2376	955.0	2.8	Outcome2	9.5	6.71	0.0	No	n/a	-2.7856738391846	n/a	n/a	n/a	ISITrial	Gain
350.316	3.0	0.02	1333.904	76.0	3	0.7	-9.0	21.3251	955.0	0.3	Outcome1	0.7	-20.16	0.0	No	2.0	20.8607021517554	0.853	351.169	n/a	GetAnswer	Mixed
351.185	4.0	0.016	1334.773	76.0	3	0.7	-9.0	21.3251	955.0	0.3	Outcome1	0.7	-20.16	0.0	No	n/a	20.8607021517554	n/a	n/a	n/a	ShowChoice	Mixed
355.197	1.0	0.012	1338.785	76.0	3	0.7	-9.0	21.3251	955.0	0.3	Outcome1	0.7	-20.16	0.0	No	n/a	20.8607021517554	n/a	n/a	n/a	ShowResult	Mixed
356.217	3.931	0.02	1339.805	76.0	3	0.7	-9.0	21.3251	955.0	0.3	Outcome1	0.7	-20.16	0.0	No	n/a	20.8607021517554	n/a	n/a	n/a	ISITrial	Mixed
360.179	3.0	0.031	1343.767	77.0	3	3.5	-7.0	21.7626	955.0	0.82	Outcome1	3.5	-17.83	4.0	Yes	2.0	21.326160815402	1.903	362.082	n/a	GetAnswer	Mixed
362.101	4.0	0.019	1345.689	77.0	3	3.5	-7.0	21.7626	955.0	0.82	Outcome1	3.5	-17.83	4.0	Yes	n/a	21.326160815402	n/a	n/a	n/a	ShowChoice	Mixed
366.113	1.0	0.012	1349.701	77.0	3	3.5	-7.0	21.7626	955.0	0.82	Outcome1	3.5	-17.83	4.0	Yes	n/a	21.326160815402	n/a	n/a	n/a	ShowResult	Mixed
367.133	7.022	0.02	1350.721	77.0	3	3.5	-7.0	21.7626	955.0	0.82	Outcome1	3.5	-17.83	4.0	Yes	n/a	21.326160815402	n/a	n/a	n/a	ISITrial	Mixed
374.17	4.0	0.015	1357.758	77.0	3	3.5	-7.0	21.7626	955.0	0.82	Outcome1	3.5	-17.83	4.0	Yes	n/a	21.326160815402	n/a	n/a	n/a	TrialHappPreview	Mixed
378.199	4.012	0.029	1361.787	77.0	3	3.5	-7.0	21.7626	955.0	0.82	Outcome1	3.5	-17.83	4.0	Yes	n/a	21.326160815402	n/a	n/a	496.0	TrialHappiness	Mixed
378.2	0.173	n/a	1362.174	77.0	3	3.5	-7.0	21.7626	955.0	0.82	Outcome1	3.5	-17.83	4.0	Yes	n/a	21.326160815402	n/a	n/a	496.0	TrialHappinessSliderResponse	Mixed
382.211	8.0	4.012	1365.799	77.0	3	3.5	-7.0	21.7626	955.0	0.82	Outcome1	3.5	-17.83	4.0	Yes	n/a	21.326160815402	n/a	n/a	n/a	ISIRate	Mixed
390.235	3.0	0.024	1373.823	78.0	3	10.2	5.1	23.0376	955.0	2.48	Outcome1	10.2	13.3	0.0	No	2.0	-3.09682899207248	0.708	390.943	n/a	GetAnswer	Loss
390.971	4.0	0.028	1374.559	78.0	3	10.2	5.1	23.0376	955.0	2.48	Outcome1	10.2	13.3	0.0	No	n/a	-3.09682899207248	n/a	n/a	n/a	ShowChoice	Loss
394.983	1.0	0.012	1378.571	78.0	3	10.2	5.1	23.0376	955.0	2.48	Outcome1	10.2	13.3	0.0	No	n/a	-3.09682899207248	n/a	n/a	n/a	ShowResult	Loss
396.002	2.078	0.019	1379.59	78.0	3	10.2	5.1	23.0376	955.0	2.48	Outcome1	10.2	13.3	0.0	No	n/a	-3.09682899207248	n/a	n/a	n/a	ISITrial	Loss
398.109	3.0	0.029	1381.697	79.0	3	-1.0	-1.0	22.9126	955.0	1.68	Certain	-12.63	10.5	2.7295	Yes	4.0	23.1268403171008	2.736	400.845	n/a	GetAnswer	Loss
400.867	4.0	0.022	1384.455	79.0	3	-1.0	-1.0	22.9126	955.0	1.68	Certain	-12.63	10.5	2.7295	Yes	n/a	23.1268403171008	n/a	n/a	n/a	ShowChoice	Loss
404.879	1.0	0.012	1388.467	79.0	3	-1.0	-1.0	22.9126	955.0	1.68	Certain	-12.63	10.5	2.7295	Yes	n/a	23.1268403171008	n/a	n/a	n/a	ShowResult	Loss
405.899	3.829	0.02	1389.487	79.0	3	-1.0	-1.0	22.9126	955.0	1.68	Certain	-12.63	10.5	2.7295	Yes	n/a	23.1268403171008	n/a	n/a	n/a	ISITrial	Loss
409.744	2.73	0.016	1393.332	79.0	3	-1.0	-1.0	22.9126	955.0	1.68	Certain	-12.63	10.5	2.7295	Yes	n/a	23.1268403171008	n/a	n/a	n/a	TrialHappPreview	Loss
412.502	4.012	0.028	1396.09	79.0	3	-1.0	-1.0	22.9126	955.0	1.68	Certain	-12.63	10.5	2.7295	Yes	n/a	23.1268403171008	n/a	n/a	480.0	TrialHappiness	Loss
412.502	0.205	n/a	1396.527	79.0	3	-1.0	-1.0	22.9126	955.0	1.68	Certain	-12.63	10.5	2.7295	Yes	n/a	23.1268403171008	n/a	n/a	480.0	TrialHappinessSliderResponse	Loss
416.514	2.918	4.012	1400.102	79.0	3	-1.0	-1.0	22.9126	955.0	1.68	Certain	-12.63	10.5	2.7295	Yes	n/a	23.1268403171008	n/a	n/a	n/a	ISIRate	Loss
419.456	3.0	0.024	1403.044	80.0	3	1.7	-10.0	23.1251	955.0	1.0	Outcome1	1.7	-22.22	0.0	No	2.0	23.918459796149502	0.909	420.365	n/a	GetAnswer	Mixed
420.392	4.0	0.027	1403.98	80.0	3	1.7	-10.0	23.1251	955.0	1.0	Outcome1	1.7	-22.22	0.0	No	n/a	23.918459796149502	n/a	n/a	n/a	ShowChoice	Mixed
424.404	1.0	0.012	1407.992	80.0	3	1.7	-10.0	23.1251	955.0	1.0	Outcome1	1.7	-22.22	0.0	No	n/a	23.918459796149502	n/a	n/a	n/a	ShowResult	Mixed
425.424	3.336	0.02	1409.012	80.0	3	1.7	-10.0	23.1251	955.0	1.0	Outcome1	1.7	-22.22	0.0	No	n/a	23.918459796149502	n/a	n/a	n/a	ISITrial	Mixed
428.784	3.0	0.024	1412.372	81.0	3	0.5	-11.0	23.1876	955.0	0.2	Outcome2	-23.96	0.5	3.92375	Yes	n/a	24.4563986409966	n/a	n/a	n/a	GetAnswer	Mixed
431.81	4.0	0.026	1415.398	81.0	3	0.5	-11.0	23.1876	955.0	0.2	Outcome2	-23.96	0.5	3.92375	Yes	n/a	24.4563986409966	n/a	n/a	n/a	ShowChoice	Mixed
435.822	1.0	0.012	1419.41	81.0	3	0.5	-11.0	23.1876	955.0	0.2	Outcome2	-23.96	0.5	3.92375	Yes	n/a	24.4563986409966	n/a	n/a	n/a	ShowResult	Mixed
436.841	3.919	0.019	1420.429	81.0	3	0.5	-11.0	23.1876	955.0	0.2	Outcome2	-23.96	0.5	3.92375	Yes	n/a	24.4563986409966	n/a	n/a	n/a	ISITrial	Mixed
440.786	3.924	0.026	1424.374	81.0	3	0.5	-11.0	23.1876	955.0	0.2	Outcome2	-23.96	0.5	3.92375	Yes	n/a	24.4563986409966	n/a	n/a	n/a	TrialHappPreview	Mixed
444.732	4.012	0.022	1428.32	81.0	3	0.5	-11.0	23.1876	955.0	0.2	Outcome2	-23.96	0.5	3.92375	Yes	n/a	24.4563986409966	n/a	n/a	488.0	TrialHappiness	Mixed
444.732	0.19	n/a	1428.706	81.0	3	0.5	-11.0	23.1876	955.0	0.2	Outcome2	-23.96	0.5	3.92375	Yes	n/a	24.4563986409966	n/a	n/a	488.0	TrialHappinessSliderResponse	Mixed
448.744	7.695	4.012	1432.332	81.0	3	0.5	-11.0	23.1876	955.0	0.2	Outcome2	-23.96	0.5	3.92375	Yes	n/a	24.4563986409966	n/a	n/a	n/a	ISIRate	Mixed
456.467	3.0	0.028	1440.055	n/a	3	n/a	n/a	n/a	n/a	n/a	n/a	n/a	n/a	n/a	n/a	n/a	n/a	n/a	n/a	n/a	CurrentEarnings	n/a
459.492	-0.001	0.025	1443.08	n/a	3	n/a	n/a	n/a	n/a	n/a	n/a	n/a	n/a	n/a	n/a	{SPACE}	n/a	6.906	466.398	n/a	Goodbye	n/a
