onset	duration	onset_delay	onset_unadjusted	trial_number	block	amount_change	certain_amount	current_amount	mood_target	multiplier	outcome	outcome1_amount	outcome2_amount	question_duration	rating	response	rpe	rt	rt_time	slider_response	trial_phase	trial_type
-35.59	-0.001	0.02	33.492	n/a	0	n/a	n/a	n/a	n/a	n/a	n/a	n/a	n/a	n/a	n/a	{SPACE}	n/a	2.393	-33.197	n/a	Welcome	n/a
-33.166	5.0	0.031	35.916	n/a	0	n/a	n/a	n/a	n/a	n/a	n/a	n/a	n/a	n/a	n/a	n/a	n/a	n/a	n/a	n/a	LifeHappyPreview	n/a
-28.134	2.714	0.032	40.948	n/a	0	n/a	n/a	n/a	n/a	n/a	n/a	n/a	n/a	n/a	n/a	n/a	n/a	n/a	n/a	620.0	LifeHappiness	n/a
-28.134	1.079	n/a	42.583	n/a	0	n/a	n/a	n/a	n/a	n/a	n/a	n/a	n/a	n/a	n/a	n/a	n/a	n/a	n/a	620.0	LifeHappinessSliderResponse	n/a
-16.399	4.0	0.031	52.683	n/a	0	n/a	n/a	n/a	n/a	n/a	n/a	n/a	n/a	n/a	n/a	n/a	n/a	n/a	n/a	n/a	BlockHappyPreview	n/a
-12.387	0.993	0.012	56.695	n/a	0	n/a	n/a	n/a	n/a	n/a	n/a	n/a	n/a	n/a	n/a	2{-2}	n/a	0.993	-11.394	584.0	BlockStartHappiness	n/a
-12.387	0.29	n/a	57.398	n/a	0	n/a	n/a	n/a	n/a	n/a	n/a	n/a	n/a	n/a	n/a	n/a	n/a	n/a	n/a	584.0	BlockStartHappinessSliderResponse	n/a
-3.611	-0.001	0.019	65.471	n/a	0	n/a	n/a	n/a	n/a	n/a	n/a	n/a	n/a	n/a	n/a	5.0	n/a	3.587	-0.024	n/a	ScanWait	n/a
0.0	10.0	0.024	69.082	n/a	1	n/a	n/a	n/a	n/a	n/a	n/a	n/a	n/a	n/a	n/a	n/a	n/a	n/a	n/a	n/a	GetReady	n/a
10.03	3.0	0.03	79.112	1.0	1	5.7	2.0	10.7125	955.0	3.16	Outcome2	-0.6	5.7	0.0	No	2.0	6.30237825594564	1.387	11.417	n/a	GetAnswer	Gain
11.434	4.0	0.017	80.516	1.0	1	5.7	2.0	10.7125	955.0	3.16	Outcome2	-0.6	5.7	0.0	No	n/a	6.30237825594564	n/a	n/a	n/a	ShowChoice	Gain
15.446	1.0	0.012	84.528	1.0	1	5.7	2.0	10.7125	955.0	3.16	Outcome2	-0.6	5.7	0.0	No	n/a	6.30237825594564	n/a	n/a	n/a	ShowResult	Gain
16.466	2.431	0.02	85.548	1.0	1	5.7	2.0	10.7125	955.0	3.16	Outcome2	-0.6	5.7	0.0	No	n/a	6.30237825594564	n/a	n/a	n/a	ISITrial	Gain
18.923	3.0	0.026	88.005	2.0	1	11.76	5.88	12.1825	955.0	2.48	Outcome2	13.3	11.76	0.0	No	2.0	-1.54058135145338	1.238	20.161	n/a	GetAnswer	Loss
20.177	4.0	0.016	89.259	2.0	1	11.76	5.88	12.1825	955.0	2.48	Outcome2	13.3	11.76	0.0	No	n/a	-1.54058135145338	n/a	n/a	n/a	ShowChoice	Loss
24.189	1.0	0.012	93.271	2.0	1	11.76	5.88	12.1825	955.0	2.48	Outcome2	13.3	11.76	0.0	No	n/a	-1.54058135145338	n/a	n/a	n/a	ShowResult	Loss
25.209	4.568	0.02	94.291	2.0	1	11.76	5.88	12.1825	955.0	2.48	Outcome2	13.3	11.76	0.0	No	n/a	-1.54058135145338	n/a	n/a	n/a	ISITrial	Loss
29.806	3.0	0.029	98.888	3.0	1	-5.0	-5.0	11.5575	955.0	0.2	Certain	-8.64	-1.5	2.868	Yes	4.0	7.14269535673839	2.304	32.11	n/a	GetAnswer	Mixed
32.13	4.0	0.02	101.212	3.0	1	-5.0	-5.0	11.5575	955.0	0.2	Certain	-8.64	-1.5	2.868	Yes	n/a	7.14269535673839	n/a	n/a	n/a	ShowChoice	Mixed
36.158	1.0	0.028	105.24	3.0	1	-5.0	-5.0	11.5575	955.0	0.2	Certain	-8.64	-1.5	2.868	Yes	n/a	7.14269535673839	n/a	n/a	n/a	ShowResult	Mixed
37.178	3.243	0.02	106.26	3.0	1	-5.0	-5.0	11.5575	955.0	0.2	Certain	-8.64	-1.5	2.868	Yes	n/a	7.14269535673839	n/a	n/a	n/a	ISITrial	Mixed
40.438	2.868	0.017	109.52	3.0	1	-5.0	-5.0	11.5575	955.0	0.2	Certain	-8.64	-1.5	2.868	Yes	n/a	7.14269535673839	n/a	n/a	n/a	TrialHappPreview	Mixed
43.33	4.029	0.024	112.412	3.0	1	-5.0	-5.0	11.5575	955.0	0.2	Certain	-8.64	-1.5	2.868	Yes	n/a	7.14269535673839	n/a	n/a	584.0	TrialHappiness	Mixed
43.33	0.296	n/a	113.008	3.0	1	-5.0	-5.0	11.5575	955.0	0.2	Certain	-8.64	-1.5	2.868	Yes	n/a	7.14269535673839	n/a	n/a	584.0	TrialHappinessSliderResponse	Mixed
47.359	3.472	4.029	116.441	3.0	1	-5.0	-5.0	11.5575	955.0	0.2	Certain	-8.64	-1.5	2.868	Yes	n/a	7.14269535673839	n/a	n/a	n/a	ISIRate	Mixed
50.852	3.0	0.021	119.934	4.0	1	10.7	1.57	12.895	955.0	1.82	Outcome1	10.7	3.14	0.0	No	2.0	7.562853907134769	1.106	51.958	n/a	GetAnswer	Loss
51.989	4.0	0.031	121.071	4.0	1	10.7	1.57	12.895	955.0	1.82	Outcome1	10.7	3.14	0.0	No	n/a	7.562853907134769	n/a	n/a	n/a	ShowChoice	Loss
56.001	1.0	0.012	125.083	4.0	1	10.7	1.57	12.895	955.0	1.82	Outcome1	10.7	3.14	0.0	No	n/a	7.562853907134769	n/a	n/a	n/a	ShowResult	Loss
57.021	2.011	0.02	126.103	4.0	1	10.7	1.57	12.895	955.0	1.82	Outcome1	10.7	3.14	0.0	No	n/a	7.562853907134769	n/a	n/a	n/a	ISITrial	Loss
59.06	3.0	0.028	128.142	5.0	1	9.85	4.92	14.1262	955.0	2.8	Outcome1	9.85	11.5	2.5825	Yes	2.0	-1.64562098905247	0.926	59.986	n/a	GetAnswer	Loss
60.013	4.0	0.027	129.095	5.0	1	9.85	4.92	14.1262	955.0	2.8	Outcome1	9.85	11.5	2.5825	Yes	n/a	-1.64562098905247	n/a	n/a	n/a	ShowChoice	Loss
64.025	1.0	0.012	133.107	5.0	1	9.85	4.92	14.1262	955.0	2.8	Outcome1	9.85	11.5	2.5825	Yes	n/a	-1.64562098905247	n/a	n/a	n/a	ShowResult	Loss
65.045	5.129	0.02	134.127	5.0	1	9.85	4.92	14.1262	955.0	2.8	Outcome1	9.85	11.5	2.5825	Yes	n/a	-1.64562098905247	n/a	n/a	n/a	ISITrial	Loss
70.194	2.582	0.02	139.276	5.0	1	9.85	4.92	14.1262	955.0	2.8	Outcome1	9.85	11.5	2.5825	Yes	n/a	-1.64562098905247	n/a	n/a	n/a	TrialHappPreview	Loss
72.802	4.028	0.026	141.884	5.0	1	9.85	4.92	14.1262	955.0	2.8	Outcome1	9.85	11.5	2.5825	Yes	n/a	-1.64562098905247	n/a	n/a	680.0	TrialHappiness	Loss
72.802	0.5	n/a	142.392	5.0	1	9.85	4.92	14.1262	955.0	2.8	Outcome1	9.85	11.5	2.5825	Yes	n/a	-1.64562098905247	n/a	n/a	680.0	TrialHappinessSliderResponse	Loss
76.83	2.33	4.028	145.912	5.0	1	9.85	4.92	14.1262	955.0	2.8	Outcome1	9.85	11.5	2.5825	Yes	n/a	-1.64562098905247	n/a	n/a	n/a	ISIRate	Loss
79.187	3.0	0.027	148.269	6.0	1	0.5	-3.0	14.1887	955.0	0.2	Outcome1	0.5	-6.27	0.0	No	2.0	6.77236693091733	1.249	80.436	n/a	GetAnswer	Mixed
80.458	4.0	0.022	149.54	6.0	1	0.5	-3.0	14.1887	955.0	0.2	Outcome1	0.5	-6.27	0.0	No	n/a	6.77236693091733	n/a	n/a	n/a	ShowChoice	Mixed
84.47	1.0	0.012	153.552	6.0	1	0.5	-3.0	14.1887	955.0	0.2	Outcome1	0.5	-6.27	0.0	No	n/a	6.77236693091733	n/a	n/a	n/a	ShowResult	Mixed
85.49	6.232	0.02	154.572	6.0	1	0.5	-3.0	14.1887	955.0	0.2	Outcome1	0.5	-6.27	0.0	No	n/a	6.77236693091733	n/a	n/a	n/a	ISITrial	Mixed
91.742	3.0	0.02	160.824	7.0	1	-4.0	-4.0	13.6887	955.0	0.4	Certain	-8.18	-1.1	0.0	No	4.0	7.083805209513019	1.563	93.305	n/a	GetAnswer	Mixed
93.33	4.0	0.025	162.412	7.0	1	-4.0	-4.0	13.6887	955.0	0.4	Certain	-8.18	-1.1	0.0	No	n/a	7.083805209513019	n/a	n/a	n/a	ShowChoice	Mixed
97.359	1.0	0.029	166.441	7.0	1	-4.0	-4.0	13.6887	955.0	0.4	Certain	-8.18	-1.1	0.0	No	n/a	7.083805209513019	n/a	n/a	n/a	ShowResult	Mixed
98.378	2.305	0.019	167.46	7.0	1	-4.0	-4.0	13.6887	955.0	0.4	Certain	-8.18	-1.1	0.0	No	n/a	7.083805209513019	n/a	n/a	n/a	ISITrial	Mixed
100.702	3.0	0.019	169.784	8.0	1	0.56	1.0	13.7587	955.0	1.2	Outcome2	1.9	0.56	3.1125	Yes	2.0	-1.34295960739902	1.247	101.949	n/a	GetAnswer	Mixed
101.972	4.0	0.023	171.054	8.0	1	0.56	1.0	13.7587	955.0	1.2	Outcome2	1.9	0.56	3.1125	Yes	n/a	-1.34295960739902	n/a	n/a	n/a	ShowChoice	Mixed
105.985	1.0	0.013	175.067	8.0	1	0.56	1.0	13.7587	955.0	1.2	Outcome2	1.9	0.56	3.1125	Yes	n/a	-1.34295960739902	n/a	n/a	n/a	ShowResult	Mixed
107.004	3.506	0.019	176.086	8.0	1	0.56	1.0	13.7587	955.0	1.2	Outcome2	1.9	0.56	3.1125	Yes	n/a	-1.34295960739902	n/a	n/a	n/a	ISITrial	Mixed
110.531	3.112	0.021	179.613	8.0	1	0.56	1.0	13.7587	955.0	1.2	Outcome2	1.9	0.56	3.1125	Yes	n/a	-1.34295960739902	n/a	n/a	n/a	TrialHappPreview	Mixed
113.674	4.029	0.031	182.756	8.0	1	0.56	1.0	13.7587	955.0	1.2	Outcome2	1.9	0.56	3.1125	Yes	n/a	-1.34295960739902	n/a	n/a	652.0	TrialHappiness	Mixed
113.675	1.289	n/a	183.209	8.0	1	0.56	1.0	13.7587	955.0	1.2	Outcome2	1.9	0.56	3.1125	Yes	n/a	-1.34295960739902	n/a	n/a	652.0	TrialHappinessSliderResponse	Mixed
117.703	4.45	4.029	186.785	8.0	1	0.56	1.0	13.7587	955.0	1.2	Outcome2	1.9	0.56	3.1125	Yes	n/a	-1.34295960739902	n/a	n/a	n/a	ISIRate	Mixed
122.183	3.0	0.03	191.265	9.0	1	-1.0	-1.0	13.6337	955.0	0.52	Certain	3.1	-5.08	0.0	No	4.0	8.18233295583239	1.787	123.97	n/a	GetAnswer	Mixed
123.989	4.0	0.019	193.071	9.0	1	-1.0	-1.0	13.6337	955.0	0.52	Certain	3.1	-5.08	0.0	No	n/a	8.18233295583239	n/a	n/a	n/a	ShowChoice	Mixed
128.017	1.0	0.028	197.099	9.0	1	-1.0	-1.0	13.6337	955.0	0.52	Certain	3.1	-5.08	0.0	No	n/a	8.18233295583239	n/a	n/a	n/a	ShowResult	Mixed
129.037	2.0	0.02	198.119	9.0	1	-1.0	-1.0	13.6337	955.0	0.52	Certain	3.1	-5.08	0.0	No	n/a	8.18233295583239	n/a	n/a	n/a	ISITrial	Mixed
131.06	3.0	0.023	200.142	10.0	1	2.39	1.2	13.9325	955.0	1.2	Outcome2	3.9	2.39	4.0	Yes	2.0	-1.51113627784069	0.943	132.003	n/a	GetAnswer	Mixed
132.029	4.0	0.026	201.111	10.0	1	2.39	1.2	13.9325	955.0	1.2	Outcome2	3.9	2.39	4.0	Yes	n/a	-1.51113627784069	n/a	n/a	n/a	ShowChoice	Mixed
136.041	1.0	0.012	205.123	10.0	1	2.39	1.2	13.9325	955.0	1.2	Outcome2	3.9	2.39	4.0	Yes	n/a	-1.51113627784069	n/a	n/a	n/a	ShowResult	Mixed
137.061	2.0	0.02	206.143	10.0	1	2.39	1.2	13.9325	955.0	1.2	Outcome2	3.9	2.39	4.0	Yes	n/a	-1.51113627784069	n/a	n/a	n/a	ISITrial	Mixed
139.084	4.0	0.023	208.166	10.0	1	2.39	1.2	13.9325	955.0	1.2	Outcome2	3.9	2.39	4.0	Yes	n/a	-1.51113627784069	n/a	n/a	n/a	TrialHappPreview	Mixed
143.113	4.028	0.029	212.195	10.0	1	2.39	1.2	13.9325	955.0	1.2	Outcome2	3.9	2.39	4.0	Yes	n/a	-1.51113627784069	n/a	n/a	736.0	TrialHappiness	Mixed
143.113	0.607	n/a	213.131	10.0	1	2.39	1.2	13.9325	955.0	1.2	Outcome2	3.9	2.39	4.0	Yes	n/a	-1.51113627784069	n/a	n/a	736.0	TrialHappinessSliderResponse	Mixed
147.141	8.0	4.028	216.223	10.0	1	2.39	1.2	13.9325	955.0	1.2	Outcome2	3.9	2.39	4.0	Yes	n/a	-1.51113627784069	n/a	n/a	n/a	ISIRate	Mixed
155.165	3.0	0.024	224.247	11.0	1	-2.0	-2.0	13.6825	955.0	0.82	Certain	-5.94	1.5	0.0	No	4.0	7.44167610419026	1.405	156.57	n/a	GetAnswer	Mixed
156.586	4.0	0.016	225.668	11.0	1	-2.0	-2.0	13.6825	955.0	0.82	Certain	-5.94	1.5	0.0	No	n/a	7.44167610419026	n/a	n/a	n/a	ShowChoice	Mixed
160.598	1.0	0.012	229.68	11.0	1	-2.0	-2.0	13.6825	955.0	0.82	Certain	-5.94	1.5	0.0	No	n/a	7.44167610419026	n/a	n/a	n/a	ShowResult	Mixed
161.618	3.324	0.02	230.7	11.0	1	-2.0	-2.0	13.6825	955.0	0.82	Certain	-5.94	1.5	0.0	No	n/a	7.44167610419026	n/a	n/a	n/a	ISITrial	Mixed
164.961	3.0	0.019	234.043	12.0	1	12.9	2.6	15.295	955.0	2.0	Outcome1	12.9	5.21	2.61875	Yes	2.0	7.689694224235559	0.877	165.838	n/a	GetAnswer	Loss
165.864	4.0	0.026	234.946	12.0	1	12.9	2.6	15.295	955.0	2.0	Outcome1	12.9	5.21	2.61875	Yes	n/a	7.689694224235559	n/a	n/a	n/a	ShowChoice	Loss
169.893	1.0	0.029	238.975	12.0	1	12.9	2.6	15.295	955.0	2.0	Outcome1	12.9	5.21	2.61875	Yes	n/a	7.689694224235559	n/a	n/a	n/a	ShowResult	Loss
170.913	6.642	0.02	239.995	12.0	1	12.9	2.6	15.295	955.0	2.0	Outcome1	12.9	5.21	2.61875	Yes	n/a	7.689694224235559	n/a	n/a	n/a	ISITrial	Loss
177.583	2.619	0.028	246.665	12.0	1	12.9	2.6	15.295	955.0	2.0	Outcome1	12.9	5.21	2.61875	Yes	n/a	7.689694224235559	n/a	n/a	n/a	TrialHappPreview	Loss
180.224	4.029	0.022	249.306	12.0	1	12.9	2.6	15.295	955.0	2.0	Outcome1	12.9	5.21	2.61875	Yes	n/a	7.689694224235559	n/a	n/a	756.0	TrialHappiness	Loss
180.225	1.511	n/a	249.958	12.0	1	12.9	2.6	15.295	955.0	2.0	Outcome1	12.9	5.21	2.61875	Yes	n/a	7.689694224235559	n/a	n/a	756.0	TrialHappinessSliderResponse	Loss
184.253	2.475	4.029	253.335	12.0	1	12.9	2.6	15.295	955.0	2.0	Outcome1	12.9	5.21	2.61875	Yes	n/a	7.689694224235559	n/a	n/a	n/a	ISIRate	Loss
186.76	3.0	0.032	255.842	13.0	1	12.1	2.25	16.8075	955.0	4.2	Outcome2	4.5	12.1	0.0	No	2.0	7.59796149490374	0.91	187.67	n/a	GetAnswer	Loss
187.696	4.0	0.026	256.778	13.0	1	12.1	2.25	16.8075	955.0	4.2	Outcome2	4.5	12.1	0.0	No	n/a	7.59796149490374	n/a	n/a	n/a	ShowChoice	Loss
191.725	1.0	0.029	260.807	13.0	1	12.1	2.25	16.8075	955.0	4.2	Outcome2	4.5	12.1	0.0	No	n/a	7.59796149490374	n/a	n/a	n/a	ShowResult	Loss
192.745	3.48	0.02	261.827	13.0	1	12.1	2.25	16.8075	955.0	4.2	Outcome2	4.5	12.1	0.0	No	n/a	7.59796149490374	n/a	n/a	n/a	ISITrial	Loss
196.255	3.0	0.03	265.337	14.0	1	3.3	0.0	17.22	955.0	0.66	Outcome2	-4.52	3.3	0.0	No	2.0	7.823329558323901	1.781	198.036	n/a	GetAnswer	Mixed
198.061	4.0	0.024	267.143	14.0	1	3.3	0.0	17.22	955.0	0.66	Outcome2	-4.52	3.3	0.0	No	n/a	7.823329558323901	n/a	n/a	n/a	ShowChoice	Mixed
202.089	1.0	0.028	271.171	14.0	1	3.3	0.0	17.22	955.0	0.66	Outcome2	-4.52	3.3	0.0	No	n/a	7.823329558323901	n/a	n/a	n/a	ShowResult	Mixed
203.109	5.019	0.02	272.191	14.0	1	3.3	0.0	17.22	955.0	0.66	Outcome2	-4.52	3.3	0.0	No	n/a	7.823329558323901	n/a	n/a	n/a	ISITrial	Mixed
208.158	3.0	0.03	277.24	15.0	1	-1.7	-1.0	17.0075	955.0	0.82	Outcome1	-1.7	-0.5	3.3485	Yes	2.0	-1.19658361645904	2.159	210.317	n/a	GetAnswer	Mixed
210.348	4.0	0.031	279.43	15.0	1	-1.7	-1.0	17.0075	955.0	0.82	Outcome1	-1.7	-0.5	3.3485	Yes	n/a	-1.19658361645904	n/a	n/a	n/a	ShowChoice	Mixed
214.376	1.0	0.028	283.458	15.0	1	-1.7	-1.0	17.0075	955.0	0.82	Outcome1	-1.7	-0.5	3.3485	Yes	n/a	-1.19658361645904	n/a	n/a	n/a	ShowResult	Mixed
215.396	7.614	0.02	284.478	15.0	1	-1.7	-1.0	17.0075	955.0	0.82	Outcome1	-1.7	-0.5	3.3485	Yes	n/a	-1.19658361645904	n/a	n/a	n/a	ISITrial	Mixed
223.036	3.348	0.026	292.118	15.0	1	-1.7	-1.0	17.0075	955.0	0.82	Outcome1	-1.7	-0.5	3.3485	Yes	n/a	-1.19658361645904	n/a	n/a	n/a	TrialHappPreview	Mixed
226.412	4.029	0.028	295.494	15.0	1	-1.7	-1.0	17.0075	955.0	0.82	Outcome1	-1.7	-0.5	3.3485	Yes	2{-2}	-1.19658361645904	0.776	227.188	616.0	TrialHappiness	Mixed
226.413	0.364	n/a	295.907	15.0	1	-1.7	-1.0	17.0075	955.0	0.82	Outcome1	-1.7	-0.5	3.3485	Yes	n/a	-1.19658361645904	n/a	n/a	616.0	TrialHappinessSliderResponse	Mixed
230.441	5.394	4.029	299.523	15.0	1	-1.7	-1.0	17.0075	955.0	0.82	Outcome1	-1.7	-0.5	3.3485	Yes	n/a	-1.19658361645904	n/a	n/a	n/a	ISIRate	Mixed
235.857	3.0	0.022	304.939	16.0	1	6.9	1.0	17.87	955.0	2.0	Outcome1	6.9	-3.75	0.0	No	2.0	10.6523216308041	1.313	237.17	n/a	GetAnswer	Gain
237.195	4.0	0.025	306.277	16.0	1	6.9	1.0	17.87	955.0	2.0	Outcome1	6.9	-3.75	0.0	No	n/a	10.6523216308041	n/a	n/a	n/a	ShowChoice	Gain
241.224	1.0	0.029	310.306	16.0	1	6.9	1.0	17.87	955.0	2.0	Outcome1	6.9	-3.75	0.0	No	n/a	10.6523216308041	n/a	n/a	n/a	ShowResult	Gain
242.243	3.008	0.019	311.325	16.0	1	6.9	1.0	17.87	955.0	2.0	Outcome1	6.9	-3.75	0.0	No	n/a	10.6523216308041	n/a	n/a	n/a	ISITrial	Gain
245.286	3.0	0.035	314.368	17.0	1	-2.0	-2.0	17.62	955.0	1.0	Certain	-7.34	3.7	3.0415	Yes	4.0	11.0362400906002	1.643	246.929	n/a	GetAnswer	Mixed
246.957	4.0	0.028	316.039	17.0	1	-2.0	-2.0	17.62	955.0	1.0	Certain	-7.34	3.7	3.0415	Yes	n/a	11.0362400906002	n/a	n/a	n/a	ShowChoice	Mixed
250.986	1.0	0.029	320.068	17.0	1	-2.0	-2.0	17.62	955.0	1.0	Certain	-7.34	3.7	3.0415	Yes	n/a	11.0362400906002	n/a	n/a	n/a	ShowResult	Mixed
252.006	3.566	0.02	321.088	17.0	1	-2.0	-2.0	17.62	955.0	1.0	Certain	-7.34	3.7	3.0415	Yes	n/a	11.0362400906002	n/a	n/a	n/a	ISITrial	Mixed
255.6	3.042	0.028	324.682	17.0	1	-2.0	-2.0	17.62	955.0	1.0	Certain	-7.34	3.7	3.0415	Yes	n/a	11.0362400906002	n/a	n/a	n/a	TrialHappPreview	Mixed
258.676	4.029	0.034	327.758	17.0	1	-2.0	-2.0	17.62	955.0	1.0	Certain	-7.34	3.7	3.0415	Yes	2{-2}2{-2}	11.0362400906002	1.411	260.087	592.0	TrialHappiness	Mixed
258.676	1.028	n/a	328.141	17.0	1	-2.0	-2.0	17.62	955.0	1.0	Certain	-7.34	3.7	3.0415	Yes	n/a	11.0362400906002	n/a	n/a	592.0	TrialHappinessSliderResponse	Mixed
262.705	4.166	4.029	331.787	17.0	1	-2.0	-2.0	17.62	955.0	1.0	Certain	-7.34	3.7	3.0415	Yes	n/a	11.0362400906002	n/a	n/a	n/a	ISIRate	Mixed
266.901	3.0	0.03	335.983	18.0	1	-0.1	-6.0	17.6075	955.0	1.2	Outcome1	-0.1	-11.93	0.0	No	2.0	11.8278595696489	1.909	268.81	n/a	GetAnswer	Mixed
268.84	4.0	0.03	337.922	18.0	1	-0.1	-6.0	17.6075	955.0	1.2	Outcome1	-0.1	-11.93	0.0	No	n/a	11.8278595696489	n/a	n/a	n/a	ShowChoice	Mixed
272.868	1.0	0.028	341.95	18.0	1	-0.1	-6.0	17.6075	955.0	1.2	Outcome1	-0.1	-11.93	0.0	No	n/a	11.8278595696489	n/a	n/a	n/a	ShowResult	Mixed
273.888	6.787	0.02	342.97	18.0	1	-0.1	-6.0	17.6075	955.0	1.2	Outcome1	-0.1	-11.93	0.0	No	n/a	11.8278595696489	n/a	n/a	n/a	ISITrial	Mixed
280.709	3.0	0.034	349.791	19.0	1	-1.0	-1.0	17.4825	955.0	1.0	Certain	-0.3	-2.28	0.0	No	4.0	-1.97914307285768	1.416	282.125	n/a	GetAnswer	Mixed
282.146	4.0	0.021	351.228	19.0	1	-1.0	-1.0	17.4825	955.0	1.0	Certain	-0.3	-2.28	0.0	No	n/a	-1.97914307285768	n/a	n/a	n/a	ShowChoice	Mixed
286.175	1.0	0.029	355.257	19.0	1	-1.0	-1.0	17.4825	955.0	1.0	Certain	-0.3	-2.28	0.0	No	n/a	-1.97914307285768	n/a	n/a	n/a	ShowResult	Mixed
287.195	2.0	0.02	356.277	19.0	1	-1.0	-1.0	17.4825	955.0	1.0	Certain	-0.3	-2.28	0.0	No	n/a	-1.97914307285768	n/a	n/a	n/a	ISITrial	Mixed
289.218	3.0	0.023	358.3	20.0	1	13.9	0.62	19.22	955.0	3.6	Outcome1	13.9	1.25	2.92125	Yes	2.0	12.6500566251416	1.335	290.553	n/a	GetAnswer	Loss
290.572	4.0	0.019	359.654	20.0	1	13.9	0.62	19.22	955.0	3.6	Outcome1	13.9	1.25	2.92125	Yes	n/a	12.6500566251416	n/a	n/a	n/a	ShowChoice	Loss
294.6	1.0	0.028	363.682	20.0	1	13.9	0.62	19.22	955.0	3.6	Outcome1	13.9	1.25	2.92125	Yes	n/a	12.6500566251416	n/a	n/a	n/a	ShowResult	Loss
295.62	8.0	0.02	364.702	20.0	1	13.9	0.62	19.22	955.0	3.6	Outcome1	13.9	1.25	2.92125	Yes	n/a	12.6500566251416	n/a	n/a	n/a	ISITrial	Loss
303.644	2.921	0.024	372.726	20.0	1	13.9	0.62	19.22	955.0	3.6	Outcome1	13.9	1.25	2.92125	Yes	n/a	12.6500566251416	n/a	n/a	n/a	TrialHappPreview	Loss
306.586	4.029	0.021	375.668	20.0	1	13.9	0.62	19.22	955.0	3.6	Outcome1	13.9	1.25	2.92125	Yes	n/a	12.6500566251416	n/a	n/a	744.0	TrialHappiness	Loss
306.587	0.634	n/a	376.228	20.0	1	13.9	0.62	19.22	955.0	3.6	Outcome1	13.9	1.25	2.92125	Yes	n/a	12.6500566251416	n/a	n/a	744.0	TrialHappinessSliderResponse	Loss
310.615	3.685	4.029	379.697	20.0	1	13.9	0.62	19.22	955.0	3.6	Outcome1	13.9	1.25	2.92125	Yes	n/a	12.6500566251416	n/a	n/a	n/a	ISIRate	Loss
314.326	3.0	0.026	383.408	21.0	1	10.3	-0.09	20.5075	955.0	5.0	Outcome2	-0.18	10.3	0.0	No	2.0	10.4790486976217	1.57	315.896	n/a	GetAnswer	Gain
315.914	4.0	0.018	384.996	21.0	1	10.3	-0.09	20.5075	955.0	5.0	Outcome2	-0.18	10.3	0.0	No	n/a	10.4790486976217	n/a	n/a	n/a	ShowChoice	Gain
319.943	1.0	0.029	389.025	21.0	1	10.3	-0.09	20.5075	955.0	5.0	Outcome2	-0.18	10.3	0.0	No	n/a	10.4790486976217	n/a	n/a	n/a	ShowResult	Gain
320.963	3.555	0.02	390.045	21.0	1	10.3	-0.09	20.5075	955.0	5.0	Outcome2	-0.18	10.3	0.0	No	n/a	10.4790486976217	n/a	n/a	n/a	ISITrial	Gain
324.54	3.0	0.022	393.622	22.0	1	10.45	5.22	21.8138	955.0	3.6	Outcome2	11.9	10.45	3.2195	Yes	2.0	-1.4507361268403198	1.145	325.685	n/a	GetAnswer	Loss
325.71	4.0	0.025	394.792	22.0	1	10.45	5.22	21.8138	955.0	3.6	Outcome2	11.9	10.45	3.2195	Yes	n/a	-1.4507361268403198	n/a	n/a	n/a	ShowChoice	Loss
329.739	1.0	0.029	398.821	22.0	1	10.45	5.22	21.8138	955.0	3.6	Outcome2	11.9	10.45	3.2195	Yes	n/a	-1.4507361268403198	n/a	n/a	n/a	ShowResult	Loss
330.759	6.793	0.02	399.841	22.0	1	10.45	5.22	21.8138	955.0	3.6	Outcome2	11.9	10.45	3.2195	Yes	n/a	-1.4507361268403198	n/a	n/a	n/a	ISITrial	Loss
337.579	3.22	0.027	406.661	22.0	1	10.45	5.22	21.8138	955.0	3.6	Outcome2	11.9	10.45	3.2195	Yes	n/a	-1.4507361268403198	n/a	n/a	n/a	TrialHappPreview	Loss
340.822	4.012	0.023	409.904	22.0	1	10.45	5.22	21.8138	955.0	3.6	Outcome2	11.9	10.45	3.2195	Yes	n/a	-1.4507361268403198	n/a	n/a	736.0	TrialHappiness	Loss
340.823	1.439	n/a	410.329	22.0	1	10.45	5.22	21.8138	955.0	3.6	Outcome2	11.9	10.45	3.2195	Yes	n/a	-1.4507361268403198	n/a	n/a	736.0	TrialHappinessSliderResponse	Loss
344.834	4.878	4.012	413.916	22.0	1	10.45	5.22	21.8138	955.0	3.6	Outcome2	11.9	10.45	3.2195	Yes	n/a	-1.4507361268403198	n/a	n/a	n/a	ISIRate	Loss
349.732	3.0	0.02	418.814	23.0	1	2.8	1.4	22.1638	955.0	2.0	Outcome1	2.8	4.3	0.0	No	2.0	-1.50311438278596	0.892	350.624	n/a	GetAnswer	Mixed
350.652	4.0	0.027	419.734	23.0	1	2.8	1.4	22.1638	955.0	2.0	Outcome1	2.8	4.3	0.0	No	n/a	-1.50311438278596	n/a	n/a	n/a	ShowChoice	Mixed
354.664	1.0	0.012	423.746	23.0	1	2.8	1.4	22.1638	955.0	2.0	Outcome1	2.8	4.3	0.0	No	n/a	-1.50311438278596	n/a	n/a	n/a	ShowResult	Mixed
355.684	8.0	0.02	424.766	23.0	1	2.8	1.4	22.1638	955.0	2.0	Outcome1	2.8	4.3	0.0	No	n/a	-1.50311438278596	n/a	n/a	n/a	ISITrial	Mixed
363.708	3.0	0.024	432.79	24.0	1	-1.0	-1.0	22.0388	955.0	1.68	Certain	-6.84	4.5	3.255	Yes	4.0	11.3408833522084	1.897	365.605	n/a	GetAnswer	Gain
365.63	4.0	0.025	434.712	24.0	1	-1.0	-1.0	22.0388	955.0	1.68	Certain	-6.84	4.5	3.255	Yes	n/a	11.3408833522084	n/a	n/a	n/a	ShowChoice	Gain
369.659	1.0	0.029	438.741	24.0	1	-1.0	-1.0	22.0388	955.0	1.68	Certain	-6.84	4.5	3.255	Yes	n/a	11.3408833522084	n/a	n/a	n/a	ShowResult	Gain
370.679	2.0	0.02	439.761	24.0	1	-1.0	-1.0	22.0388	955.0	1.68	Certain	-6.84	4.5	3.255	Yes	n/a	11.3408833522084	n/a	n/a	n/a	ISITrial	Gain
372.701	3.255	0.022	441.783	24.0	1	-1.0	-1.0	22.0388	955.0	1.68	Certain	-6.84	4.5	3.255	Yes	n/a	11.3408833522084	n/a	n/a	n/a	TrialHappPreview	Gain
375.978	4.029	0.022	445.06	24.0	1	-1.0	-1.0	22.0388	955.0	1.68	Certain	-6.84	4.5	3.255	Yes	n/a	11.3408833522084	n/a	n/a	724.0	TrialHappiness	Gain
375.978	1.217	n/a	445.464	24.0	1	-1.0	-1.0	22.0388	955.0	1.68	Certain	-6.84	4.5	3.255	Yes	n/a	11.3408833522084	n/a	n/a	724.0	TrialHappinessSliderResponse	Gain
380.007	5.02	4.029	449.089	24.0	1	-1.0	-1.0	22.0388	955.0	1.68	Certain	-6.84	4.5	3.255	Yes	n/a	11.3408833522084	n/a	n/a	n/a	ISIRate	Gain
385.055	3.0	0.028	454.137	25.0	1	9.5	-1.14	23.2263	955.0	2.8	Outcome1	9.5	-2.29	0.0	No	2.0	11.79275198188	0.988	386.043	n/a	GetAnswer	Gain
386.058	4.0	0.015	455.14	25.0	1	9.5	-1.14	23.2263	955.0	2.8	Outcome1	9.5	-2.29	0.0	No	n/a	11.79275198188	n/a	n/a	n/a	ShowChoice	Gain
390.087	1.0	0.029	459.169	25.0	1	9.5	-1.14	23.2263	955.0	2.8	Outcome1	9.5	-2.29	0.0	No	n/a	11.79275198188	n/a	n/a	n/a	ShowResult	Gain
391.106	3.749	0.019	460.188	25.0	1	9.5	-1.14	23.2263	955.0	2.8	Outcome1	9.5	-2.29	0.0	No	n/a	11.79275198188	n/a	n/a	n/a	ISITrial	Gain
394.884	3.0	0.029	463.966	26.0	1	-0.9	-7.0	23.1138	955.0	0.52	Outcome2	-12.95	-0.9	0.0	No	2.0	12.054360135900302	2.728	397.612	n/a	GetAnswer	Mixed
397.643	4.0	0.031	466.725	26.0	1	-0.9	-7.0	23.1138	955.0	0.52	Outcome2	-12.95	-0.9	0.0	No	n/a	12.054360135900302	n/a	n/a	n/a	ShowChoice	Mixed
401.672	1.0	0.029	470.754	26.0	1	-0.9	-7.0	23.1138	955.0	0.52	Outcome2	-12.95	-0.9	0.0	No	n/a	12.054360135900302	n/a	n/a	n/a	ShowResult	Mixed
402.691	7.834	0.019	471.773	26.0	1	-0.9	-7.0	23.1138	955.0	0.52	Outcome2	-12.95	-0.9	0.0	No	n/a	12.054360135900302	n/a	n/a	n/a	ISITrial	Mixed
410.548	3.0	0.023	479.63	27.0	1	-0.61	-0.61	23.0376	955.0	2.22	Certain	-1.22	11.1	2.54975	Yes	4.0	12.3159682899207	1.68	412.228	n/a	GetAnswer	Loss
412.253	4.0	0.025	481.335	27.0	1	-0.61	-0.61	23.0376	955.0	2.22	Certain	-1.22	11.1	2.54975	Yes	n/a	12.3159682899207	n/a	n/a	n/a	ShowChoice	Loss
416.282	1.0	0.029	485.364	27.0	1	-0.61	-0.61	23.0376	955.0	2.22	Certain	-1.22	11.1	2.54975	Yes	n/a	12.3159682899207	n/a	n/a	n/a	ShowResult	Loss
417.302	4.225	0.02	486.384	27.0	1	-0.61	-0.61	23.0376	955.0	2.22	Certain	-1.22	11.1	2.54975	Yes	n/a	12.3159682899207	n/a	n/a	n/a	ISITrial	Loss
421.548	2.55	0.021	490.63	27.0	1	-0.61	-0.61	23.0376	955.0	2.22	Certain	-1.22	11.1	2.54975	Yes	n/a	12.3159682899207	n/a	n/a	n/a	TrialHappPreview	Loss
424.122	4.029	0.024	493.204	27.0	1	-0.61	-0.61	23.0376	955.0	2.22	Certain	-1.22	11.1	2.54975	Yes	2{-2}	12.3159682899207	0.992	425.114	728.0	TrialHappiness	Loss
424.123	0.599	n/a	493.598	27.0	1	-0.61	-0.61	23.0376	955.0	2.22	Certain	-1.22	11.1	2.54975	Yes	n/a	12.3159682899207	n/a	n/a	728.0	TrialHappinessSliderResponse	Loss
428.151	2.199	4.029	497.233	27.0	1	-0.61	-0.61	23.0376	955.0	2.22	Certain	-1.22	11.1	2.54975	Yes	n/a	12.3159682899207	n/a	n/a	n/a	ISIRate	Loss
457.924	0.593	n/a	528.123	n/a	1	n/a	n/a	n/a	n/a	n/a	n/a	n/a	n/a	n/a	n/a	n/a	n/a	n/a	n/a	728.0	BlockStartHappinessSliderResponse	n/a
-65.63	-0.001	0.024	499.456	n/a	2	n/a	n/a	n/a	n/a	n/a	n/a	n/a	n/a	n/a	n/a	{SPACE}	n/a	23.51	-42.12	n/a	Rest	n/a
-42.092	4.0	0.028	522.994	n/a	2	n/a	n/a	n/a	n/a	n/a	n/a	n/a	n/a	n/a	n/a	n/a	n/a	n/a	n/a	n/a	BlockHappyPreview	n/a
-38.08	1.71	0.012	527.006	n/a	2	n/a	n/a	n/a	n/a	n/a	n/a	n/a	n/a	n/a	n/a	n/a	n/a	n/a	n/a	728.0	BlockStartHappiness	n/a
-12.52	-0.001	0.016	552.566	n/a	2	n/a	n/a	n/a	n/a	n/a	n/a	n/a	n/a	n/a	n/a	5.0	n/a	12.49	-0.03	n/a	ScanWait	n/a
0.0	10.0	0.029	565.086	n/a	2	n/a	n/a	n/a	n/a	n/a	n/a	n/a	n/a	n/a	n/a	n/a	n/a	n/a	n/a	n/a	GetReady	n/a
10.031	3.0	0.031	575.117	28.0	2	-4.0	-4.0	22.5376	70.0	0.4	Certain	0.9	-10.29	0.0	No	4.0	-11.1904761904762	1.395	11.426	n/a	GetAnswer	Mixed
11.452	4.0	0.026	576.538	28.0	2	-4.0	-4.0	22.5376	70.0	0.4	Certain	0.9	-10.29	0.0	No	n/a	-11.1904761904762	n/a	n/a	n/a	ShowChoice	Mixed
15.48	1.0	0.028	580.566	28.0	2	-4.0	-4.0	22.5376	70.0	0.4	Certain	0.9	-10.29	0.0	No	n/a	-11.1904761904762	n/a	n/a	n/a	ShowResult	Mixed
16.5	3.575	0.02	581.586	28.0	2	-4.0	-4.0	22.5376	70.0	0.4	Certain	0.9	-10.29	0.0	No	n/a	-11.1904761904762	n/a	n/a	n/a	ISITrial	Mixed
20.094	3.0	0.019	585.18	29.0	2	-2.0	-2.0	22.2876	70.0	1.5	Certain	-7.84	4.1	3.529	Yes	4.0	-11.9365079365079	1.875	21.969	n/a	GetAnswer	Mixed
22.0	4.0	0.031	587.086	29.0	2	-2.0	-2.0	22.2876	70.0	1.5	Certain	-7.84	4.1	3.529	Yes	n/a	-11.9365079365079	n/a	n/a	n/a	ShowChoice	Mixed
26.029	1.0	0.029	591.115	29.0	2	-2.0	-2.0	22.2876	70.0	1.5	Certain	-7.84	4.1	3.529	Yes	n/a	-11.9365079365079	n/a	n/a	n/a	ShowResult	Mixed
27.048	3.955	0.019	592.134	29.0	2	-2.0	-2.0	22.2876	70.0	1.5	Certain	-7.84	4.1	3.529	Yes	n/a	-11.9365079365079	n/a	n/a	n/a	ISITrial	Mixed
31.027	3.529	0.024	596.113	29.0	2	-2.0	-2.0	22.2876	70.0	1.5	Certain	-7.84	4.1	3.529	Yes	n/a	-11.9365079365079	n/a	n/a	n/a	TrialHappPreview	Mixed
34.588	4.028	0.032	599.674	29.0	2	-2.0	-2.0	22.2876	70.0	1.5	Certain	-7.84	4.1	3.529	Yes	n/a	-11.9365079365079	n/a	n/a	496.0	TrialHappiness	Mixed
34.588	0.186	n/a	600.113	29.0	2	-2.0	-2.0	22.2876	70.0	1.5	Certain	-7.84	4.1	3.529	Yes	n/a	-11.9365079365079	n/a	n/a	496.0	TrialHappinessSliderResponse	Mixed
38.616	6.116	4.028	603.702	29.0	2	-2.0	-2.0	22.2876	70.0	1.5	Certain	-7.84	4.1	3.529	Yes	n/a	-11.9365079365079	n/a	n/a	n/a	ISIRate	Mixed
44.751	3.0	0.019	609.837	30.0	2	-0.18	-1.0	22.2651	70.0	0.66	Outcome1	-0.18	-2.04	0.0	No	2.0	1.85506424792139	2.448	47.199	n/a	GetAnswer	Mixed
47.225	4.0	0.026	612.311	30.0	2	-0.18	-1.0	22.2651	70.0	0.66	Outcome1	-0.18	-2.04	0.0	No	n/a	1.85506424792139	n/a	n/a	n/a	ShowChoice	Mixed
51.254	1.0	0.029	616.34	30.0	2	-0.18	-1.0	22.2651	70.0	0.66	Outcome1	-0.18	-2.04	0.0	No	n/a	1.85506424792139	n/a	n/a	n/a	ShowResult	Mixed
52.274	4.453	0.02	617.36	30.0	2	-0.18	-1.0	22.2651	70.0	0.66	Outcome1	-0.18	-2.04	0.0	No	n/a	1.85506424792139	n/a	n/a	n/a	ISITrial	Mixed
56.754	3.0	0.027	621.84	31.0	2	1.0	1.0	22.3901	70.0	2.8	Certain	-3.72	5.5	2.50325	Yes	4.0	-9.21995464852608	1.137	57.891	n/a	GetAnswer	Gain
57.908	4.0	0.017	622.994	31.0	2	1.0	1.0	22.3901	70.0	2.8	Certain	-3.72	5.5	2.50325	Yes	n/a	-9.21995464852608	n/a	n/a	n/a	ShowChoice	Gain
61.936	1.0	0.028	627.022	31.0	2	1.0	1.0	22.3901	70.0	2.8	Certain	-3.72	5.5	2.50325	Yes	n/a	-9.21995464852608	n/a	n/a	n/a	ShowResult	Gain
62.956	4.786	0.02	628.042	31.0	2	1.0	1.0	22.3901	70.0	2.8	Certain	-3.72	5.5	2.50325	Yes	n/a	-9.21995464852608	n/a	n/a	n/a	ISITrial	Gain
67.77	2.503	0.028	632.856	31.0	2	1.0	1.0	22.3901	70.0	2.8	Certain	-3.72	5.5	2.50325	Yes	n/a	-9.21995464852608	n/a	n/a	n/a	TrialHappPreview	Gain
70.295	4.028	0.022	635.381	31.0	2	1.0	1.0	22.3901	70.0	2.8	Certain	-3.72	5.5	2.50325	Yes	n/a	-9.21995464852608	n/a	n/a	492.0	TrialHappiness	Gain
70.295	0.146	n/a	636.245	31.0	2	1.0	1.0	22.3901	70.0	2.8	Certain	-3.72	5.5	2.50325	Yes	n/a	-9.21995464852608	n/a	n/a	492.0	TrialHappinessSliderResponse	Gain
74.323	2.013	4.028	639.409	31.0	2	1.0	1.0	22.3901	70.0	2.8	Certain	-3.72	5.5	2.50325	Yes	n/a	-9.21995464852608	n/a	n/a	n/a	ISIRate	Gain
76.363	3.0	0.027	641.449	32.0	2	-3.53	1.0	21.9489	70.0	4.2	Outcome2	6.1	-3.53	0.0	No	2.0	-9.634920634920633	1.213	77.576	n/a	GetAnswer	Gain
77.6	4.0	0.024	642.686	32.0	2	-3.53	1.0	21.9489	70.0	4.2	Outcome2	6.1	-3.53	0.0	No	n/a	-9.634920634920633	n/a	n/a	n/a	ShowChoice	Gain
81.629	1.0	0.029	646.715	32.0	2	-3.53	1.0	21.9489	70.0	4.2	Outcome2	6.1	-3.53	0.0	No	n/a	-9.634920634920633	n/a	n/a	n/a	ShowResult	Gain
82.648	2.0	0.019	647.734	32.0	2	-3.53	1.0	21.9489	70.0	4.2	Outcome2	6.1	-3.53	0.0	No	n/a	-9.634920634920633	n/a	n/a	n/a	ISITrial	Gain
84.671	3.0	0.023	649.757	33.0	2	0.0	0.0	21.9489	70.0	0.66	Certain	-1.64	0.32	0.0	No	4.0	1.95918367346939	1.467	86.138	n/a	GetAnswer	Mixed
86.159	4.0	0.021	651.245	33.0	2	0.0	0.0	21.9489	70.0	0.66	Certain	-1.64	0.32	0.0	No	n/a	1.95918367346939	n/a	n/a	n/a	ShowChoice	Mixed
90.188	1.0	0.029	655.274	33.0	2	0.0	0.0	21.9489	70.0	0.66	Certain	-1.64	0.32	0.0	No	n/a	1.95918367346939	n/a	n/a	n/a	ShowResult	Mixed
91.207	5.099	0.019	656.293	33.0	2	0.0	0.0	21.9489	70.0	0.66	Certain	-1.64	0.32	0.0	No	n/a	1.95918367346939	n/a	n/a	n/a	ISITrial	Mixed
96.339	3.0	0.033	661.425	34.0	2	-5.69	0.0	21.2376	70.0	2.0	Outcome2	4.9	-5.69	3.2315	Yes	2.0	-10.5918367346939	1.309	97.648	n/a	GetAnswer	Gain
97.677	4.0	0.029	662.763	34.0	2	-5.69	0.0	21.2376	70.0	2.0	Outcome2	4.9	-5.69	3.2315	Yes	n/a	-10.5918367346939	n/a	n/a	n/a	ShowChoice	Gain
101.706	1.0	0.029	666.792	34.0	2	-5.69	0.0	21.2376	70.0	2.0	Outcome2	4.9	-5.69	3.2315	Yes	n/a	-10.5918367346939	n/a	n/a	n/a	ShowResult	Gain
102.725	4.784	0.019	667.811	34.0	2	-5.69	0.0	21.2376	70.0	2.0	Outcome2	4.9	-5.69	3.2315	Yes	n/a	-10.5918367346939	n/a	n/a	n/a	ISITrial	Gain
107.523	3.232	0.014	672.609	34.0	2	-5.69	0.0	21.2376	70.0	2.0	Outcome2	4.9	-5.69	3.2315	Yes	n/a	-10.5918367346939	n/a	n/a	n/a	TrialHappPreview	Gain
110.783	4.029	0.028	675.869	34.0	2	-5.69	0.0	21.2376	70.0	2.0	Outcome2	4.9	-5.69	3.2315	Yes	n/a	-10.5918367346939	n/a	n/a	376.0	TrialHappiness	Gain
110.783	0.426	n/a	676.284	34.0	2	-5.69	0.0	21.2376	70.0	2.0	Outcome2	4.9	-5.69	3.2315	Yes	n/a	-10.5918367346939	n/a	n/a	376.0	TrialHappinessSliderResponse	Gain
114.812	4.926	4.029	679.898	34.0	2	-5.69	0.0	21.2376	70.0	2.0	Outcome2	4.9	-5.69	3.2315	Yes	n/a	-10.5918367346939	n/a	n/a	n/a	ISIRate	Gain
119.76	3.0	0.022	684.846	35.0	2	-0.8	-0.4	21.1376	70.0	5.0	Outcome1	-0.8	8.3	0.0	No	2.0	-9.09750566893424	1.425	121.185	n/a	GetAnswer	Gain
121.214	4.0	0.029	686.3	35.0	2	-0.8	-0.4	21.1376	70.0	5.0	Outcome1	-0.8	8.3	0.0	No	n/a	-9.09750566893424	n/a	n/a	n/a	ShowChoice	Gain
125.226	1.0	0.012	690.312	35.0	2	-0.8	-0.4	21.1376	70.0	5.0	Outcome1	-0.8	8.3	0.0	No	n/a	-9.09750566893424	n/a	n/a	n/a	ShowResult	Gain
126.246	2.098	0.02	691.332	35.0	2	-0.8	-0.4	21.1376	70.0	5.0	Outcome1	-0.8	8.3	0.0	No	n/a	-9.09750566893424	n/a	n/a	n/a	ISITrial	Gain
128.369	3.0	0.025	693.455	36.0	2	-8.74	-4.0	20.0451	70.0	0.3	Outcome2	0.7	-8.74	3.33575	Yes	2.0	-9.44444444444444	1.748	130.117	n/a	GetAnswer	Mixed
130.141	4.0	0.024	695.227	36.0	2	-8.74	-4.0	20.0451	70.0	0.3	Outcome2	0.7	-8.74	3.33575	Yes	n/a	-9.44444444444444	n/a	n/a	n/a	ShowChoice	Mixed
134.17	1.0	0.029	699.256	36.0	2	-8.74	-4.0	20.0451	70.0	0.3	Outcome2	0.7	-8.74	3.33575	Yes	n/a	-9.44444444444444	n/a	n/a	n/a	ShowResult	Mixed
135.189	5.156	0.019	700.275	36.0	2	-8.74	-4.0	20.0451	70.0	0.3	Outcome2	0.7	-8.74	3.33575	Yes	n/a	-9.44444444444444	n/a	n/a	n/a	ISITrial	Mixed
140.372	3.336	0.027	705.458	36.0	2	-8.74	-4.0	20.0451	70.0	0.3	Outcome2	0.7	-8.74	3.33575	Yes	n/a	-9.44444444444444	n/a	n/a	n/a	TrialHappPreview	Mixed
143.732	4.028	0.024	708.818	36.0	2	-8.74	-4.0	20.0451	70.0	0.3	Outcome2	0.7	-8.74	3.33575	Yes	4{-4}	-9.44444444444444	0.958	144.69	304.0	TrialHappiness	Mixed
143.732	0.58	n/a	709.196	36.0	2	-8.74	-4.0	20.0451	70.0	0.3	Outcome2	0.7	-8.74	3.33575	Yes	n/a	-9.44444444444444	n/a	n/a	304.0	TrialHappinessSliderResponse	Mixed
147.76	5.343	4.028	712.846	36.0	2	-8.74	-4.0	20.0451	70.0	0.3	Outcome2	0.7	-8.74	3.33575	Yes	n/a	-9.44444444444444	n/a	n/a	n/a	ISIRate	Mixed
153.127	3.0	0.024	718.213	37.0	2	1.68	1.0	20.2551	70.0	1.82	Outcome2	0.35	1.68	0.0	No	2.0	1.33295540438398	1.089	154.216	n/a	GetAnswer	Gain
154.23	4.0	0.013	719.316	37.0	2	1.68	1.0	20.2551	70.0	1.82	Outcome2	0.35	1.68	0.0	No	n/a	1.33295540438398	n/a	n/a	n/a	ShowChoice	Gain
158.259	1.0	0.029	723.345	37.0	2	1.68	1.0	20.2551	70.0	1.82	Outcome2	0.35	1.68	0.0	No	n/a	1.33295540438398	n/a	n/a	n/a	ShowResult	Gain
159.278	3.598	0.019	724.364	37.0	2	1.68	1.0	20.2551	70.0	1.82	Outcome2	0.35	1.68	0.0	No	n/a	1.33295540438398	n/a	n/a	n/a	ISITrial	Gain
162.906	3.0	0.03	727.992	38.0	2	-0.73	-0.36	20.1639	70.0	4.2	Outcome2	8.1	-0.73	0.0	No	2.0	-8.83219954648526	1.327	164.233	n/a	GetAnswer	Gain
164.26	4.0	0.027	729.346	38.0	2	-0.73	-0.36	20.1639	70.0	4.2	Outcome2	8.1	-0.73	0.0	No	n/a	-8.83219954648526	n/a	n/a	n/a	ShowChoice	Gain
168.289	1.0	0.029	733.375	38.0	2	-0.73	-0.36	20.1639	70.0	4.2	Outcome2	8.1	-0.73	0.0	No	n/a	-8.83219954648526	n/a	n/a	n/a	ShowResult	Gain
169.308	4.787	0.019	734.394	38.0	2	-0.73	-0.36	20.1639	70.0	4.2	Outcome2	8.1	-0.73	0.0	No	n/a	-8.83219954648526	n/a	n/a	n/a	ISITrial	Gain
174.123	3.0	0.028	739.209	39.0	2	3.6	1.8	20.6139	70.0	1.82	Outcome2	12.7	3.6	2.86425	Yes	2.0	-9.09750566893424	0.899	175.022	n/a	GetAnswer	Loss
175.042	4.0	0.02	740.128	39.0	2	3.6	1.8	20.6139	70.0	1.82	Outcome2	12.7	3.6	2.86425	Yes	n/a	-9.09750566893424	n/a	n/a	n/a	ShowChoice	Loss
179.071	1.0	0.029	744.157	39.0	2	3.6	1.8	20.6139	70.0	1.82	Outcome2	12.7	3.6	2.86425	Yes	n/a	-9.09750566893424	n/a	n/a	n/a	ShowResult	Loss
180.091	2.348	0.02	745.177	39.0	2	3.6	1.8	20.6139	70.0	1.82	Outcome2	12.7	3.6	2.86425	Yes	n/a	-9.09750566893424	n/a	n/a	n/a	ISITrial	Loss
182.465	2.864	0.026	747.551	39.0	2	3.6	1.8	20.6139	70.0	1.82	Outcome2	12.7	3.6	2.86425	Yes	n/a	-9.09750566893424	n/a	n/a	n/a	TrialHappPreview	Loss
185.357	4.028	0.028	750.443	39.0	2	3.6	1.8	20.6139	70.0	1.82	Outcome2	12.7	3.6	2.86425	Yes	n/a	-9.09750566893424	n/a	n/a	360.0	TrialHappiness	Loss
185.357	3.418	n/a	750.81	39.0	2	3.6	1.8	20.6139	70.0	1.82	Outcome2	12.7	3.6	2.86425	Yes	n/a	-9.09750566893424	n/a	n/a	360.0	TrialHappinessSliderResponse	Loss
189.385	3.457	4.028	754.471	39.0	2	3.6	1.8	20.6139	70.0	1.82	Outcome2	12.7	3.6	2.86425	Yes	n/a	-9.09750566893424	n/a	n/a	n/a	ISIRate	Loss
192.862	3.0	0.02	757.948	40.0	2	-3.22	2.0	20.2114	70.0	2.22	Outcome2	7.1	-3.22	0.0	No	2.0	-10.315192743764198	1.099	193.961	n/a	GetAnswer	Gain
193.982	4.0	0.021	759.068	40.0	2	-3.22	2.0	20.2114	70.0	2.22	Outcome2	7.1	-3.22	0.0	No	n/a	-10.315192743764198	n/a	n/a	n/a	ShowChoice	Gain
197.994	1.0	0.012	763.08	40.0	2	-3.22	2.0	20.2114	70.0	2.22	Outcome2	7.1	-3.22	0.0	No	n/a	-10.315192743764198	n/a	n/a	n/a	ShowResult	Gain
199.014	3.158	0.02	764.1	40.0	2	-3.22	2.0	20.2114	70.0	2.22	Outcome2	7.1	-3.22	0.0	No	n/a	-10.315192743764198	n/a	n/a	n/a	ISITrial	Gain
202.207	3.0	0.035	767.293	41.0	2	2.17	1.0	20.4826	70.0	1.82	Outcome2	0.52	2.17	4.0	Yes	2.0	1.65419501133787	1.122	203.329	n/a	GetAnswer	Gain
203.344	4.0	0.015	768.43	41.0	2	2.17	1.0	20.4826	70.0	1.82	Outcome2	0.52	2.17	4.0	Yes	n/a	1.65419501133787	n/a	n/a	n/a	ShowChoice	Gain
207.373	1.0	0.029	772.459	41.0	2	2.17	1.0	20.4826	70.0	1.82	Outcome2	0.52	2.17	4.0	Yes	n/a	1.65419501133787	n/a	n/a	n/a	ShowResult	Gain
208.392	4.506	0.019	773.478	41.0	2	2.17	1.0	20.4826	70.0	1.82	Outcome2	0.52	2.17	4.0	Yes	n/a	1.65419501133787	n/a	n/a	n/a	ISITrial	Gain
212.923	4.0	0.025	778.009	41.0	2	2.17	1.0	20.4826	70.0	1.82	Outcome2	0.52	2.17	4.0	Yes	n/a	1.65419501133787	n/a	n/a	n/a	TrialHappPreview	Gain
216.951	4.029	0.028	782.037	41.0	2	2.17	1.0	20.4826	70.0	1.82	Outcome2	0.52	2.17	4.0	Yes	n/a	1.65419501133787	n/a	n/a	208.0	TrialHappiness	Gain
216.952	1.297	n/a	782.436	41.0	2	2.17	1.0	20.4826	70.0	1.82	Outcome2	0.52	2.17	4.0	Yes	n/a	1.65419501133787	n/a	n/a	208.0	TrialHappinessSliderResponse	Gain
220.98	8.0	4.029	786.066	41.0	2	2.17	1.0	20.4826	70.0	1.82	Outcome2	0.52	2.17	4.0	Yes	n/a	1.65419501133787	n/a	n/a	n/a	ISIRate	Gain
229.004	3.0	0.024	794.09	42.0	2	-5.0	-5.0	19.8576	70.0	0.3	Certain	-1.3	-9.69	0.0	No	4.0	-8.38775510204082	1.574	230.578	n/a	GetAnswer	Mixed
230.592	4.0	0.014	795.678	42.0	2	-5.0	-5.0	19.8576	70.0	0.3	Certain	-1.3	-9.69	0.0	No	n/a	-8.38775510204082	n/a	n/a	n/a	ShowChoice	Mixed
234.621	1.0	0.029	799.707	42.0	2	-5.0	-5.0	19.8576	70.0	0.3	Certain	-1.3	-9.69	0.0	No	n/a	-8.38775510204082	n/a	n/a	n/a	ShowResult	Mixed
235.641	6.248	0.02	800.727	42.0	2	-5.0	-5.0	19.8576	70.0	0.3	Certain	-1.3	-9.69	0.0	No	n/a	-8.38775510204082	n/a	n/a	n/a	ISITrial	Mixed
241.91	3.0	0.021	806.996	43.0	2	-3.84	0.0	19.3776	70.0	1.82	Outcome1	-3.84	4.7	2.77575	Yes	2.0	-8.54421768707483	1.519	243.429	n/a	GetAnswer	Gain
243.447	4.0	0.018	808.533	43.0	2	-3.84	0.0	19.3776	70.0	1.82	Outcome1	-3.84	4.7	2.77575	Yes	n/a	-8.54421768707483	n/a	n/a	n/a	ShowChoice	Gain
247.459	1.0	0.012	812.545	43.0	2	-3.84	0.0	19.3776	70.0	1.82	Outcome1	-3.84	4.7	2.77575	Yes	n/a	-8.54421768707483	n/a	n/a	n/a	ShowResult	Gain
248.479	4.596	0.02	813.565	43.0	2	-3.84	0.0	19.3776	70.0	1.82	Outcome1	-3.84	4.7	2.77575	Yes	n/a	-8.54421768707483	n/a	n/a	n/a	ISITrial	Gain
253.093	2.776	0.018	818.179	43.0	2	-3.84	0.0	19.3776	70.0	1.82	Outcome1	-3.84	4.7	2.77575	Yes	n/a	-8.54421768707483	n/a	n/a	n/a	TrialHappPreview	Gain
255.901	4.029	0.032	820.987	43.0	2	-3.84	0.0	19.3776	70.0	1.82	Outcome1	-3.84	4.7	2.77575	Yes	n/a	-8.54421768707483	n/a	n/a	136.0	TrialHappiness	Gain
255.902	0.925	n/a	821.373	43.0	2	-3.84	0.0	19.3776	70.0	1.82	Outcome1	-3.84	4.7	2.77575	Yes	n/a	-8.54421768707483	n/a	n/a	136.0	TrialHappinessSliderResponse	Gain
259.93	3.103	4.029	825.016	43.0	2	-3.84	0.0	19.3776	70.0	1.82	Outcome1	-3.84	4.7	2.77575	Yes	n/a	-8.54421768707483	n/a	n/a	n/a	ISIRate	Gain
263.056	3.0	0.023	828.142	44.0	2	5.62	2.81	20.0801	70.0	2.22	Outcome2	13.1	5.62	0.0	No	2.0	-7.47619047619048	0.943	263.999	n/a	GetAnswer	Loss
264.026	4.0	0.027	829.112	44.0	2	5.62	2.81	20.0801	70.0	2.22	Outcome2	13.1	5.62	0.0	No	n/a	-7.47619047619048	n/a	n/a	n/a	ShowChoice	Loss
268.055	1.0	0.029	833.141	44.0	2	5.62	2.81	20.0801	70.0	2.22	Outcome2	13.1	5.62	0.0	No	n/a	-7.47619047619048	n/a	n/a	n/a	ShowResult	Loss
269.074	2.42	0.019	834.16	44.0	2	5.62	2.81	20.0801	70.0	2.22	Outcome2	13.1	5.62	0.0	No	n/a	-7.47619047619048	n/a	n/a	n/a	ISITrial	Loss
271.515	3.0	0.021	836.601	45.0	2	1.27	1.0	20.2389	70.0	2.22	Outcome2	0.47	1.27	0.0	No	2.0	0.803854875283447	1.191	272.706	n/a	GetAnswer	Gain
272.735	4.0	0.029	837.821	45.0	2	1.27	1.0	20.2389	70.0	2.22	Outcome2	0.47	1.27	0.0	No	n/a	0.803854875283447	n/a	n/a	n/a	ShowChoice	Gain
276.764	1.0	0.029	841.85	45.0	2	1.27	1.0	20.2389	70.0	2.22	Outcome2	0.47	1.27	0.0	No	n/a	0.803854875283447	n/a	n/a	n/a	ShowResult	Gain
277.784	3.144	0.02	842.87	45.0	2	1.27	1.0	20.2389	70.0	2.22	Outcome2	0.47	1.27	0.0	No	n/a	0.803854875283447	n/a	n/a	n/a	ISITrial	Gain
280.96	3.0	0.032	846.046	46.0	2	6.07	3.04	20.9977	70.0	3.16	Outcome1	6.07	13.7	3.84125	Yes	2.0	-7.62585034013605	0.79	281.75	n/a	GetAnswer	Loss
281.779	4.0	0.029	846.865	46.0	2	6.07	3.04	20.9977	70.0	3.16	Outcome1	6.07	13.7	3.84125	Yes	n/a	-7.62585034013605	n/a	n/a	n/a	ShowChoice	Loss
285.791	1.0	0.012	850.877	46.0	2	6.07	3.04	20.9977	70.0	3.16	Outcome1	6.07	13.7	3.84125	Yes	n/a	-7.62585034013605	n/a	n/a	n/a	ShowResult	Loss
286.811	2.246	0.02	851.897	46.0	2	6.07	3.04	20.9977	70.0	3.16	Outcome1	6.07	13.7	3.84125	Yes	n/a	-7.62585034013605	n/a	n/a	n/a	ISITrial	Loss
289.084	3.841	0.027	854.17	46.0	2	6.07	3.04	20.9977	70.0	3.16	Outcome1	6.07	13.7	3.84125	Yes	n/a	-7.62585034013605	n/a	n/a	n/a	TrialHappPreview	Loss
292.946	4.029	0.021	858.032	46.0	2	6.07	3.04	20.9977	70.0	3.16	Outcome1	6.07	13.7	3.84125	Yes	n/a	-7.62585034013605	n/a	n/a	384.0	TrialHappiness	Loss
292.947	0.405	n/a	858.654	46.0	2	6.07	3.04	20.9977	70.0	3.16	Outcome1	6.07	13.7	3.84125	Yes	n/a	-7.62585034013605	n/a	n/a	384.0	TrialHappinessSliderResponse	Loss
296.975	7.365	4.029	862.061	46.0	2	6.07	3.04	20.9977	70.0	3.16	Outcome1	6.07	13.7	3.84125	Yes	n/a	-7.62585034013605	n/a	n/a	n/a	ISIRate	Loss
304.364	3.0	0.024	869.45	47.0	2	-11.62	-5.0	19.5452	70.0	2.0	Outcome1	-11.62	0.3	0.0	No	2.0	-11.9183673469388	1.93	306.294	n/a	GetAnswer	Mixed
306.319	4.0	0.025	871.405	47.0	2	-11.62	-5.0	19.5452	70.0	2.0	Outcome1	-11.62	0.3	0.0	No	n/a	-11.9183673469388	n/a	n/a	n/a	ShowChoice	Mixed
310.331	1.0	0.012	875.417	47.0	2	-11.62	-5.0	19.5452	70.0	2.0	Outcome1	-11.62	0.3	0.0	No	n/a	-11.9183673469388	n/a	n/a	n/a	ShowResult	Mixed
311.351	2.0	0.02	876.437	47.0	2	-11.62	-5.0	19.5452	70.0	2.0	Outcome1	-11.62	0.3	0.0	No	n/a	-11.9183673469388	n/a	n/a	n/a	ISITrial	Mixed
313.374	3.0	0.023	878.46	48.0	2	1.0	1.0	19.6702	70.0	2.48	Certain	-4.97	7.3	2.83175	Yes	4.0	-12.2743764172336	1.555	314.929	n/a	GetAnswer	Gain
314.945	4.0	0.016	880.031	48.0	2	1.0	1.0	19.6702	70.0	2.48	Certain	-4.97	7.3	2.83175	Yes	n/a	-12.2743764172336	n/a	n/a	n/a	ShowChoice	Gain
318.974	1.0	0.029	884.06	48.0	2	1.0	1.0	19.6702	70.0	2.48	Certain	-4.97	7.3	2.83175	Yes	n/a	-12.2743764172336	n/a	n/a	n/a	ShowResult	Gain
319.994	3.692	0.02	885.08	48.0	2	1.0	1.0	19.6702	70.0	2.48	Certain	-4.97	7.3	2.83175	Yes	n/a	-12.2743764172336	n/a	n/a	n/a	ISITrial	Gain
323.705	2.832	0.019	888.791	48.0	2	1.0	1.0	19.6702	70.0	2.48	Certain	-4.97	7.3	2.83175	Yes	n/a	-12.2743764172336	n/a	n/a	n/a	TrialHappPreview	Gain
326.563	4.012	0.026	891.649	48.0	2	1.0	1.0	19.6702	70.0	2.48	Certain	-4.97	7.3	2.83175	Yes	n/a	-12.2743764172336	n/a	n/a	296.0	TrialHappiness	Gain
326.564	0.595	n/a	892.048	48.0	2	1.0	1.0	19.6702	70.0	2.48	Certain	-4.97	7.3	2.83175	Yes	n/a	-12.2743764172336	n/a	n/a	296.0	TrialHappinessSliderResponse	Gain
330.575	3.327	4.012	895.661	48.0	2	1.0	1.0	19.6702	70.0	2.48	Certain	-4.97	7.3	2.83175	Yes	n/a	-12.2743764172336	n/a	n/a	n/a	ISIRate	Gain
333.936	3.0	0.034	899.022	49.0	2	-1.83	-0.92	19.4414	70.0	2.48	Outcome1	-1.83	9.3	0.0	No	2.0	-11.1337868480726	1.179	335.115	n/a	GetAnswer	Gain
335.139	4.0	0.024	900.225	49.0	2	-1.83	-0.92	19.4414	70.0	2.48	Outcome1	-1.83	9.3	0.0	No	n/a	-11.1337868480726	n/a	n/a	n/a	ShowChoice	Gain
339.168	1.0	0.029	904.254	49.0	2	-1.83	-0.92	19.4414	70.0	2.48	Outcome1	-1.83	9.3	0.0	No	n/a	-11.1337868480726	n/a	n/a	n/a	ShowResult	Gain
340.188	8.0	0.02	905.274	49.0	2	-1.83	-0.92	19.4414	70.0	2.48	Outcome1	-1.83	9.3	0.0	No	n/a	-11.1337868480726	n/a	n/a	n/a	ISITrial	Gain
348.212	3.0	0.024	913.298	50.0	2	-11.29	-5.0	18.0301	70.0	1.5	Outcome2	0.1	-11.29	3.54725	Yes	2.0	-11.390022675737	1.604	349.816	n/a	GetAnswer	Mixed
349.833	4.0	0.017	914.919	50.0	2	-11.29	-5.0	18.0301	70.0	1.5	Outcome2	0.1	-11.29	3.54725	Yes	n/a	-11.390022675737	n/a	n/a	n/a	ShowChoice	Mixed
353.862	1.0	0.029	918.948	50.0	2	-11.29	-5.0	18.0301	70.0	1.5	Outcome2	0.1	-11.29	3.54725	Yes	n/a	-11.390022675737	n/a	n/a	n/a	ShowResult	Mixed
354.882	7.537	0.02	919.968	50.0	2	-11.29	-5.0	18.0301	70.0	1.5	Outcome2	0.1	-11.29	3.54725	Yes	n/a	-11.390022675737	n/a	n/a	n/a	ISITrial	Mixed
362.438	3.547	0.019	927.524	50.0	2	-11.29	-5.0	18.0301	70.0	1.5	Outcome2	0.1	-11.29	3.54725	Yes	n/a	-11.390022675737	n/a	n/a	n/a	TrialHappPreview	Mixed
366.015	4.029	0.03	931.101	50.0	2	-11.29	-5.0	18.0301	70.0	1.5	Outcome2	0.1	-11.29	3.54725	Yes	n/a	-11.390022675737	n/a	n/a	152.0	TrialHappiness	Mixed
366.016	2.576	n/a	931.176	50.0	2	-11.29	-5.0	18.0301	70.0	1.5	Outcome2	0.1	-11.29	3.54725	Yes	n/a	-11.390022675737	n/a	n/a	152.0	TrialHappinessSliderResponse	Mixed
370.044	6.189	4.029	935.13	50.0	2	-11.29	-5.0	18.0301	70.0	1.5	Outcome2	0.1	-11.29	3.54725	Yes	n/a	-11.390022675737	n/a	n/a	n/a	ISIRate	Mixed
376.263	3.0	0.03	941.349	51.0	2	3.3	1.65	18.4426	70.0	1.68	Outcome2	12.5	3.3	0.0	No	2.0	-9.19727891156463	1.111	377.374	n/a	GetAnswer	Loss
377.399	4.0	0.025	942.485	51.0	2	3.3	1.65	18.4426	70.0	1.68	Outcome2	12.5	3.3	0.0	No	n/a	-9.19727891156463	n/a	n/a	n/a	ShowChoice	Loss
381.411	1.0	0.012	946.497	51.0	2	3.3	1.65	18.4426	70.0	1.68	Outcome2	12.5	3.3	0.0	No	n/a	-9.19727891156463	n/a	n/a	n/a	ShowResult	Loss
382.431	5.508	0.02	947.517	51.0	2	3.3	1.65	18.4426	70.0	1.68	Outcome2	12.5	3.3	0.0	No	n/a	-9.19727891156463	n/a	n/a	n/a	ISITrial	Loss
387.964	3.0	0.025	953.05	52.0	2	-2.0	-2.0	18.1926	70.0	0.3	Certain	-6.59	2.7	0.0	No	4.0	-9.29024943310658	2.055	390.019	n/a	GetAnswer	Mixed
390.037	4.0	0.018	955.123	52.0	2	-2.0	-2.0	18.1926	70.0	0.3	Certain	-6.59	2.7	0.0	No	n/a	-9.29024943310658	n/a	n/a	n/a	ShowChoice	Mixed
394.066	1.0	0.029	959.152	52.0	2	-2.0	-2.0	18.1926	70.0	0.3	Certain	-6.59	2.7	0.0	No	n/a	-9.29024943310658	n/a	n/a	n/a	ShowResult	Mixed
395.086	5.913	0.02	960.172	52.0	2	-2.0	-2.0	18.1926	70.0	0.3	Certain	-6.59	2.7	0.0	No	n/a	-9.29024943310658	n/a	n/a	n/a	ISITrial	Mixed
401.02	3.0	0.021	966.106	53.0	2	1.92	0.96	18.4326	70.0	2.48	Outcome1	1.92	11.3	2.99675	Yes	2.0	-9.38321995464853	0.941	401.961	n/a	GetAnswer	Loss
401.99	4.0	0.029	967.076	53.0	2	1.92	0.96	18.4326	70.0	2.48	Outcome1	1.92	11.3	2.99675	Yes	n/a	-9.38321995464853	n/a	n/a	n/a	ShowChoice	Loss
406.018	1.0	0.028	971.104	53.0	2	1.92	0.96	18.4326	70.0	2.48	Outcome1	1.92	11.3	2.99675	Yes	n/a	-9.38321995464853	n/a	n/a	n/a	ShowResult	Loss
407.038	3.66	0.02	972.124	53.0	2	1.92	0.96	18.4326	70.0	2.48	Outcome1	1.92	11.3	2.99675	Yes	n/a	-9.38321995464853	n/a	n/a	n/a	ISITrial	Loss
410.716	2.997	0.018	975.802	53.0	2	1.92	0.96	18.4326	70.0	2.48	Outcome1	1.92	11.3	2.99675	Yes	n/a	-9.38321995464853	n/a	n/a	n/a	TrialHappPreview	Loss
413.742	4.028	0.029	978.828	53.0	2	1.92	0.96	18.4326	70.0	2.48	Outcome1	1.92	11.3	2.99675	Yes	n/a	-9.38321995464853	n/a	n/a	248.0	TrialHappiness	Loss
413.742	0.693	n/a	979.227	53.0	2	1.92	0.96	18.4326	70.0	2.48	Outcome1	1.92	11.3	2.99675	Yes	n/a	-9.38321995464853	n/a	n/a	248.0	TrialHappinessSliderResponse	Loss
417.77	3.987	4.028	982.856	53.0	2	1.92	0.96	18.4326	70.0	2.48	Outcome1	1.92	11.3	2.99675	Yes	n/a	-9.38321995464853	n/a	n/a	n/a	ISIRate	Loss
421.782	3.0	0.025	986.868	54.0	2	-4.61	1.0	17.8564	70.0	1.68	Outcome2	6.5	-4.61	0.0	No	2.0	-11.108843537415	0.911	422.693	n/a	GetAnswer	Gain
422.719	4.0	0.026	987.805	54.0	2	-4.61	1.0	17.8564	70.0	1.68	Outcome2	6.5	-4.61	0.0	No	n/a	-11.108843537415	n/a	n/a	n/a	ShowChoice	Gain
426.747	1.0	0.028	991.833	54.0	2	-4.61	1.0	17.8564	70.0	1.68	Outcome2	6.5	-4.61	0.0	No	n/a	-11.108843537415	n/a	n/a	n/a	ShowResult	Gain
427.767	8.0	0.02	992.853	54.0	2	-4.61	1.0	17.8564	70.0	1.68	Outcome2	6.5	-4.61	0.0	No	n/a	-11.108843537415	n/a	n/a	n/a	ISITrial	Gain
494.217	1.155	n/a	1060.379	n/a	2	n/a	n/a	n/a	n/a	n/a	n/a	n/a	n/a	n/a	n/a	n/a	n/a	n/a	n/a	280.0	BlockStartHappinessSliderResponse	n/a
-80.542	-0.001	0.024	1000.877	n/a	3	n/a	n/a	n/a	n/a	n/a	n/a	n/a	n/a	n/a	n/a	{SPACE}	n/a	54.386	-26.156	n/a	Rest	n/a
-26.129	4.0	0.027	1055.29	n/a	3	n/a	n/a	n/a	n/a	n/a	n/a	n/a	n/a	n/a	n/a	n/a	n/a	n/a	n/a	n/a	BlockHappyPreview	n/a
-22.117	2.231	0.012	1059.302	n/a	3	n/a	n/a	n/a	n/a	n/a	n/a	n/a	n/a	n/a	n/a	n/a	n/a	n/a	n/a	280.0	BlockStartHappiness	n/a
-5.166	-0.001	0.014	1076.253	n/a	3	n/a	n/a	n/a	n/a	n/a	n/a	n/a	n/a	n/a	n/a	5.0	n/a	5.15	-0.016	n/a	ScanWait	n/a
0.0	10.0	0.016	1081.419	n/a	3	n/a	n/a	n/a	n/a	n/a	n/a	n/a	n/a	n/a	n/a	n/a	n/a	n/a	n/a	n/a	GetReady	n/a
10.03	3.0	0.03	1091.449	55.0	3	10.5	-0.48	19.1689	955.0	1.68	Outcome2	-0.97	10.5	2.53325	Yes	2.0	11.4665911664779	1.295	11.325	n/a	GetAnswer	Loss
11.35	4.0	0.025	1092.769	55.0	3	10.5	-0.48	19.1689	955.0	1.68	Outcome2	-0.97	10.5	2.53325	Yes	n/a	11.4665911664779	n/a	n/a	n/a	ShowChoice	Loss
15.379	1.0	0.029	1096.798	55.0	3	10.5	-0.48	19.1689	955.0	1.68	Outcome2	-0.97	10.5	2.53325	Yes	n/a	11.4665911664779	n/a	n/a	n/a	ShowResult	Loss
16.399	7.709	0.02	1097.818	55.0	3	10.5	-0.48	19.1689	955.0	1.68	Outcome2	-0.97	10.5	2.53325	Yes	n/a	11.4665911664779	n/a	n/a	n/a	ISITrial	Loss
24.122	2.533	0.014	1105.541	55.0	3	10.5	-0.48	19.1689	955.0	1.68	Outcome2	-0.97	10.5	2.53325	Yes	n/a	11.4665911664779	n/a	n/a	n/a	TrialHappPreview	Loss
26.68	4.029	0.025	1108.099	55.0	3	10.5	-0.48	19.1689	955.0	1.68	Outcome2	-0.97	10.5	2.53325	Yes	n/a	11.4665911664779	n/a	n/a	512.0	TrialHappiness	Loss
26.68	0.0	n/a	1108.099	55.0	3	10.5	-0.48	19.1689	955.0	1.68	Outcome2	-0.97	10.5	2.53325	Yes	n/a	11.4665911664779	n/a	n/a	512.0	TrialHappinessSliderResponse	Loss
30.709	2.133	4.029	1112.128	55.0	3	10.5	-0.48	19.1689	955.0	1.68	Outcome2	-0.97	10.5	2.53325	Yes	n/a	11.4665911664779	n/a	n/a	n/a	ISIRate	Loss
32.865	3.0	0.023	1114.284	56.0	3	5.84	2.92	19.8989	955.0	3.16	Outcome1	5.84	7.7	0.0	No	2.0	-1.86145715364288	1.004	33.869	n/a	GetAnswer	Gain
33.885	4.0	0.016	1115.304	56.0	3	5.84	2.92	19.8989	955.0	3.16	Outcome1	5.84	7.7	0.0	No	n/a	-1.86145715364288	n/a	n/a	n/a	ShowChoice	Gain
37.913	1.0	0.028	1119.332	56.0	3	5.84	2.92	19.8989	955.0	3.16	Outcome1	5.84	7.7	0.0	No	n/a	-1.86145715364288	n/a	n/a	n/a	ShowResult	Gain
38.933	4.697	0.02	1120.352	56.0	3	5.84	2.92	19.8989	955.0	3.16	Outcome1	5.84	7.7	0.0	No	n/a	-1.86145715364288	n/a	n/a	n/a	ISITrial	Gain
43.664	3.0	0.034	1125.083	57.0	3	2.1	-2.0	20.1614	955.0	1.5	Outcome2	-6.69	2.1	0.0	No	2.0	8.7916194790487	1.535	45.199	n/a	GetAnswer	Mixed
45.219	4.0	0.02	1126.638	57.0	3	2.1	-2.0	20.1614	955.0	1.5	Outcome2	-6.69	2.1	0.0	No	n/a	8.7916194790487	n/a	n/a	n/a	ShowChoice	Mixed
49.247	1.0	0.028	1130.666	57.0	3	2.1	-2.0	20.1614	955.0	1.5	Outcome2	-6.69	2.1	0.0	No	n/a	8.7916194790487	n/a	n/a	n/a	ShowResult	Mixed
50.267	4.291	0.02	1131.686	57.0	3	2.1	-2.0	20.1614	955.0	1.5	Outcome2	-6.69	2.1	0.0	No	n/a	8.7916194790487	n/a	n/a	n/a	ISITrial	Mixed
54.58	3.0	0.022	1135.999	58.0	3	7.5	-0.9	21.0989	955.0	2.8	Outcome1	7.5	-1.79	3.04575	Yes	2.0	9.29331823329558	1.043	55.623	n/a	GetAnswer	Gain
55.65	4.0	0.027	1137.069	58.0	3	7.5	-0.9	21.0989	955.0	2.8	Outcome1	7.5	-1.79	3.04575	Yes	n/a	9.29331823329558	n/a	n/a	n/a	ShowChoice	Gain
59.662	1.0	0.012	1141.081	58.0	3	7.5	-0.9	21.0989	955.0	2.8	Outcome1	7.5	-1.79	3.04575	Yes	n/a	9.29331823329558	n/a	n/a	n/a	ShowResult	Gain
60.682	2.037	0.02	1142.101	58.0	3	7.5	-0.9	21.0989	955.0	2.8	Outcome1	7.5	-1.79	3.04575	Yes	n/a	9.29331823329558	n/a	n/a	n/a	ISITrial	Gain
62.738	3.046	0.019	1144.157	58.0	3	7.5	-0.9	21.0989	955.0	2.8	Outcome1	7.5	-1.79	3.04575	Yes	n/a	9.29331823329558	n/a	n/a	n/a	TrialHappPreview	Gain
65.814	4.012	0.03	1147.233	58.0	3	7.5	-0.9	21.0989	955.0	2.8	Outcome1	7.5	-1.79	3.04575	Yes	n/a	9.29331823329558	n/a	n/a	544.0	TrialHappiness	Gain
65.814	0.733	n/a	1148.747	58.0	3	7.5	-0.9	21.0989	955.0	2.8	Outcome1	7.5	-1.79	3.04575	Yes	n/a	9.29331823329558	n/a	n/a	544.0	TrialHappinessSliderResponse	Gain
69.826	4.183	4.012	1151.245	58.0	3	7.5	-0.9	21.0989	955.0	2.8	Outcome1	7.5	-1.79	3.04575	Yes	n/a	9.29331823329558	n/a	n/a	n/a	ISIRate	Gain
74.038	3.0	0.029	1155.457	59.0	3	2.3	-2.0	21.3864	955.0	2.0	Outcome1	2.3	-6.95	0.0	No	2.0	9.25141562853907	1.028	75.066	n/a	GetAnswer	Mixed
75.092	4.0	0.026	1156.511	59.0	3	2.3	-2.0	21.3864	955.0	2.0	Outcome1	2.3	-6.95	0.0	No	n/a	9.25141562853907	n/a	n/a	n/a	ShowChoice	Mixed
79.104	1.0	0.012	1160.523	59.0	3	2.3	-2.0	21.3864	955.0	2.0	Outcome1	2.3	-6.95	0.0	No	n/a	9.25141562853907	n/a	n/a	n/a	ShowResult	Mixed
80.123	5.064	0.019	1161.542	59.0	3	2.3	-2.0	21.3864	955.0	2.0	Outcome1	2.3	-6.95	0.0	No	n/a	9.25141562853907	n/a	n/a	n/a	ISITrial	Mixed
85.205	3.0	0.018	1166.624	60.0	3	3.5	-1.0	21.8239	955.0	0.82	Outcome1	3.5	-6.22	3.5625	Yes	2.0	9.71687429218573	1.33	86.535	n/a	GetAnswer	Mixed
86.559	4.0	0.024	1167.978	60.0	3	3.5	-1.0	21.8239	955.0	0.82	Outcome1	3.5	-6.22	3.5625	Yes	n/a	9.71687429218573	n/a	n/a	n/a	ShowChoice	Mixed
90.571	1.0	0.012	1171.99	60.0	3	3.5	-1.0	21.8239	955.0	0.82	Outcome1	3.5	-6.22	3.5625	Yes	n/a	9.71687429218573	n/a	n/a	n/a	ShowResult	Mixed
91.591	8.0	0.02	1173.01	60.0	3	3.5	-1.0	21.8239	955.0	0.82	Outcome1	3.5	-6.22	3.5625	Yes	n/a	9.71687429218573	n/a	n/a	n/a	ISITrial	Mixed
99.615	3.562	0.024	1181.034	60.0	3	3.5	-1.0	21.8239	955.0	0.82	Outcome1	3.5	-6.22	3.5625	Yes	n/a	9.71687429218573	n/a	n/a	n/a	TrialHappPreview	Mixed
103.193	4.012	0.016	1184.612	60.0	3	3.5	-1.0	21.8239	955.0	0.82	Outcome1	3.5	-6.22	3.5625	Yes	n/a	9.71687429218573	n/a	n/a	592.0	TrialHappiness	Mixed
103.193	0.972	n/a	1185.268	60.0	3	3.5	-1.0	21.8239	955.0	0.82	Outcome1	3.5	-6.22	3.5625	Yes	n/a	9.71687429218573	n/a	n/a	592.0	TrialHappinessSliderResponse	Mixed
107.205	6.25	4.012	1188.624	60.0	3	3.5	-1.0	21.8239	955.0	0.82	Outcome1	3.5	-6.22	3.5625	Yes	n/a	9.71687429218573	n/a	n/a	n/a	ISIRate	Mixed
113.473	3.0	0.018	1194.892	61.0	3	5.9	1.0	22.5614	955.0	3.6	Outcome2	-3.47	5.9	0.0	No	2.0	9.3669309173273	1.598	115.071	n/a	GetAnswer	Gain
115.095	4.0	0.024	1196.514	61.0	3	5.9	1.0	22.5614	955.0	3.6	Outcome2	-3.47	5.9	0.0	No	n/a	9.3669309173273	n/a	n/a	n/a	ShowChoice	Gain
119.107	1.0	0.012	1200.526	61.0	3	5.9	1.0	22.5614	955.0	3.6	Outcome2	-3.47	5.9	0.0	No	n/a	9.3669309173273	n/a	n/a	n/a	ShowResult	Gain
120.127	4.586	0.02	1201.546	61.0	3	5.9	1.0	22.5614	955.0	3.6	Outcome2	-3.47	5.9	0.0	No	n/a	9.3669309173273	n/a	n/a	n/a	ISITrial	Gain
124.741	3.0	0.028	1206.16	62.0	3	0.0	0.0	22.5614	955.0	2.48	Certain	5.3	-4.48	3.74875	Yes	4.0	9.77802944507361	1.71	126.451	n/a	GetAnswer	Gain
126.462	4.0	0.011	1207.881	62.0	3	0.0	0.0	22.5614	955.0	2.48	Certain	5.3	-4.48	3.74875	Yes	n/a	9.77802944507361	n/a	n/a	n/a	ShowChoice	Gain
130.474	1.0	0.012	1211.893	62.0	3	0.0	0.0	22.5614	955.0	2.48	Certain	5.3	-4.48	3.74875	Yes	n/a	9.77802944507361	n/a	n/a	n/a	ShowResult	Gain
131.494	5.212	0.02	1212.913	62.0	3	0.0	0.0	22.5614	955.0	2.48	Certain	5.3	-4.48	3.74875	Yes	n/a	9.77802944507361	n/a	n/a	n/a	ISITrial	Gain
136.727	3.749	0.021	1218.146	62.0	3	0.0	0.0	22.5614	955.0	2.48	Certain	5.3	-4.48	3.74875	Yes	n/a	9.77802944507361	n/a	n/a	n/a	TrialHappPreview	Gain
140.505	4.012	0.029	1221.924	62.0	3	0.0	0.0	22.5614	955.0	2.48	Certain	5.3	-4.48	3.74875	Yes	n/a	9.77802944507361	n/a	n/a	544.0	TrialHappiness	Gain
140.505	0.727	n/a	1222.467	62.0	3	0.0	0.0	22.5614	955.0	2.48	Certain	5.3	-4.48	3.74875	Yes	n/a	9.77802944507361	n/a	n/a	544.0	TrialHappinessSliderResponse	Gain
144.517	6.995	4.012	1225.936	62.0	3	0.0	0.0	22.5614	955.0	2.48	Certain	5.3	-4.48	3.74875	Yes	n/a	9.77802944507361	n/a	n/a	n/a	ISIRate	Gain
151.538	3.0	0.026	1232.957	63.0	3	11.7	0.35	24.0239	955.0	3.16	Outcome2	0.7	11.7	0.0	No	2.0	11.004530011325	1.782	153.32	n/a	GetAnswer	Loss
153.343	4.0	0.023	1234.762	63.0	3	11.7	0.35	24.0239	955.0	3.16	Outcome2	0.7	11.7	0.0	No	n/a	11.004530011325	n/a	n/a	n/a	ShowChoice	Loss
157.355	1.0	0.012	1238.774	63.0	3	11.7	0.35	24.0239	955.0	3.16	Outcome2	0.7	11.7	0.0	No	n/a	11.004530011325	n/a	n/a	n/a	ShowResult	Loss
158.375	5.595	0.02	1239.794	63.0	3	11.7	0.35	24.0239	955.0	3.16	Outcome2	0.7	11.7	0.0	No	n/a	11.004530011325	n/a	n/a	n/a	ISITrial	Loss
163.992	3.0	0.022	1245.411	64.0	3	6.86	3.43	24.8814	955.0	2.0	Outcome2	8.9	6.86	0.0	No	2.0	-2.04190260475651	0.825	164.817	n/a	GetAnswer	Gain
164.844	4.0	0.027	1246.263	64.0	3	6.86	3.43	24.8814	955.0	2.0	Outcome2	8.9	6.86	0.0	No	n/a	-2.04190260475651	n/a	n/a	n/a	ShowChoice	Gain
168.856	1.0	0.012	1250.275	64.0	3	6.86	3.43	24.8814	955.0	2.0	Outcome2	8.9	6.86	0.0	No	n/a	-2.04190260475651	n/a	n/a	n/a	ShowResult	Gain
169.876	5.47	0.02	1251.295	64.0	3	6.86	3.43	24.8814	955.0	2.0	Outcome2	8.9	6.86	0.0	No	n/a	-2.04190260475651	n/a	n/a	n/a	ISITrial	Gain
175.376	3.0	0.03	1256.795	65.0	3	8.5	2.0	25.9439	955.0	1.68	Outcome2	-3.44	8.5	2.99675	Yes	2.0	11.9354473386183	1.365	176.741	n/a	GetAnswer	Gain
176.763	4.0	0.022	1258.182	65.0	3	8.5	2.0	25.9439	955.0	1.68	Outcome2	-3.44	8.5	2.99675	Yes	n/a	11.9354473386183	n/a	n/a	n/a	ShowChoice	Gain
180.775	1.0	0.012	1262.194	65.0	3	8.5	2.0	25.9439	955.0	1.68	Outcome2	-3.44	8.5	2.99675	Yes	n/a	11.9354473386183	n/a	n/a	n/a	ShowResult	Gain
181.795	3.344	0.02	1263.214	65.0	3	8.5	2.0	25.9439	955.0	1.68	Outcome2	-3.44	8.5	2.99675	Yes	n/a	11.9354473386183	n/a	n/a	n/a	ISITrial	Gain
185.155	2.997	0.016	1266.574	65.0	3	8.5	2.0	25.9439	955.0	1.68	Outcome2	-3.44	8.5	2.99675	Yes	n/a	11.9354473386183	n/a	n/a	n/a	TrialHappPreview	Gain
188.181	4.012	0.029	1269.6	65.0	3	8.5	2.0	25.9439	955.0	1.68	Outcome2	-3.44	8.5	2.99675	Yes	n/a	11.9354473386183	n/a	n/a	640.0	TrialHappiness	Gain
188.182	0.417	n/a	1270.527	65.0	3	8.5	2.0	25.9439	955.0	1.68	Outcome2	-3.44	8.5	2.99675	Yes	n/a	11.9354473386183	n/a	n/a	640.0	TrialHappinessSliderResponse	Gain
192.193	3.987	4.012	1273.612	65.0	3	8.5	2.0	25.9439	955.0	1.68	Outcome2	-3.44	8.5	2.99675	Yes	n/a	11.9354473386183	n/a	n/a	n/a	ISIRate	Gain
196.205	3.0	0.025	1277.624	66.0	3	-3.0	-3.0	25.5689	955.0	1.0	Certain	-9.07	1.7	0.0	No	4.0	10.7701019252548	2.087	198.292	n/a	GetAnswer	Mixed
198.311	4.0	0.019	1279.73	66.0	3	-3.0	-3.0	25.5689	955.0	1.0	Certain	-9.07	1.7	0.0	No	n/a	10.7701019252548	n/a	n/a	n/a	ShowChoice	Mixed
202.323	1.0	0.012	1283.742	66.0	3	-3.0	-3.0	25.5689	955.0	1.0	Certain	-9.07	1.7	0.0	No	n/a	10.7701019252548	n/a	n/a	n/a	ShowResult	Mixed
203.343	3.959	0.02	1284.762	66.0	3	-3.0	-3.0	25.5689	955.0	1.0	Certain	-9.07	1.7	0.0	No	n/a	10.7701019252548	n/a	n/a	n/a	ISITrial	Mixed
207.322	3.0	0.02	1288.741	67.0	3	10.54	5.27	26.8864	955.0	5.0	Outcome2	12.3	10.54	2.9185	Yes	2.0	-1.75962627406569	0.897	208.219	n/a	GetAnswer	Loss
208.241	4.0	0.022	1289.66	67.0	3	10.54	5.27	26.8864	955.0	5.0	Outcome2	12.3	10.54	2.9185	Yes	n/a	-1.75962627406569	n/a	n/a	n/a	ShowChoice	Loss
212.253	1.0	0.012	1293.672	67.0	3	10.54	5.27	26.8864	955.0	5.0	Outcome2	12.3	10.54	2.9185	Yes	n/a	-1.75962627406569	n/a	n/a	n/a	ShowResult	Loss
213.273	4.199	0.02	1294.692	67.0	3	10.54	5.27	26.8864	955.0	5.0	Outcome2	12.3	10.54	2.9185	Yes	n/a	-1.75962627406569	n/a	n/a	n/a	ISITrial	Loss
217.485	2.918	0.013	1298.904	67.0	3	10.54	5.27	26.8864	955.0	5.0	Outcome2	12.3	10.54	2.9185	Yes	n/a	-1.75962627406569	n/a	n/a	n/a	TrialHappPreview	Loss
220.428	4.012	0.025	1301.847	67.0	3	10.54	5.27	26.8864	955.0	5.0	Outcome2	12.3	10.54	2.9185	Yes	n/a	-1.75962627406569	n/a	n/a	632.0	TrialHappiness	Loss
220.428	0.398	n/a	1303.026	67.0	3	10.54	5.27	26.8864	955.0	5.0	Outcome2	12.3	10.54	2.9185	Yes	n/a	-1.75962627406569	n/a	n/a	632.0	TrialHappinessSliderResponse	Loss
224.44	3.674	4.012	1305.859	67.0	3	10.54	5.27	26.8864	955.0	5.0	Outcome2	12.3	10.54	2.9185	Yes	n/a	-1.75962627406569	n/a	n/a	n/a	ISIRate	Loss
228.134	3.0	0.02	1309.553	68.0	3	9.7	-0.96	28.0989	955.0	3.16	Outcome1	9.7	-1.92	0.0	No	2.0	11.6194790486976	1.43	229.564	n/a	GetAnswer	Gain
229.588	4.0	0.024	1311.007	68.0	3	9.7	-0.96	28.0989	955.0	3.16	Outcome1	9.7	-1.92	0.0	No	n/a	11.6194790486976	n/a	n/a	n/a	ShowChoice	Gain
233.6	1.0	0.012	1315.019	68.0	3	9.7	-0.96	28.0989	955.0	3.16	Outcome1	9.7	-1.92	0.0	No	n/a	11.6194790486976	n/a	n/a	n/a	ShowResult	Gain
234.62	2.185	0.02	1316.039	68.0	3	9.7	-0.96	28.0989	955.0	3.16	Outcome1	9.7	-1.92	0.0	No	n/a	11.6194790486976	n/a	n/a	n/a	ISITrial	Gain
236.827	3.0	0.022	1318.246	69.0	3	-3.0	-3.0	27.7239	955.0	0.2	Certain	-9.49	2.5	0.0	No	4.0	11.9852774631937	2.279	239.106	n/a	GetAnswer	Mixed
239.117	4.0	0.011	1320.536	69.0	3	-3.0	-3.0	27.7239	955.0	0.2	Certain	-9.49	2.5	0.0	No	n/a	11.9852774631937	n/a	n/a	n/a	ShowChoice	Mixed
243.129	1.0	0.012	1324.548	69.0	3	-3.0	-3.0	27.7239	955.0	0.2	Certain	-9.49	2.5	0.0	No	n/a	11.9852774631937	n/a	n/a	n/a	ShowResult	Mixed
244.149	2.0	0.02	1325.568	69.0	3	-3.0	-3.0	27.7239	955.0	0.2	Certain	-9.49	2.5	0.0	No	n/a	11.9852774631937	n/a	n/a	n/a	ISITrial	Mixed
246.172	3.0	0.023	1327.591	70.0	3	6.02	3.01	28.4764	955.0	3.6	Outcome2	7.9	6.02	3.65125	Yes	2.0	-1.8827859569648897	1.17	247.342	n/a	GetAnswer	Gain
247.358	4.0	0.016	1328.777	70.0	3	6.02	3.01	28.4764	955.0	3.6	Outcome2	7.9	6.02	3.65125	Yes	n/a	-1.8827859569648897	n/a	n/a	n/a	ShowChoice	Gain
251.37	1.0	0.012	1332.789	70.0	3	6.02	3.01	28.4764	955.0	3.6	Outcome2	7.9	6.02	3.65125	Yes	n/a	-1.8827859569648897	n/a	n/a	n/a	ShowResult	Gain
252.39	2.623	0.02	1333.809	70.0	3	6.02	3.01	28.4764	955.0	3.6	Outcome2	7.9	6.02	3.65125	Yes	n/a	-1.8827859569648897	n/a	n/a	n/a	ISITrial	Gain
255.031	3.651	0.018	1336.45	70.0	3	6.02	3.01	28.4764	955.0	3.6	Outcome2	7.9	6.02	3.65125	Yes	n/a	-1.8827859569648897	n/a	n/a	n/a	TrialHappPreview	Gain
258.709	4.012	0.027	1340.128	70.0	3	6.02	3.01	28.4764	955.0	3.6	Outcome2	7.9	6.02	3.65125	Yes	n/a	-1.8827859569648897	n/a	n/a	632.0	TrialHappiness	Gain
258.71	0.394	n/a	1340.694	70.0	3	6.02	3.01	28.4764	955.0	3.6	Outcome2	7.9	6.02	3.65125	Yes	n/a	-1.8827859569648897	n/a	n/a	632.0	TrialHappinessSliderResponse	Gain
262.721	6.605	4.012	1344.14	70.0	3	6.02	3.01	28.4764	955.0	3.6	Outcome2	7.9	6.02	3.65125	Yes	n/a	-1.8827859569648897	n/a	n/a	n/a	ISIRate	Gain
269.358	3.0	0.032	1350.777	71.0	3	7.99	4.0	29.4752	955.0	3.6	Outcome1	7.99	9.9	0.0	No	2.0	-1.9132691581729	0.993	270.351	n/a	GetAnswer	Gain
270.377	4.0	0.026	1351.796	71.0	3	7.99	4.0	29.4752	955.0	3.6	Outcome1	7.99	9.9	0.0	No	n/a	-1.9132691581729	n/a	n/a	n/a	ShowChoice	Gain
274.389	1.0	0.012	1355.808	71.0	3	7.99	4.0	29.4752	955.0	3.6	Outcome1	7.99	9.9	0.0	No	n/a	-1.9132691581729	n/a	n/a	n/a	ShowResult	Gain
275.409	5.499	0.02	1356.828	71.0	3	7.99	4.0	29.4752	955.0	3.6	Outcome1	7.99	9.9	0.0	No	n/a	-1.9132691581729	n/a	n/a	n/a	ISITrial	Gain
280.926	3.0	0.018	1362.345	72.0	3	0.96	2.0	29.5952	955.0	0.4	Outcome2	2.9	0.96	3.0805	Yes	2.0	-1.9437523593809	2.063	282.989	n/a	GetAnswer	Mixed
283.015	4.0	0.026	1364.434	72.0	3	0.96	2.0	29.5952	955.0	0.4	Outcome2	2.9	0.96	3.0805	Yes	n/a	-1.9437523593809	n/a	n/a	n/a	ShowChoice	Mixed
287.027	1.0	0.012	1368.446	72.0	3	0.96	2.0	29.5952	955.0	0.4	Outcome2	2.9	0.96	3.0805	Yes	n/a	-1.9437523593809	n/a	n/a	n/a	ShowResult	Mixed
288.047	5.672	0.02	1369.466	72.0	3	0.96	2.0	29.5952	955.0	0.4	Outcome2	2.9	0.96	3.0805	Yes	n/a	-1.9437523593809	n/a	n/a	n/a	ISITrial	Mixed
293.731	3.08	0.012	1375.15	72.0	3	0.96	2.0	29.5952	955.0	0.4	Outcome2	2.9	0.96	3.0805	Yes	n/a	-1.9437523593809	n/a	n/a	n/a	TrialHappPreview	Mixed
296.84	4.012	0.029	1378.259	72.0	3	0.96	2.0	29.5952	955.0	0.4	Outcome2	2.9	0.96	3.0805	Yes	n/a	-1.9437523593809	n/a	n/a	664.0	TrialHappiness	Mixed
296.841	0.46	n/a	1378.643	72.0	3	0.96	2.0	29.5952	955.0	0.4	Outcome2	2.9	0.96	3.0805	Yes	n/a	-1.9437523593809	n/a	n/a	664.0	TrialHappinessSliderResponse	Mixed
300.852	4.322	4.012	1382.271	72.0	3	0.96	2.0	29.5952	955.0	0.4	Outcome2	2.9	0.96	3.0805	Yes	n/a	-1.9437523593809	n/a	n/a	n/a	ISIRate	Mixed
305.199	3.0	0.025	1386.618	73.0	3	0.0	0.0	29.5952	955.0	5.0	Certain	-6.6	6.3	0.0	No	4.0	12.904869762174402	1.89	307.089	n/a	GetAnswer	Gain
307.104	4.0	0.015	1388.523	73.0	3	0.0	0.0	29.5952	955.0	5.0	Certain	-6.6	6.3	0.0	No	n/a	12.904869762174402	n/a	n/a	n/a	ShowChoice	Gain
311.116	1.0	0.012	1392.535	73.0	3	0.0	0.0	29.5952	955.0	5.0	Certain	-6.6	6.3	0.0	No	n/a	12.904869762174402	n/a	n/a	n/a	ShowResult	Gain
312.136	4.616	0.02	1393.555	73.0	3	0.0	0.0	29.5952	955.0	5.0	Certain	-6.6	6.3	0.0	No	n/a	12.904869762174402	n/a	n/a	n/a	ISITrial	Gain
316.783	3.0	0.031	1398.202	74.0	3	10.1	-1.56	30.8577	955.0	4.2	Outcome2	-3.13	10.1	3.05625	Yes	2.0	13.2344280860702	1.549	318.332	n/a	GetAnswer	Gain
318.355	4.0	0.023	1399.774	74.0	3	10.1	-1.56	30.8577	955.0	4.2	Outcome2	-3.13	10.1	3.05625	Yes	n/a	13.2344280860702	n/a	n/a	n/a	ShowChoice	Gain
322.367	1.0	0.012	1403.786	74.0	3	10.1	-1.56	30.8577	955.0	4.2	Outcome2	-3.13	10.1	3.05625	Yes	n/a	13.2344280860702	n/a	n/a	n/a	ShowResult	Gain
323.386	3.909	0.019	1404.805	74.0	3	10.1	-1.56	30.8577	955.0	4.2	Outcome2	-3.13	10.1	3.05625	Yes	n/a	13.2344280860702	n/a	n/a	n/a	ISITrial	Gain
327.315	3.056	0.02	1408.734	74.0	3	10.1	-1.56	30.8577	955.0	4.2	Outcome2	-3.13	10.1	3.05625	Yes	n/a	13.2344280860702	n/a	n/a	n/a	TrialHappPreview	Gain
330.391	4.012	0.02	1411.81	74.0	3	10.1	-1.56	30.8577	955.0	4.2	Outcome2	-3.13	10.1	3.05625	Yes	n/a	13.2344280860702	n/a	n/a	748.0	TrialHappiness	Gain
330.391	1.584	n/a	1413.061	74.0	3	10.1	-1.56	30.8577	955.0	4.2	Outcome2	-3.13	10.1	3.05625	Yes	n/a	13.2344280860702	n/a	n/a	748.0	TrialHappinessSliderResponse	Gain
334.403	4.225	4.012	1415.822	74.0	3	10.1	-1.56	30.8577	955.0	4.2	Outcome2	-3.13	10.1	3.05625	Yes	n/a	13.2344280860702	n/a	n/a	n/a	ISIRate	Gain
338.649	3.0	0.021	1420.068	75.0	3	-5.0	-5.0	30.2327	955.0	0.52	Certain	-11.04	1.1	0.0	No	4.0	12.1370328425821	1.92	340.569	n/a	GetAnswer	Mixed
340.588	4.0	0.019	1422.007	75.0	3	-5.0	-5.0	30.2327	955.0	0.52	Certain	-11.04	1.1	0.0	No	n/a	12.1370328425821	n/a	n/a	n/a	ShowChoice	Mixed
344.6	1.0	0.012	1426.019	75.0	3	-5.0	-5.0	30.2327	955.0	0.52	Certain	-11.04	1.1	0.0	No	n/a	12.1370328425821	n/a	n/a	n/a	ShowResult	Mixed
345.62	4.979	0.02	1427.039	75.0	3	-5.0	-5.0	30.2327	955.0	0.52	Certain	-11.04	1.1	0.0	No	n/a	12.1370328425821	n/a	n/a	n/a	ISITrial	Mixed
350.618	3.0	0.019	1432.037	76.0	3	-1.64	-1.64	30.0277	955.0	2.22	Certain	-3.27	9.1	0.0	No	4.0	12.3714609286523	1.407	352.025	n/a	GetAnswer	Gain
352.039	4.0	0.014	1433.458	76.0	3	-1.64	-1.64	30.0277	955.0	2.22	Certain	-3.27	9.1	0.0	No	n/a	12.3714609286523	n/a	n/a	n/a	ShowChoice	Gain
356.051	1.0	0.012	1437.47	76.0	3	-1.64	-1.64	30.0277	955.0	2.22	Certain	-3.27	9.1	0.0	No	n/a	12.3714609286523	n/a	n/a	n/a	ShowResult	Gain
357.071	3.931	0.02	1438.49	76.0	3	-1.64	-1.64	30.0277	955.0	2.22	Certain	-3.27	9.1	0.0	No	n/a	12.3714609286523	n/a	n/a	n/a	ISITrial	Gain
361.033	3.0	0.031	1442.452	77.0	3	10.9	-0.86	31.3902	955.0	2.0	Outcome1	10.9	-1.71	4.0	Yes	n/a	12.6058890147225	n/a	n/a	n/a	GetAnswer	Loss
364.058	4.0	0.025	1445.477	77.0	3	10.9	-0.86	31.3902	955.0	2.0	Outcome1	10.9	-1.71	4.0	Yes	n/a	12.6058890147225	n/a	n/a	n/a	ShowChoice	Loss
368.071	1.0	0.013	1449.49	77.0	3	10.9	-0.86	31.3902	955.0	2.0	Outcome1	10.9	-1.71	4.0	Yes	n/a	12.6058890147225	n/a	n/a	n/a	ShowResult	Loss
369.09	7.022	0.019	1450.509	77.0	3	10.9	-0.86	31.3902	955.0	2.0	Outcome1	10.9	-1.71	4.0	Yes	n/a	12.6058890147225	n/a	n/a	n/a	ISITrial	Loss
376.128	4.0	0.016	1457.547	77.0	3	10.9	-0.86	31.3902	955.0	2.0	Outcome1	10.9	-1.71	4.0	Yes	n/a	12.6058890147225	n/a	n/a	n/a	TrialHappPreview	Loss
380.157	4.012	0.029	1461.576	77.0	3	10.9	-0.86	31.3902	955.0	2.0	Outcome1	10.9	-1.71	4.0	Yes	n/a	12.6058890147225	n/a	n/a	688.0	TrialHappiness	Loss
380.158	0.522	n/a	1461.947	77.0	3	10.9	-0.86	31.3902	955.0	2.0	Outcome1	10.9	-1.71	4.0	Yes	n/a	12.6058890147225	n/a	n/a	688.0	TrialHappinessSliderResponse	Loss
384.169	8.0	4.012	1465.588	77.0	3	10.9	-0.86	31.3902	955.0	2.0	Outcome1	10.9	-1.71	4.0	Yes	n/a	12.6058890147225	n/a	n/a	n/a	ISIRate	Loss
392.193	3.0	0.024	1473.612	78.0	3	5.82	5.82	32.1177	955.0	2.8	Certain	11.64	13.5	0.0	No	4.0	-1.8605134012835	1.586	393.779	n/a	GetAnswer	Loss
393.798	4.0	0.019	1475.217	78.0	3	5.82	5.82	32.1177	955.0	2.8	Certain	11.64	13.5	0.0	No	n/a	-1.8605134012835	n/a	n/a	n/a	ShowChoice	Loss
397.81	1.0	0.012	1479.229	78.0	3	5.82	5.82	32.1177	955.0	2.8	Certain	11.64	13.5	0.0	No	n/a	-1.8605134012835	n/a	n/a	n/a	ShowResult	Loss
398.829	2.078	0.019	1480.248	78.0	3	5.82	5.82	32.1177	955.0	2.8	Certain	11.64	13.5	0.0	No	n/a	-1.8605134012835	n/a	n/a	n/a	ISITrial	Loss
400.936	3.0	0.029	1482.355	79.0	3	-0.43	-0.43	32.0639	955.0	2.48	Certain	-0.86	13.3	2.7295	Yes	4.0	14.1619479048698	1.845	402.781	n/a	GetAnswer	Loss
402.808	4.0	0.027	1484.227	79.0	3	-0.43	-0.43	32.0639	955.0	2.48	Certain	-0.86	13.3	2.7295	Yes	n/a	14.1619479048698	n/a	n/a	n/a	ShowChoice	Loss
406.82	1.0	0.012	1488.239	79.0	3	-0.43	-0.43	32.0639	955.0	2.48	Certain	-0.86	13.3	2.7295	Yes	n/a	14.1619479048698	n/a	n/a	n/a	ShowResult	Loss
407.84	3.829	0.02	1489.259	79.0	3	-0.43	-0.43	32.0639	955.0	2.48	Certain	-0.86	13.3	2.7295	Yes	n/a	14.1619479048698	n/a	n/a	n/a	ISITrial	Loss
411.685	2.73	0.016	1493.104	79.0	3	-0.43	-0.43	32.0639	955.0	2.48	Certain	-0.86	13.3	2.7295	Yes	n/a	14.1619479048698	n/a	n/a	n/a	TrialHappPreview	Loss
414.443	4.012	0.028	1495.862	79.0	3	-0.43	-0.43	32.0639	955.0	2.48	Certain	-0.86	13.3	2.7295	Yes	n/a	14.1619479048698	n/a	n/a	712.0	TrialHappiness	Loss
414.444	0.564	n/a	1496.425	79.0	3	-0.43	-0.43	32.0639	955.0	2.48	Certain	-0.86	13.3	2.7295	Yes	n/a	14.1619479048698	n/a	n/a	712.0	TrialHappinessSliderResponse	Loss
418.455	2.918	4.012	1499.874	79.0	3	-0.43	-0.43	32.0639	955.0	2.48	Certain	-0.86	13.3	2.7295	Yes	n/a	14.1619479048698	n/a	n/a	n/a	ISIRate	Loss
421.397	3.0	0.024	1502.816	80.0	3	-1.08	-1.08	31.9289	955.0	3.6	Certain	11.9	-2.16	0.0	No	4.0	14.0566251415629	1.549	422.946	n/a	GetAnswer	Loss
422.969	4.0	0.023	1504.388	80.0	3	-1.08	-1.08	31.9289	955.0	3.6	Certain	11.9	-2.16	0.0	No	n/a	14.0566251415629	n/a	n/a	n/a	ShowChoice	Loss
426.981	1.0	0.012	1508.4	80.0	3	-1.08	-1.08	31.9289	955.0	3.6	Certain	11.9	-2.16	0.0	No	n/a	14.0566251415629	n/a	n/a	n/a	ShowResult	Loss
428.0	3.336	0.019	1509.419	80.0	3	-1.08	-1.08	31.9289	955.0	3.6	Certain	11.9	-2.16	0.0	No	n/a	14.0566251415629	n/a	n/a	n/a	ISITrial	Loss
431.36	3.0	0.024	1512.779	81.0	3	3.93	3.93	32.4201	955.0	3.16	Certain	7.86	9.7	3.92375	Yes	4.0	-1.83644771611929	1.389	432.749	n/a	GetAnswer	Gain
432.765	4.0	0.016	1514.184	81.0	3	3.93	3.93	32.4201	955.0	3.16	Certain	7.86	9.7	3.92375	Yes	n/a	-1.83644771611929	n/a	n/a	n/a	ShowChoice	Gain
436.777	1.0	0.012	1518.196	81.0	3	3.93	3.93	32.4201	955.0	3.16	Certain	7.86	9.7	3.92375	Yes	n/a	-1.83644771611929	n/a	n/a	n/a	ShowResult	Gain
437.796	3.919	0.019	1519.215	81.0	3	3.93	3.93	32.4201	955.0	3.16	Certain	7.86	9.7	3.92375	Yes	n/a	-1.83644771611929	n/a	n/a	n/a	ISITrial	Gain
441.742	3.924	0.027	1523.161	81.0	3	3.93	3.93	32.4201	955.0	3.16	Certain	7.86	9.7	3.92375	Yes	n/a	-1.83644771611929	n/a	n/a	n/a	TrialHappPreview	Gain
445.687	4.012	0.021	1527.106	81.0	3	3.93	3.93	32.4201	955.0	3.16	Certain	7.86	9.7	3.92375	Yes	2{-2}	-1.83644771611929	1.276	446.963	712.0	TrialHappiness	Gain
445.687	0.559	n/a	1527.823	81.0	3	3.93	3.93	32.4201	955.0	3.16	Certain	7.86	9.7	3.92375	Yes	n/a	-1.83644771611929	n/a	n/a	712.0	TrialHappinessSliderResponse	Gain
449.699	7.695	4.012	1531.118	81.0	3	3.93	3.93	32.4201	955.0	3.16	Certain	7.86	9.7	3.92375	Yes	n/a	-1.83644771611929	n/a	n/a	n/a	ISIRate	Gain
457.422	3.0	0.028	1538.841	n/a	3	n/a	n/a	n/a	n/a	n/a	n/a	n/a	n/a	n/a	n/a	n/a	n/a	n/a	n/a	n/a	CurrentEarnings	n/a
460.448	-0.001	0.026	1541.867	n/a	3	n/a	n/a	n/a	n/a	n/a	n/a	n/a	n/a	n/a	n/a	{SPACE}	n/a	26.925	487.373	n/a	Goodbye	n/a
