onset	duration	onset_delay	onset_unadjusted	trial_number	block	amount_change	certain_amount	current_amount	mood_target	multiplier	outcome	outcome1_amount	outcome2_amount	question_duration	rating	response	rpe	rt	rt_time	slider_response	trial_phase	trial_type
-51.438	-0.001	0.039	39.256	n/a	0	n/a	n/a	n/a	n/a	n/a	n/a	n/a	n/a	n/a	n/a	{SPACE}	n/a	4.862	-46.576	n/a	Welcome	n/a
-46.54	5.0	0.036	44.154	n/a	0	n/a	n/a	n/a	n/a	n/a	n/a	n/a	n/a	n/a	n/a	n/a	n/a	n/a	n/a	n/a	LifeHappyPreview	n/a
-41.508	4.951	0.032	49.186	n/a	0	n/a	n/a	n/a	n/a	n/a	n/a	n/a	n/a	n/a	n/a	n/a	n/a	n/a	n/a	952.0	LifeHappiness	n/a
-41.507	4.441	n/a	49.697	n/a	0	n/a	n/a	n/a	n/a	n/a	n/a	n/a	n/a	n/a	n/a	n/a	n/a	n/a	n/a	952.0	LifeHappinessSliderResponse	n/a
-27.282	4.0	0.023	63.412	n/a	0	n/a	n/a	n/a	n/a	n/a	n/a	n/a	n/a	n/a	n/a	n/a	n/a	n/a	n/a	n/a	BlockHappyPreview	n/a
-23.27	2.061	0.012	67.424	n/a	0	n/a	n/a	n/a	n/a	n/a	n/a	n/a	n/a	n/a	n/a	n/a	n/a	n/a	n/a	952.0	BlockStartHappiness	n/a
-23.269	1.989	n/a	67.497	n/a	0	n/a	n/a	n/a	n/a	n/a	n/a	n/a	n/a	n/a	n/a	n/a	n/a	n/a	n/a	952.0	BlockStartHappinessSliderResponse	n/a
-10.147	-0.001	0.013	80.547	n/a	0	n/a	n/a	n/a	n/a	n/a	n/a	n/a	n/a	n/a	n/a	5.0	n/a	10.122	-0.025	n/a	ScanWait	n/a
0.0	10.0	0.025	90.694	n/a	1	n/a	n/a	n/a	n/a	n/a	n/a	n/a	n/a	n/a	n/a	n/a	n/a	n/a	n/a	n/a	GetReady	n/a
10.03	3.0	0.03	100.724	1.0	1	3.9	1.92	10.4875	955.0	1.2	Outcome2	3.85	3.9	0.0	No	2.0	0.0509626274065685	1.308	11.338	n/a	GetAnswer	Mixed
11.35	4.0	0.012	102.044	1.0	1	3.9	1.92	10.4875	955.0	1.2	Outcome2	3.85	3.9	0.0	No	n/a	0.0509626274065685	n/a	n/a	n/a	ShowChoice	Mixed
15.362	1.0	0.012	106.056	1.0	1	3.9	1.92	10.4875	955.0	1.2	Outcome2	3.85	3.9	0.0	No	n/a	0.0509626274065685	n/a	n/a	n/a	ShowResult	Mixed
16.382	2.431	0.02	107.076	1.0	1	3.9	1.92	10.4875	955.0	1.2	Outcome2	3.85	3.9	0.0	No	n/a	0.0509626274065685	n/a	n/a	n/a	ISITrial	Mixed
18.84	3.0	0.027	109.534	2.0	1	4.49	2.24	11.0487	955.0	1.68	Outcome2	4.5	4.49	0.0	No	2.0	-0.0124575311438279	1.201	20.041	n/a	GetAnswer	Gain
20.06	4.0	0.019	110.754	2.0	1	4.49	2.24	11.0487	955.0	1.68	Outcome2	4.5	4.49	0.0	No	n/a	-0.0124575311438279	n/a	n/a	n/a	ShowChoice	Gain
24.072	1.0	0.012	114.766	2.0	1	4.49	2.24	11.0487	955.0	1.68	Outcome2	4.5	4.49	0.0	No	n/a	-0.0124575311438279	n/a	n/a	n/a	ShowResult	Gain
25.092	4.568	0.02	115.786	2.0	1	4.49	2.24	11.0487	955.0	1.68	Outcome2	4.5	4.49	0.0	No	n/a	-0.0124575311438279	n/a	n/a	n/a	ISITrial	Gain
29.689	3.0	0.029	120.383	3.0	1	0.0	0.0	11.0487	955.0	0.82	Certain	-0.5	-0.51	2.868	Yes	4.0	-0.0127406568516421	2.301	31.99	n/a	GetAnswer	Mixed
32.012	4.0	0.022	122.706	3.0	1	0.0	0.0	11.0487	955.0	0.82	Certain	-0.5	-0.51	2.868	Yes	n/a	-0.0127406568516421	n/a	n/a	n/a	ShowChoice	Mixed
36.024	1.0	0.012	126.718	3.0	1	0.0	0.0	11.0487	955.0	0.82	Certain	-0.5	-0.51	2.868	Yes	n/a	-0.0127406568516421	n/a	n/a	n/a	ShowResult	Mixed
37.044	3.243	0.02	127.738	3.0	1	0.0	0.0	11.0487	955.0	0.82	Certain	-0.5	-0.51	2.868	Yes	n/a	-0.0127406568516421	n/a	n/a	n/a	ISITrial	Mixed
40.304	2.868	0.017	130.998	3.0	1	0.0	0.0	11.0487	955.0	0.82	Certain	-0.5	-0.51	2.868	Yes	n/a	-0.0127406568516421	n/a	n/a	n/a	TrialHappPreview	Mixed
43.196	4.029	0.024	133.89	3.0	1	0.0	0.0	11.0487	955.0	0.82	Certain	-0.5	-0.51	2.868	Yes	n/a	-0.0127406568516421	n/a	n/a	952.0	TrialHappiness	Mixed
43.197	1.783	n/a	134.136	3.0	1	0.0	0.0	11.0487	955.0	0.82	Certain	-0.5	-0.51	2.868	Yes	n/a	-0.0127406568516421	n/a	n/a	952.0	TrialHappinessSliderResponse	Mixed
47.225	3.472	4.029	137.919	3.0	1	0.0	0.0	11.0487	955.0	0.82	Certain	-0.5	-0.51	2.868	Yes	n/a	-0.0127406568516421	n/a	n/a	n/a	ISIRate	Mixed
50.718	3.0	0.021	141.412	4.0	1	0.5	0.0	11.1112	955.0	0.2	Outcome2	0.44	0.5	0.0	No	2.0	0.0611551528878822	1.177	51.895	n/a	GetAnswer	Mixed
51.922	4.0	0.027	142.616	4.0	1	0.5	0.0	11.1112	955.0	0.2	Outcome2	0.44	0.5	0.0	No	n/a	0.0611551528878822	n/a	n/a	n/a	ShowChoice	Mixed
55.951	1.0	0.029	146.645	4.0	1	0.5	0.0	11.1112	955.0	0.2	Outcome2	0.44	0.5	0.0	No	n/a	0.0611551528878822	n/a	n/a	n/a	ShowResult	Mixed
56.971	2.011	0.02	147.665	4.0	1	0.5	0.0	11.1112	955.0	0.2	Outcome2	0.44	0.5	0.0	No	n/a	0.0611551528878822	n/a	n/a	n/a	ISITrial	Mixed
59.01	3.0	0.028	149.704	5.0	1	2.49	2.0	11.4225	955.0	0.2	Outcome1	2.49	2.5	2.5825	Yes	2.0	-0.0133069082672707	1.149	60.159	n/a	GetAnswer	Mixed
60.18	4.0	0.02	150.874	5.0	1	2.49	2.0	11.4225	955.0	0.2	Outcome1	2.49	2.5	2.5825	Yes	n/a	-0.0133069082672707	n/a	n/a	n/a	ShowChoice	Mixed
64.209	1.0	0.029	154.903	5.0	1	2.49	2.0	11.4225	955.0	0.2	Outcome1	2.49	2.5	2.5825	Yes	n/a	-0.0133069082672707	n/a	n/a	n/a	ShowResult	Mixed
65.229	5.129	0.02	155.923	5.0	1	2.49	2.0	11.4225	955.0	0.2	Outcome1	2.49	2.5	2.5825	Yes	n/a	-0.0133069082672707	n/a	n/a	n/a	ISITrial	Mixed
70.377	2.582	0.019	161.071	5.0	1	2.49	2.0	11.4225	955.0	0.2	Outcome1	2.49	2.5	2.5825	Yes	n/a	-0.0133069082672707	n/a	n/a	n/a	TrialHappPreview	Mixed
72.985	4.029	0.026	163.679	5.0	1	2.49	2.0	11.4225	955.0	0.2	Outcome1	2.49	2.5	2.5825	Yes	n/a	-0.0133069082672707	n/a	n/a	952.0	TrialHappiness	Mixed
72.986	1.551	n/a	164.082	5.0	1	2.49	2.0	11.4225	955.0	0.2	Outcome1	2.49	2.5	2.5825	Yes	n/a	-0.0133069082672707	n/a	n/a	952.0	TrialHappinessSliderResponse	Mixed
77.014	2.33	4.029	167.708	5.0	1	2.49	2.0	11.4225	955.0	0.2	Outcome1	2.49	2.5	2.5825	Yes	n/a	-0.0133069082672707	n/a	n/a	n/a	ISIRate	Mixed
79.371	3.0	0.027	170.065	6.0	1	9.09	4.54	12.5587	955.0	2.22	Outcome2	9.1	9.09	0.0	No	2.0	-0.0135900339750849	0.843	80.214	n/a	GetAnswer	Gain
80.24	4.0	0.026	170.934	6.0	1	9.09	4.54	12.5587	955.0	2.22	Outcome2	9.1	9.09	0.0	No	n/a	-0.0135900339750849	n/a	n/a	n/a	ShowChoice	Gain
84.269	1.0	0.029	174.963	6.0	1	9.09	4.54	12.5587	955.0	2.22	Outcome2	9.1	9.09	0.0	No	n/a	-0.0135900339750849	n/a	n/a	n/a	ShowResult	Gain
85.289	6.232	0.02	175.983	6.0	1	9.09	4.54	12.5587	955.0	2.22	Outcome2	9.1	9.09	0.0	No	n/a	-0.0135900339750849	n/a	n/a	n/a	ISITrial	Gain
91.541	3.0	0.02	182.235	7.0	1	8.7	4.32	13.6462	955.0	1.82	Outcome1	8.7	8.63	0.0	No	2.0	0.0713476783691959	0.858	92.399	n/a	GetAnswer	Gain
92.427	4.0	0.028	183.121	7.0	1	8.7	4.32	13.6462	955.0	1.82	Outcome1	8.7	8.63	0.0	No	n/a	0.0713476783691959	n/a	n/a	n/a	ShowChoice	Gain
96.455	1.0	0.028	187.149	7.0	1	8.7	4.32	13.6462	955.0	1.82	Outcome1	8.7	8.63	0.0	No	n/a	0.0713476783691959	n/a	n/a	n/a	ShowResult	Gain
97.475	2.305	0.02	188.169	7.0	1	8.7	4.32	13.6462	955.0	1.82	Outcome1	8.7	8.63	0.0	No	n/a	0.0713476783691959	n/a	n/a	n/a	ISITrial	Gain
99.799	3.0	0.019	190.493	8.0	1	3.3	1.62	14.0587	955.0	0.66	Outcome2	3.23	3.3	3.1125	Yes	2.0	0.0747451868629672	1.003	100.802	n/a	GetAnswer	Mixed
100.819	4.0	0.017	191.513	8.0	1	3.3	1.62	14.0587	955.0	0.66	Outcome2	3.23	3.3	3.1125	Yes	n/a	0.0747451868629672	n/a	n/a	n/a	ShowChoice	Mixed
104.847	1.0	0.028	195.541	8.0	1	3.3	1.62	14.0587	955.0	0.66	Outcome2	3.23	3.3	3.1125	Yes	n/a	0.0747451868629672	n/a	n/a	n/a	ShowResult	Mixed
105.867	3.506	0.02	196.561	8.0	1	3.3	1.62	14.0587	955.0	0.66	Outcome2	3.23	3.3	3.1125	Yes	n/a	0.0747451868629672	n/a	n/a	n/a	ISITrial	Mixed
109.394	3.112	0.021	200.088	8.0	1	3.3	1.62	14.0587	955.0	0.66	Outcome2	3.23	3.3	3.1125	Yes	n/a	0.0747451868629672	n/a	n/a	n/a	TrialHappPreview	Mixed
112.537	4.029	0.031	203.231	8.0	1	3.3	1.62	14.0587	955.0	0.66	Outcome2	3.23	3.3	3.1125	Yes	n/a	0.0747451868629672	n/a	n/a	952.0	TrialHappiness	Mixed
112.538	1.227	n/a	203.682	8.0	1	3.3	1.62	14.0587	955.0	0.66	Outcome2	3.23	3.3	3.1125	Yes	n/a	0.0747451868629672	n/a	n/a	952.0	TrialHappinessSliderResponse	Mixed
116.566	4.45	4.029	207.26	8.0	1	3.3	1.62	14.0587	955.0	0.66	Outcome2	3.23	3.3	3.1125	Yes	n/a	0.0747451868629672	n/a	n/a	n/a	ISIRate	Mixed
121.046	3.0	0.03	211.74	9.0	1	-1.0	-1.0	13.9337	955.0	0.2	Certain	-1.5	-1.58	0.0	No	4.0	0.0781426953567384	1.897	122.943	n/a	GetAnswer	Mixed
122.968	4.0	0.025	213.662	9.0	1	-1.0	-1.0	13.9337	955.0	0.2	Certain	-1.5	-1.58	0.0	No	n/a	0.0781426953567384	n/a	n/a	n/a	ShowChoice	Mixed
126.98	1.0	0.012	217.674	9.0	1	-1.0	-1.0	13.9337	955.0	0.2	Certain	-1.5	-1.58	0.0	No	n/a	0.0781426953567384	n/a	n/a	n/a	ShowResult	Mixed
128.0	2.0	0.02	218.694	9.0	1	-1.0	-1.0	13.9337	955.0	0.2	Certain	-1.5	-1.58	0.0	No	n/a	0.0781426953567384	n/a	n/a	n/a	ISITrial	Mixed
130.023	3.0	0.023	220.717	10.0	1	12.1	6.01	15.4462	955.0	4.2	Outcome2	12.02	12.1	4.0	Yes	2.0	0.0815402038505096	1.016	131.039	n/a	GetAnswer	Loss
131.059	4.0	0.02	221.753	10.0	1	12.1	6.01	15.4462	955.0	4.2	Outcome2	12.02	12.1	4.0	Yes	n/a	0.0815402038505096	n/a	n/a	n/a	ShowChoice	Loss
135.088	1.0	0.029	225.782	10.0	1	12.1	6.01	15.4462	955.0	4.2	Outcome2	12.02	12.1	4.0	Yes	n/a	0.0815402038505096	n/a	n/a	n/a	ShowResult	Loss
136.108	2.0	0.02	226.802	10.0	1	12.1	6.01	15.4462	955.0	4.2	Outcome2	12.02	12.1	4.0	Yes	n/a	0.0815402038505096	n/a	n/a	n/a	ISITrial	Loss
138.13	4.0	0.022	228.824	10.0	1	12.1	6.01	15.4462	955.0	4.2	Outcome2	12.02	12.1	4.0	Yes	n/a	0.0815402038505096	n/a	n/a	n/a	TrialHappPreview	Loss
142.159	4.012	0.029	232.853	10.0	1	12.1	6.01	15.4462	955.0	4.2	Outcome2	12.02	12.1	4.0	Yes	n/a	0.0815402038505096	n/a	n/a	952.0	TrialHappiness	Loss
142.16	1.245	n/a	233.27	10.0	1	12.1	6.01	15.4462	955.0	4.2	Outcome2	12.02	12.1	4.0	Yes	n/a	0.0815402038505096	n/a	n/a	952.0	TrialHappinessSliderResponse	Loss
146.171	8.0	4.012	236.865	10.0	1	12.1	6.01	15.4462	955.0	4.2	Outcome2	12.02	12.1	4.0	Yes	n/a	0.0815402038505096	n/a	n/a	n/a	ISIRate	Loss
154.195	3.0	0.024	244.889	11.0	1	2.08	2.0	15.7062	955.0	1.5	Outcome1	2.08	2.1	0.0	No	2.0	-0.0150056625141563	1.316	155.511	n/a	GetAnswer	Mixed
155.532	4.0	0.021	246.226	11.0	1	2.08	2.0	15.7062	955.0	1.5	Outcome1	2.08	2.1	0.0	No	n/a	-0.0150056625141563	n/a	n/a	n/a	ShowChoice	Mixed
159.545	1.0	0.013	250.239	11.0	1	2.08	2.0	15.7062	955.0	1.5	Outcome1	2.08	2.1	0.0	No	n/a	-0.0150056625141563	n/a	n/a	n/a	ShowResult	Mixed
160.564	3.324	0.019	251.258	11.0	1	2.08	2.0	15.7062	955.0	1.5	Outcome1	2.08	2.1	0.0	No	n/a	-0.0150056625141563	n/a	n/a	n/a	ISITrial	Mixed
163.908	3.0	0.02	254.602	12.0	1	12.7	6.3	17.2937	955.0	1.82	Outcome2	12.61	12.7	2.61875	Yes	2.0	0.0883352208380521	0.833	164.741	n/a	GetAnswer	Loss
164.76	4.0	0.019	255.454	12.0	1	12.7	6.3	17.2937	955.0	1.82	Outcome2	12.61	12.7	2.61875	Yes	n/a	0.0883352208380521	n/a	n/a	n/a	ShowChoice	Loss
168.772	1.0	0.012	259.466	12.0	1	12.7	6.3	17.2937	955.0	1.82	Outcome2	12.61	12.7	2.61875	Yes	n/a	0.0883352208380521	n/a	n/a	n/a	ShowResult	Loss
169.792	6.642	0.02	260.486	12.0	1	12.7	6.3	17.2937	955.0	1.82	Outcome2	12.61	12.7	2.61875	Yes	n/a	0.0883352208380521	n/a	n/a	n/a	ISITrial	Loss
176.462	2.619	0.028	267.156	12.0	1	12.7	6.3	17.2937	955.0	1.82	Outcome2	12.61	12.7	2.61875	Yes	n/a	0.0883352208380521	n/a	n/a	n/a	TrialHappPreview	Loss
179.103	4.012	0.022	269.797	12.0	1	12.7	6.3	17.2937	955.0	1.82	Outcome2	12.61	12.7	2.61875	Yes	n/a	0.0883352208380521	n/a	n/a	952.0	TrialHappiness	Loss
179.104	1.212	n/a	270.114	12.0	1	12.7	6.3	17.2937	955.0	1.82	Outcome2	12.61	12.7	2.61875	Yes	n/a	0.0883352208380521	n/a	n/a	952.0	TrialHappinessSliderResponse	Loss
183.115	2.475	4.012	273.809	12.0	1	12.7	6.3	17.2937	955.0	1.82	Outcome2	12.61	12.7	2.61875	Yes	n/a	0.0883352208380521	n/a	n/a	n/a	ISIRate	Loss
185.606	3.0	0.016	276.3	13.0	1	3.5	1.7	17.7312	955.0	0.82	Outcome1	3.5	3.41	0.0	No	2.0	0.0917327293318233	0.865	186.471	n/a	GetAnswer	Mixed
186.492	4.0	0.021	277.186	13.0	1	3.5	1.7	17.7312	955.0	0.82	Outcome1	3.5	3.41	0.0	No	n/a	0.0917327293318233	n/a	n/a	n/a	ShowChoice	Mixed
190.504	1.0	0.012	281.198	13.0	1	3.5	1.7	17.7312	955.0	0.82	Outcome1	3.5	3.41	0.0	No	n/a	0.0917327293318233	n/a	n/a	n/a	ShowResult	Mixed
191.524	3.48	0.02	282.218	13.0	1	3.5	1.7	17.7312	955.0	0.82	Outcome1	3.5	3.41	0.0	No	n/a	0.0917327293318233	n/a	n/a	n/a	ISITrial	Mixed
195.034	3.0	0.03	285.728	14.0	1	5.68	2.84	18.4412	955.0	3.16	Outcome1	5.68	5.7	0.0	No	2.0	-0.0158550396375991	0.254	195.288	n/a	GetAnswer	Gain
195.302	4.0	0.014	285.996	14.0	1	5.68	2.84	18.4412	955.0	3.16	Outcome1	5.68	5.7	0.0	No	n/a	-0.0158550396375991	n/a	n/a	n/a	ShowChoice	Gain
199.314	1.0	0.012	290.008	14.0	1	5.68	2.84	18.4412	955.0	3.16	Outcome1	5.68	5.7	0.0	No	n/a	-0.0158550396375991	n/a	n/a	n/a	ShowResult	Gain
200.333	5.019	0.019	291.027	14.0	1	5.68	2.84	18.4412	955.0	3.16	Outcome1	5.68	5.7	0.0	No	n/a	-0.0158550396375991	n/a	n/a	n/a	ISITrial	Gain
205.382	3.0	0.03	296.076	15.0	1	5.1	2.5	19.0787	955.0	2.22	Outcome2	5.0	5.1	3.3485	Yes	2.0	0.0985277463193658	1.118	206.5	n/a	GetAnswer	Gain
206.519	4.0	0.019	297.213	15.0	1	5.1	2.5	19.0787	955.0	2.22	Outcome2	5.0	5.1	3.3485	Yes	n/a	0.0985277463193658	n/a	n/a	n/a	ShowChoice	Gain
210.531	1.0	0.012	301.225	15.0	1	5.1	2.5	19.0787	955.0	2.22	Outcome2	5.0	5.1	3.3485	Yes	n/a	0.0985277463193658	n/a	n/a	n/a	ShowResult	Gain
211.55	7.614	0.019	302.244	15.0	1	5.1	2.5	19.0787	955.0	2.22	Outcome2	5.0	5.1	3.3485	Yes	n/a	0.0985277463193658	n/a	n/a	n/a	ISITrial	Gain
219.19	3.348	0.026	309.884	15.0	1	5.1	2.5	19.0787	955.0	2.22	Outcome2	5.0	5.1	3.3485	Yes	n/a	0.0985277463193658	n/a	n/a	n/a	TrialHappPreview	Gain
222.567	4.012	0.029	313.261	15.0	1	5.1	2.5	19.0787	955.0	2.22	Outcome2	5.0	5.1	3.3485	Yes	n/a	0.0985277463193658	n/a	n/a	952.0	TrialHappiness	Gain
222.567	2.584	n/a	313.526	15.0	1	5.1	2.5	19.0787	955.0	2.22	Outcome2	5.0	5.1	3.3485	Yes	n/a	0.0985277463193658	n/a	n/a	952.0	TrialHappinessSliderResponse	Gain
226.579	5.394	4.012	317.273	15.0	1	5.1	2.5	19.0787	955.0	2.22	Outcome2	5.0	5.1	3.3485	Yes	n/a	0.0985277463193658	n/a	n/a	n/a	ISIRate	Gain
231.995	3.0	0.022	322.689	16.0	1	7.1	3.5	19.9662	955.0	2.22	Outcome2	7.0	7.1	0.0	No	2.0	0.101925254813137	0.943	232.938	n/a	GetAnswer	Gain
232.965	4.0	0.027	323.659	16.0	1	7.1	3.5	19.9662	955.0	2.22	Outcome2	7.0	7.1	0.0	No	n/a	0.101925254813137	n/a	n/a	n/a	ShowChoice	Gain
236.977	1.0	0.012	327.671	16.0	1	7.1	3.5	19.9662	955.0	2.22	Outcome2	7.0	7.1	0.0	No	n/a	0.101925254813137	n/a	n/a	n/a	ShowResult	Gain
237.996	3.008	0.019	328.69	16.0	1	7.1	3.5	19.9662	955.0	2.22	Outcome2	7.0	7.1	0.0	No	n/a	0.101925254813137	n/a	n/a	n/a	ISITrial	Gain
241.022	3.0	0.018	331.716	17.0	1	7.3	3.6	20.8787	955.0	2.48	Outcome2	7.19	7.3	3.0415	Yes	2.0	0.105322763306908	1.098	242.12	n/a	GetAnswer	Gain
242.142	4.0	0.021	332.836	17.0	1	7.3	3.6	20.8787	955.0	2.48	Outcome2	7.19	7.3	3.0415	Yes	n/a	0.105322763306908	n/a	n/a	n/a	ShowChoice	Gain
246.154	1.0	0.012	336.848	17.0	1	7.3	3.6	20.8787	955.0	2.48	Outcome2	7.19	7.3	3.0415	Yes	n/a	0.105322763306908	n/a	n/a	n/a	ShowResult	Gain
247.174	3.566	0.02	337.868	17.0	1	7.3	3.6	20.8787	955.0	2.48	Outcome2	7.19	7.3	3.0415	Yes	n/a	0.105322763306908	n/a	n/a	n/a	ISITrial	Gain
250.751	3.042	0.011	341.445	17.0	1	7.3	3.6	20.8787	955.0	2.48	Outcome2	7.19	7.3	3.0415	Yes	n/a	0.105322763306908	n/a	n/a	n/a	TrialHappPreview	Gain
253.81	4.012	0.017	344.504	17.0	1	7.3	3.6	20.8787	955.0	2.48	Outcome2	7.19	7.3	3.0415	Yes	n/a	0.105322763306908	n/a	n/a	952.0	TrialHappiness	Gain
253.811	1.934	n/a	344.836	17.0	1	7.3	3.6	20.8787	955.0	2.48	Outcome2	7.19	7.3	3.0415	Yes	n/a	0.105322763306908	n/a	n/a	952.0	TrialHappinessSliderResponse	Gain
257.822	4.166	4.012	348.516	17.0	1	7.3	3.6	20.8787	955.0	2.48	Outcome2	7.19	7.3	3.0415	Yes	n/a	0.105322763306908	n/a	n/a	n/a	ISIRate	Gain
262.018	3.0	0.03	352.712	18.0	1	6.1	3.0	21.6412	955.0	4.2	Outcome1	6.1	5.99	0.0	No	2.0	0.108720271800679	0.82	262.838	n/a	GetAnswer	Gain
262.854	4.0	0.016	353.548	18.0	1	6.1	3.0	21.6412	955.0	4.2	Outcome1	6.1	5.99	0.0	No	n/a	0.108720271800679	n/a	n/a	n/a	ShowChoice	Gain
266.866	1.0	0.012	357.56	18.0	1	6.1	3.0	21.6412	955.0	4.2	Outcome1	6.1	5.99	0.0	No	n/a	0.108720271800679	n/a	n/a	n/a	ShowResult	Gain
267.886	6.787	0.02	358.58	18.0	1	6.1	3.0	21.6412	955.0	4.2	Outcome1	6.1	5.99	0.0	No	n/a	0.108720271800679	n/a	n/a	n/a	ISITrial	Gain
274.69	3.0	0.017	365.384	19.0	1	5.3	2.6	22.3037	955.0	2.48	Outcome2	5.19	5.3	0.0	No	2.0	0.1121177802944509	0.889	275.579	n/a	GetAnswer	Gain
275.592	4.0	0.013	366.286	19.0	1	5.3	2.6	22.3037	955.0	2.48	Outcome2	5.19	5.3	0.0	No	n/a	0.1121177802944509	n/a	n/a	n/a	ShowChoice	Gain
279.604	1.0	0.012	370.298	19.0	1	5.3	2.6	22.3037	955.0	2.48	Outcome2	5.19	5.3	0.0	No	n/a	0.1121177802944509	n/a	n/a	n/a	ShowResult	Gain
280.624	2.0	0.02	371.318	19.0	1	5.3	2.6	22.3037	955.0	2.48	Outcome2	5.19	5.3	0.0	No	n/a	0.1121177802944509	n/a	n/a	n/a	ISITrial	Gain
282.647	3.0	0.023	373.341	20.0	1	4.88	2.44	22.9137	955.0	2.0	Outcome2	4.9	4.88	2.92125	Yes	2.0	-0.0175537938844847	0.983	283.63	n/a	GetAnswer	Gain
283.65	4.0	0.02	374.344	20.0	1	4.88	2.44	22.9137	955.0	2.0	Outcome2	4.9	4.88	2.92125	Yes	n/a	-0.0175537938844847	n/a	n/a	n/a	ShowChoice	Gain
287.662	1.0	0.012	378.356	20.0	1	4.88	2.44	22.9137	955.0	2.0	Outcome2	4.9	4.88	2.92125	Yes	n/a	-0.0175537938844847	n/a	n/a	n/a	ShowResult	Gain
288.681	8.0	0.019	379.375	20.0	1	4.88	2.44	22.9137	955.0	2.0	Outcome2	4.9	4.88	2.92125	Yes	n/a	-0.0175537938844847	n/a	n/a	n/a	ISITrial	Gain
296.706	2.921	0.025	387.4	20.0	1	4.88	2.44	22.9137	955.0	2.0	Outcome2	4.9	4.88	2.92125	Yes	n/a	-0.0175537938844847	n/a	n/a	n/a	TrialHappPreview	Gain
299.648	4.012	0.021	390.342	20.0	1	4.88	2.44	22.9137	955.0	2.0	Outcome2	4.9	4.88	2.92125	Yes	2{-2}2{-2}	-0.0175537938844847	2.883	302.531	952.0	TrialHappiness	Gain
299.648	2.428	n/a	390.797	20.0	1	4.88	2.44	22.9137	955.0	2.0	Outcome2	4.9	4.88	2.92125	Yes	n/a	-0.0175537938844847	n/a	n/a	952.0	TrialHappinessSliderResponse	Gain
303.66	3.685	4.012	394.354	20.0	1	4.88	2.44	22.9137	955.0	2.0	Outcome2	4.9	4.88	2.92125	Yes	n/a	-0.0175537938844847	n/a	n/a	n/a	ISIRate	Gain
307.371	3.0	0.026	398.065	21.0	1	1.08	1.0	23.0487	955.0	0.52	Outcome1	1.08	1.1	0.0	No	2.0	-0.017836919592299	1.911	309.282	n/a	GetAnswer	Mixed
309.31	4.0	0.028	400.004	21.0	1	1.08	1.0	23.0487	955.0	0.52	Outcome1	1.08	1.1	0.0	No	n/a	-0.017836919592299	n/a	n/a	n/a	ShowChoice	Mixed
313.322	1.0	0.012	404.016	21.0	1	1.08	1.0	23.0487	955.0	0.52	Outcome1	1.08	1.1	0.0	No	n/a	-0.017836919592299	n/a	n/a	n/a	ShowResult	Mixed
314.342	3.555	0.02	405.036	21.0	1	1.08	1.0	23.0487	955.0	0.52	Outcome1	1.08	1.1	0.0	No	n/a	-0.017836919592299	n/a	n/a	n/a	ISITrial	Mixed
317.919	3.0	0.022	408.613	22.0	1	10.08	5.04	24.3087	955.0	4.2	Outcome2	10.1	10.08	3.2195	Yes	2.0	-0.0181200453001133	1.056	318.975	n/a	GetAnswer	Gain
318.989	4.0	0.014	409.683	22.0	1	10.08	5.04	24.3087	955.0	4.2	Outcome2	10.1	10.08	3.2195	Yes	n/a	-0.0181200453001133	n/a	n/a	n/a	ShowChoice	Gain
323.001	1.0	0.012	413.695	22.0	1	10.08	5.04	24.3087	955.0	4.2	Outcome2	10.1	10.08	3.2195	Yes	n/a	-0.0181200453001133	n/a	n/a	n/a	ShowResult	Gain
324.021	6.793	0.02	414.715	22.0	1	10.08	5.04	24.3087	955.0	4.2	Outcome2	10.1	10.08	3.2195	Yes	n/a	-0.0181200453001133	n/a	n/a	n/a	ISITrial	Gain
330.841	3.22	0.027	421.535	22.0	1	10.08	5.04	24.3087	955.0	4.2	Outcome2	10.1	10.08	3.2195	Yes	n/a	-0.0181200453001133	n/a	n/a	n/a	TrialHappPreview	Gain
334.084	4.012	0.023	424.778	22.0	1	10.08	5.04	24.3087	955.0	4.2	Outcome2	10.1	10.08	3.2195	Yes	2{-2}	-0.0181200453001133	1.51	335.594	952.0	TrialHappiness	Gain
334.085	1.16	n/a	425.129	22.0	1	10.08	5.04	24.3087	955.0	4.2	Outcome2	10.1	10.08	3.2195	Yes	n/a	-0.0181200453001133	n/a	n/a	952.0	TrialHappinessSliderResponse	Gain
338.096	4.878	4.012	428.79	22.0	1	10.08	5.04	24.3087	955.0	4.2	Outcome2	10.1	10.08	3.2195	Yes	n/a	-0.0181200453001133	n/a	n/a	n/a	ISIRate	Gain
342.994	3.0	0.02	433.688	23.0	1	5.9	2.88	25.0462	955.0	3.6	Outcome2	5.77	5.9	0.0	No	2.0	0.1257078142695359	1.238	344.232	n/a	GetAnswer	Gain
344.248	4.0	0.016	434.942	23.0	1	5.9	2.88	25.0462	955.0	3.6	Outcome2	5.77	5.9	0.0	No	n/a	0.1257078142695359	n/a	n/a	n/a	ShowChoice	Gain
348.26	1.0	0.012	438.954	23.0	1	5.9	2.88	25.0462	955.0	3.6	Outcome2	5.77	5.9	0.0	No	n/a	0.1257078142695359	n/a	n/a	n/a	ShowResult	Gain
349.28	8.0	0.02	439.974	23.0	1	5.9	2.88	25.0462	955.0	3.6	Outcome2	5.77	5.9	0.0	No	n/a	0.1257078142695359	n/a	n/a	n/a	ISITrial	Gain
357.304	3.0	0.024	447.998	24.0	1	11.9	5.88	26.5337	955.0	3.6	Outcome2	11.77	11.9	3.255	Yes	2.0	0.129105322763307	0.99	358.294	n/a	GetAnswer	Loss
358.307	4.0	0.012	449.001	24.0	1	11.9	5.88	26.5337	955.0	3.6	Outcome2	11.77	11.9	3.255	Yes	n/a	0.129105322763307	n/a	n/a	n/a	ShowChoice	Loss
362.319	1.0	0.012	453.013	24.0	1	11.9	5.88	26.5337	955.0	3.6	Outcome2	11.77	11.9	3.255	Yes	n/a	0.129105322763307	n/a	n/a	n/a	ShowResult	Loss
363.339	2.0	0.02	454.033	24.0	1	11.9	5.88	26.5337	955.0	3.6	Outcome2	11.77	11.9	3.255	Yes	n/a	0.129105322763307	n/a	n/a	n/a	ISITrial	Loss
365.361	3.255	0.022	456.055	24.0	1	11.9	5.88	26.5337	955.0	3.6	Outcome2	11.77	11.9	3.255	Yes	n/a	0.129105322763307	n/a	n/a	n/a	TrialHappPreview	Loss
368.638	4.012	0.022	459.332	24.0	1	11.9	5.88	26.5337	955.0	3.6	Outcome2	11.77	11.9	3.255	Yes	n/a	0.129105322763307	n/a	n/a	952.0	TrialHappiness	Loss
368.638	2.063	n/a	459.78	24.0	1	11.9	5.88	26.5337	955.0	3.6	Outcome2	11.77	11.9	3.255	Yes	n/a	0.129105322763307	n/a	n/a	952.0	TrialHappinessSliderResponse	Loss
372.65	5.02	4.012	463.344	24.0	1	11.9	5.88	26.5337	955.0	3.6	Outcome2	11.77	11.9	3.255	Yes	n/a	0.129105322763307	n/a	n/a	n/a	ISIRate	Loss
377.698	3.0	0.028	468.392	25.0	1	1.7	1.0	26.7462	955.0	1.0	Outcome2	1.57	1.7	0.0	No	2.0	0.1325028312570779	0.848	378.546	n/a	GetAnswer	Mixed
378.567	4.0	0.021	469.261	25.0	1	1.7	1.0	26.7462	955.0	1.0	Outcome2	1.57	1.7	0.0	No	n/a	0.1325028312570779	n/a	n/a	n/a	ShowChoice	Mixed
382.596	1.0	0.029	473.29	25.0	1	1.7	1.0	26.7462	955.0	1.0	Outcome2	1.57	1.7	0.0	No	n/a	0.1325028312570779	n/a	n/a	n/a	ShowResult	Mixed
383.616	3.749	0.02	474.31	25.0	1	1.7	1.0	26.7462	955.0	1.0	Outcome2	1.57	1.7	0.0	No	n/a	0.1325028312570779	n/a	n/a	n/a	ISITrial	Mixed
387.394	3.0	0.029	478.088	26.0	1	6.7	3.28	27.5837	955.0	1.82	Outcome2	6.56	6.7	0.0	No	2.0	0.135900339750849	1.273	388.667	n/a	GetAnswer	Gain
388.681	4.0	0.014	479.375	26.0	1	6.7	3.28	27.5837	955.0	1.82	Outcome2	6.56	6.7	0.0	No	n/a	0.135900339750849	n/a	n/a	n/a	ShowChoice	Gain
392.693	1.0	0.012	483.387	26.0	1	6.7	3.28	27.5837	955.0	1.82	Outcome2	6.56	6.7	0.0	No	n/a	0.135900339750849	n/a	n/a	n/a	ShowResult	Gain
393.713	7.834	0.02	484.407	26.0	1	6.7	3.28	27.5837	955.0	1.82	Outcome2	6.56	6.7	0.0	No	n/a	0.135900339750849	n/a	n/a	n/a	ISITrial	Gain
401.57	3.0	0.023	492.264	27.0	1	3.1	1.48	27.9712	955.0	0.52	Outcome1	3.1	2.96	2.54975	Yes	2.0	0.139297848244621	1.215	402.785	n/a	GetAnswer	Mixed
402.807	4.0	0.022	493.501	27.0	1	3.1	1.48	27.9712	955.0	0.52	Outcome1	3.1	2.96	2.54975	Yes	n/a	0.139297848244621	n/a	n/a	n/a	ShowChoice	Mixed
406.836	1.0	0.029	497.53	27.0	1	3.1	1.48	27.9712	955.0	0.52	Outcome1	3.1	2.96	2.54975	Yes	n/a	0.139297848244621	n/a	n/a	n/a	ShowResult	Mixed
407.855	4.225	0.019	498.549	27.0	1	3.1	1.48	27.9712	955.0	0.52	Outcome1	3.1	2.96	2.54975	Yes	n/a	0.139297848244621	n/a	n/a	n/a	ISITrial	Mixed
412.101	2.55	0.021	502.795	27.0	1	3.1	1.48	27.9712	955.0	0.52	Outcome1	3.1	2.96	2.54975	Yes	n/a	0.139297848244621	n/a	n/a	n/a	TrialHappPreview	Mixed
414.676	4.012	0.025	505.37	27.0	1	3.1	1.48	27.9712	955.0	0.52	Outcome1	3.1	2.96	2.54975	Yes	n/a	0.139297848244621	n/a	n/a	952.0	TrialHappiness	Mixed
414.676	1.25	n/a	505.797	27.0	1	3.1	1.48	27.9712	955.0	0.52	Outcome1	3.1	2.96	2.54975	Yes	n/a	0.139297848244621	n/a	n/a	952.0	TrialHappinessSliderResponse	Mixed
418.688	2.199	4.012	509.382	27.0	1	3.1	1.48	27.9712	955.0	0.52	Outcome1	3.1	2.96	2.54975	Yes	n/a	0.139297848244621	n/a	n/a	n/a	ISIRate	Mixed
461.45	1.266	n/a	552.472	n/a	1	n/a	n/a	n/a	n/a	n/a	n/a	n/a	n/a	n/a	n/a	n/a	n/a	n/a	n/a	952.0	BlockStartHappinessSliderResponse	n/a
-51.036	-0.001	0.024	511.605	n/a	2	n/a	n/a	n/a	n/a	n/a	n/a	n/a	n/a	n/a	n/a	{SPACE}	n/a	36.505	-14.531	n/a	Rest	n/a
-14.51	4.0	0.021	548.131	n/a	2	n/a	n/a	n/a	n/a	n/a	n/a	n/a	n/a	n/a	n/a	n/a	n/a	n/a	n/a	n/a	BlockHappyPreview	n/a
-10.498	1.594	0.012	552.143	n/a	2	n/a	n/a	n/a	n/a	n/a	n/a	n/a	n/a	n/a	n/a	n/a	n/a	n/a	n/a	952.0	BlockStartHappiness	n/a
-2.825	-0.001	0.01	559.816	n/a	2	n/a	n/a	n/a	n/a	n/a	n/a	n/a	n/a	n/a	n/a	5.0	n/a	2.808	-0.017	n/a	ScanWait	n/a
0.0	10.0	0.017	562.641	n/a	2	n/a	n/a	n/a	n/a	n/a	n/a	n/a	n/a	n/a	n/a	n/a	n/a	n/a	n/a	n/a	GetReady	n/a
10.03	3.0	0.03	572.671	28.0	2	-13.1	-5.0	26.3337	70.0	1.2	Outcome1	-13.1	1.9	0.0	No	n/a	-15.0	n/a	n/a	n/a	GetAnswer	Mixed
13.056	4.0	0.026	575.697	28.0	2	-13.1	-5.0	26.3337	70.0	1.2	Outcome1	-13.1	1.9	0.0	No	n/a	-15.0	n/a	n/a	n/a	ShowChoice	Mixed
17.068	1.0	0.012	579.709	28.0	2	-13.1	-5.0	26.3337	70.0	1.2	Outcome1	-13.1	1.9	0.0	No	n/a	-15.0	n/a	n/a	n/a	ShowResult	Mixed
18.088	3.575	0.02	580.729	28.0	2	-13.1	-5.0	26.3337	70.0	1.2	Outcome1	-13.1	1.9	0.0	No	n/a	-15.0	n/a	n/a	n/a	ISITrial	Mixed
21.682	3.0	0.019	584.323	29.0	2	0.0	0.0	26.3337	70.0	2.48	Certain	-1.34	2.33	3.529	Yes	4.0	3.6666666666666696	0.95	22.632	n/a	GetAnswer	Gain
22.651	4.0	0.019	585.292	29.0	2	0.0	0.0	26.3337	70.0	2.48	Certain	-1.34	2.33	3.529	Yes	n/a	3.6666666666666696	n/a	n/a	n/a	ShowChoice	Gain
26.663	1.0	0.012	589.304	29.0	2	0.0	0.0	26.3337	70.0	2.48	Certain	-1.34	2.33	3.529	Yes	n/a	3.6666666666666696	n/a	n/a	n/a	ShowResult	Gain
27.683	3.955	0.02	590.324	29.0	2	0.0	0.0	26.3337	70.0	2.48	Certain	-1.34	2.33	3.529	Yes	n/a	3.6666666666666696	n/a	n/a	n/a	ISITrial	Gain
31.662	3.529	0.024	594.303	29.0	2	0.0	0.0	26.3337	70.0	2.48	Certain	-1.34	2.33	3.529	Yes	n/a	3.6666666666666696	n/a	n/a	n/a	TrialHappPreview	Gain
35.206	4.012	0.015	597.847	29.0	2	0.0	0.0	26.3337	70.0	2.48	Certain	-1.34	2.33	3.529	Yes	n/a	3.6666666666666696	n/a	n/a	852.0	TrialHappiness	Gain
35.206	3.208	n/a	598.274	29.0	2	0.0	0.0	26.3337	70.0	2.48	Certain	-1.34	2.33	3.529	Yes	n/a	3.6666666666666696	n/a	n/a	852.0	TrialHappinessSliderResponse	Gain
39.218	6.116	4.012	601.859	29.0	2	0.0	0.0	26.3337	70.0	2.48	Certain	-1.34	2.33	3.529	Yes	n/a	3.6666666666666696	n/a	n/a	n/a	ISIRate	Gain
45.353	3.0	0.019	607.994	30.0	2	-2.4	-1.2	26.0337	70.0	2.0	Outcome1	-2.4	12.9	0.0	No	2.0	-15.2993197278912	2.203	47.556	n/a	GetAnswer	Loss
47.576	4.0	0.02	610.217	30.0	2	-2.4	-1.2	26.0337	70.0	2.0	Outcome1	-2.4	12.9	0.0	No	n/a	-15.2993197278912	n/a	n/a	n/a	ShowChoice	Loss
51.588	1.0	0.012	614.229	30.0	2	-2.4	-1.2	26.0337	70.0	2.0	Outcome1	-2.4	12.9	0.0	No	n/a	-15.2993197278912	n/a	n/a	n/a	ShowResult	Loss
52.608	4.453	0.02	615.249	30.0	2	-2.4	-1.2	26.0337	70.0	2.0	Outcome1	-2.4	12.9	0.0	No	n/a	-15.2993197278912	n/a	n/a	n/a	ISITrial	Loss
57.088	3.0	0.027	619.729	31.0	2	-1.0	-1.0	25.9087	70.0	1.0	Certain	0.92	-2.5	2.50325	Yes	4.0	3.41761148904006	2.273	59.361	n/a	GetAnswer	Mixed
59.378	4.0	0.017	622.019	31.0	2	-1.0	-1.0	25.9087	70.0	1.0	Certain	0.92	-2.5	2.50325	Yes	n/a	3.41761148904006	n/a	n/a	n/a	ShowChoice	Mixed
63.39	1.0	0.012	626.031	31.0	2	-1.0	-1.0	25.9087	70.0	1.0	Certain	0.92	-2.5	2.50325	Yes	n/a	3.41761148904006	n/a	n/a	n/a	ShowResult	Mixed
64.41	4.786	0.02	627.051	31.0	2	-1.0	-1.0	25.9087	70.0	1.0	Certain	0.92	-2.5	2.50325	Yes	n/a	3.41761148904006	n/a	n/a	n/a	ISITrial	Mixed
69.208	2.503	0.012	631.849	31.0	2	-1.0	-1.0	25.9087	70.0	1.0	Certain	0.92	-2.5	2.50325	Yes	n/a	3.41761148904006	n/a	n/a	n/a	TrialHappPreview	Mixed
71.732	4.012	0.021	634.373	31.0	2	-1.0	-1.0	25.9087	70.0	1.0	Certain	0.92	-2.5	2.50325	Yes	n/a	3.41761148904006	n/a	n/a	460.0	TrialHappiness	Mixed
71.732	1.2	n/a	634.982	31.0	2	-1.0	-1.0	25.9087	70.0	1.0	Certain	0.92	-2.5	2.50325	Yes	n/a	3.41761148904006	n/a	n/a	460.0	TrialHappinessSliderResponse	Mixed
75.744	2.013	4.012	638.385	31.0	2	-1.0	-1.0	25.9087	70.0	1.0	Certain	0.92	-2.5	2.50325	Yes	n/a	3.41761148904006	n/a	n/a	n/a	ISIRate	Mixed
77.783	3.0	0.026	640.424	32.0	2	2.72	2.0	26.2487	70.0	2.0	Outcome2	0.82	2.72	0.0	No	2.0	1.8989040060468605	1.967	79.75	n/a	GetAnswer	Loss
79.773	4.0	0.023	642.414	32.0	2	2.72	2.0	26.2487	70.0	2.0	Outcome2	0.82	2.72	0.0	No	n/a	1.8989040060468605	n/a	n/a	n/a	ShowChoice	Loss
83.785	1.0	0.012	646.426	32.0	2	2.72	2.0	26.2487	70.0	2.0	Outcome2	0.82	2.72	0.0	No	n/a	1.8989040060468605	n/a	n/a	n/a	ShowResult	Loss
84.804	2.0	0.019	647.445	32.0	2	2.72	2.0	26.2487	70.0	2.0	Outcome2	0.82	2.72	0.0	No	n/a	1.8989040060468605	n/a	n/a	n/a	ISITrial	Loss
86.827	3.0	0.023	649.468	33.0	2	0.0	0.0	26.2487	70.0	1.5	Certain	-0.92	1.02	0.0	No	4.0	1.93575207860922	2.257	89.084	n/a	GetAnswer	Mixed
89.101	4.0	0.017	651.742	33.0	2	0.0	0.0	26.2487	70.0	1.5	Certain	-0.92	1.02	0.0	No	n/a	1.93575207860922	n/a	n/a	n/a	ShowChoice	Mixed
93.113	1.0	0.012	655.754	33.0	2	0.0	0.0	26.2487	70.0	1.5	Certain	-0.92	1.02	0.0	No	n/a	1.93575207860922	n/a	n/a	n/a	ShowResult	Mixed
94.132	5.099	0.019	656.773	33.0	2	0.0	0.0	26.2487	70.0	1.5	Certain	-0.92	1.02	0.0	No	n/a	1.93575207860922	n/a	n/a	n/a	ISITrial	Mixed
99.248	3.0	0.017	661.889	34.0	2	-0.99	-0.5	26.1249	70.0	5.0	Outcome1	-0.99	10.3	3.2315	Yes	2.0	-11.2902494331066	2.168	101.416	n/a	GetAnswer	Gain
101.438	4.0	0.022	664.079	34.0	2	-0.99	-0.5	26.1249	70.0	5.0	Outcome1	-0.99	10.3	3.2315	Yes	n/a	-11.2902494331066	n/a	n/a	n/a	ShowChoice	Gain
105.45	1.0	0.012	668.091	34.0	2	-0.99	-0.5	26.1249	70.0	5.0	Outcome1	-0.99	10.3	3.2315	Yes	n/a	-11.2902494331066	n/a	n/a	n/a	ShowResult	Gain
106.469	4.784	0.019	669.11	34.0	2	-0.99	-0.5	26.1249	70.0	5.0	Outcome1	-0.99	10.3	3.2315	Yes	n/a	-11.2902494331066	n/a	n/a	n/a	ISITrial	Gain
111.267	3.232	0.014	673.908	34.0	2	-0.99	-0.5	26.1249	70.0	5.0	Outcome1	-0.99	10.3	3.2315	Yes	n/a	-11.2902494331066	n/a	n/a	n/a	TrialHappPreview	Gain
114.527	4.012	0.028	677.168	34.0	2	-0.99	-0.5	26.1249	70.0	5.0	Outcome1	-0.99	10.3	3.2315	Yes	n/a	-11.2902494331066	n/a	n/a	536.0	TrialHappiness	Gain
114.527	0.921	n/a	679.132	34.0	2	-0.99	-0.5	26.1249	70.0	5.0	Outcome1	-0.99	10.3	3.2315	Yes	n/a	-11.2902494331066	n/a	n/a	536.0	TrialHappinessSliderResponse	Gain
118.539	4.926	4.012	681.18	34.0	2	-0.99	-0.5	26.1249	70.0	5.0	Outcome1	-0.99	10.3	3.2315	Yes	n/a	-11.2902494331066	n/a	n/a	n/a	ISIRate	Gain
123.487	3.0	0.022	686.128	35.0	2	0.0	0.0	26.1249	70.0	2.0	Certain	-0.6	1.72	0.0	No	4.0	2.3182161753590296	1.735	125.222	n/a	GetAnswer	Gain
125.242	4.0	0.019	687.883	35.0	2	0.0	0.0	26.1249	70.0	2.0	Certain	-0.6	1.72	0.0	No	n/a	2.3182161753590296	n/a	n/a	n/a	ShowChoice	Gain
129.254	1.0	0.012	691.895	35.0	2	0.0	0.0	26.1249	70.0	2.0	Certain	-0.6	1.72	0.0	No	n/a	2.3182161753590296	n/a	n/a	n/a	ShowResult	Gain
130.274	2.098	0.02	692.915	35.0	2	0.0	0.0	26.1249	70.0	2.0	Certain	-0.6	1.72	0.0	No	n/a	2.3182161753590296	n/a	n/a	n/a	ISITrial	Gain
132.397	3.0	0.025	695.038	36.0	2	-4.0	-4.0	25.6249	70.0	0.4	Certain	-10.65	2.9	3.33575	Yes	4.0	-13.5532879818594	2.101	134.498	n/a	GetAnswer	Mixed
134.52	4.0	0.022	697.161	36.0	2	-4.0	-4.0	25.6249	70.0	0.4	Certain	-10.65	2.9	3.33575	Yes	n/a	-13.5532879818594	n/a	n/a	n/a	ShowChoice	Mixed
138.532	1.0	0.012	701.173	36.0	2	-4.0	-4.0	25.6249	70.0	0.4	Certain	-10.65	2.9	3.33575	Yes	n/a	-13.5532879818594	n/a	n/a	n/a	ShowResult	Mixed
139.552	5.156	0.02	702.193	36.0	2	-4.0	-4.0	25.6249	70.0	0.4	Certain	-10.65	2.9	3.33575	Yes	n/a	-13.5532879818594	n/a	n/a	n/a	ISITrial	Mixed
144.734	3.336	0.026	707.375	36.0	2	-4.0	-4.0	25.6249	70.0	0.4	Certain	-10.65	2.9	3.33575	Yes	n/a	-13.5532879818594	n/a	n/a	n/a	TrialHappPreview	Mixed
148.094	4.012	0.024	710.735	36.0	2	-4.0	-4.0	25.6249	70.0	0.4	Certain	-10.65	2.9	3.33575	Yes	4{-4}4{-4}	-13.5532879818594	1.16	149.254	456.0	TrialHappiness	Mixed
148.095	0.688	n/a	711.208	36.0	2	-4.0	-4.0	25.6249	70.0	0.4	Certain	-10.65	2.9	3.33575	Yes	n/a	-13.5532879818594	n/a	n/a	456.0	TrialHappinessSliderResponse	Mixed
152.106	5.343	4.012	714.747	36.0	2	-4.0	-4.0	25.6249	70.0	0.4	Certain	-10.65	2.9	3.33575	Yes	n/a	-13.5532879818594	n/a	n/a	n/a	ISIRate	Mixed
157.472	3.0	0.023	720.113	37.0	2	0.98	0.49	25.7474	70.0	3.16	Outcome1	0.98	13.7	0.0	No	2.0	-12.7210884353741	1.203	158.675	n/a	GetAnswer	Loss
158.692	4.0	0.017	721.333	37.0	2	0.98	0.49	25.7474	70.0	3.16	Outcome1	0.98	13.7	0.0	No	n/a	-12.7210884353741	n/a	n/a	n/a	ShowChoice	Loss
162.704	1.0	0.012	725.345	37.0	2	0.98	0.49	25.7474	70.0	3.16	Outcome1	0.98	13.7	0.0	No	n/a	-12.7210884353741	n/a	n/a	n/a	ShowResult	Loss
163.724	3.598	0.02	726.365	37.0	2	0.98	0.49	25.7474	70.0	3.16	Outcome1	0.98	13.7	0.0	No	n/a	-12.7210884353741	n/a	n/a	n/a	ISITrial	Loss
167.352	3.0	0.03	729.993	38.0	2	3.08	2.0	26.1324	70.0	5.0	Outcome2	0.96	3.08	0.0	No	n/a	2.11772486772487	n/a	n/a	n/a	GetAnswer	Loss
170.377	4.0	0.025	733.018	38.0	2	3.08	2.0	26.1324	70.0	5.0	Outcome2	0.96	3.08	0.0	No	n/a	2.11772486772487	n/a	n/a	n/a	ShowChoice	Loss
174.389	1.0	0.012	737.03	38.0	2	3.08	2.0	26.1324	70.0	5.0	Outcome2	0.96	3.08	0.0	No	n/a	2.11772486772487	n/a	n/a	n/a	ShowResult	Loss
175.409	4.787	0.02	738.05	38.0	2	3.08	2.0	26.1324	70.0	5.0	Outcome2	0.96	3.08	0.0	No	n/a	2.11772486772487	n/a	n/a	n/a	ISITrial	Loss
180.224	3.0	0.028	742.865	39.0	2	1.98	1.0	26.3799	70.0	3.6	Outcome1	1.98	-0.17	2.86425	Yes	n/a	2.1541950113378703	n/a	n/a	n/a	GetAnswer	Gain
183.249	4.0	0.025	745.89	39.0	2	1.98	1.0	26.3799	70.0	3.6	Outcome1	1.98	-0.17	2.86425	Yes	n/a	2.1541950113378703	n/a	n/a	n/a	ShowChoice	Gain
187.261	1.0	0.012	749.902	39.0	2	1.98	1.0	26.3799	70.0	3.6	Outcome1	1.98	-0.17	2.86425	Yes	n/a	2.1541950113378703	n/a	n/a	n/a	ShowResult	Gain
188.281	2.348	0.02	750.922	39.0	2	1.98	1.0	26.3799	70.0	3.6	Outcome1	1.98	-0.17	2.86425	Yes	n/a	2.1541950113378703	n/a	n/a	n/a	ISITrial	Gain
190.655	2.864	0.026	753.296	39.0	2	1.98	1.0	26.3799	70.0	3.6	Outcome1	1.98	-0.17	2.86425	Yes	n/a	2.1541950113378703	n/a	n/a	n/a	TrialHappPreview	Gain
193.547	4.012	0.028	756.188	39.0	2	1.98	1.0	26.3799	70.0	3.6	Outcome1	1.98	-0.17	2.86425	Yes	n/a	2.1541950113378703	n/a	n/a	772.0	TrialHappiness	Gain
193.548	1.767	n/a	756.473	39.0	2	1.98	1.0	26.3799	70.0	3.6	Outcome1	1.98	-0.17	2.86425	Yes	n/a	2.1541950113378703	n/a	n/a	772.0	TrialHappinessSliderResponse	Gain
197.559	3.457	4.012	760.2	39.0	2	1.98	1.0	26.3799	70.0	3.6	Outcome1	1.98	-0.17	2.86425	Yes	n/a	2.1541950113378703	n/a	n/a	n/a	ISIRate	Gain
201.036	3.0	0.02	763.677	40.0	2	-2.0	-2.0	26.1299	70.0	0.4	Certain	-3.75	-0.28	0.0	No	4.0	3.47448979591837	2.916	203.952	n/a	GetAnswer	Mixed
203.978	4.0	0.026	766.619	40.0	2	-2.0	-2.0	26.1299	70.0	0.4	Certain	-3.75	-0.28	0.0	No	n/a	3.47448979591837	n/a	n/a	n/a	ShowChoice	Mixed
207.99	1.0	0.012	770.631	40.0	2	-2.0	-2.0	26.1299	70.0	0.4	Certain	-3.75	-0.28	0.0	No	n/a	3.47448979591837	n/a	n/a	n/a	ShowResult	Mixed
209.01	3.158	0.02	771.651	40.0	2	-2.0	-2.0	26.1299	70.0	0.4	Certain	-3.75	-0.28	0.0	No	n/a	3.47448979591837	n/a	n/a	n/a	ISITrial	Mixed
212.186	3.0	0.018	774.827	41.0	2	-7.0	-7.0	25.2549	70.0	0.3	Certain	-17.5	2.7	4.0	Yes	4.0	-20.2040816326531	1.474	213.66	n/a	GetAnswer	Mixed
213.674	4.0	0.014	776.315	41.0	2	-7.0	-7.0	25.2549	70.0	0.3	Certain	-17.5	2.7	4.0	Yes	n/a	-20.2040816326531	n/a	n/a	n/a	ShowChoice	Mixed
217.686	1.0	0.012	780.327	41.0	2	-7.0	-7.0	25.2549	70.0	0.3	Certain	-17.5	2.7	4.0	Yes	n/a	-20.2040816326531	n/a	n/a	n/a	ShowResult	Mixed
218.706	4.506	0.02	781.347	41.0	2	-7.0	-7.0	25.2549	70.0	0.3	Certain	-17.5	2.7	4.0	Yes	n/a	-20.2040816326531	n/a	n/a	n/a	ISITrial	Mixed
223.236	4.0	0.024	785.877	41.0	2	-7.0	-7.0	25.2549	70.0	0.3	Certain	-17.5	2.7	4.0	Yes	n/a	-20.2040816326531	n/a	n/a	n/a	TrialHappPreview	Mixed
227.265	4.012	0.029	789.906	41.0	2	-7.0	-7.0	25.2549	70.0	0.3	Certain	-17.5	2.7	4.0	Yes	n/a	-20.2040816326531	n/a	n/a	384.0	TrialHappiness	Mixed
227.265	3.298	n/a	790.226	41.0	2	-7.0	-7.0	25.2549	70.0	0.3	Certain	-17.5	2.7	4.0	Yes	n/a	-20.2040816326531	n/a	n/a	384.0	TrialHappinessSliderResponse	Mixed
231.277	8.0	4.012	793.918	41.0	2	-7.0	-7.0	25.2549	70.0	0.3	Certain	-17.5	2.7	4.0	Yes	n/a	-20.2040816326531	n/a	n/a	n/a	ISIRate	Mixed
239.301	3.0	0.024	801.942	42.0	2	1.92	1.0	25.4949	70.0	3.16	Outcome2	-0.11	1.92	0.0	No	2.0	2.03080120937264	1.842	241.143	n/a	GetAnswer	Gain
241.156	4.0	0.013	803.797	42.0	2	1.92	1.0	25.4949	70.0	3.16	Outcome2	-0.11	1.92	0.0	No	n/a	2.03080120937264	n/a	n/a	n/a	ShowChoice	Gain
245.168	1.0	0.012	807.809	42.0	2	1.92	1.0	25.4949	70.0	3.16	Outcome2	-0.11	1.92	0.0	No	n/a	2.03080120937264	n/a	n/a	n/a	ShowResult	Gain
246.188	6.248	0.02	808.829	42.0	2	1.92	1.0	25.4949	70.0	3.16	Outcome2	-0.11	1.92	0.0	No	n/a	2.03080120937264	n/a	n/a	n/a	ISITrial	Gain
252.457	3.0	0.021	815.098	43.0	2	-1.26	-0.63	25.3374	70.0	2.8	Outcome2	13.5	-1.26	2.77575	Yes	2.0	-14.7573696145125	1.588	254.045	n/a	GetAnswer	Loss
254.062	4.0	0.017	816.703	43.0	2	-1.26	-0.63	25.3374	70.0	2.8	Outcome2	13.5	-1.26	2.77575	Yes	n/a	-14.7573696145125	n/a	n/a	n/a	ShowChoice	Loss
258.074	1.0	0.012	820.715	43.0	2	-1.26	-0.63	25.3374	70.0	2.8	Outcome2	13.5	-1.26	2.77575	Yes	n/a	-14.7573696145125	n/a	n/a	n/a	ShowResult	Loss
259.093	4.596	0.019	821.734	43.0	2	-1.26	-0.63	25.3374	70.0	2.8	Outcome2	13.5	-1.26	2.77575	Yes	n/a	-14.7573696145125	n/a	n/a	n/a	ISITrial	Loss
263.707	2.776	0.018	826.348	43.0	2	-1.26	-0.63	25.3374	70.0	2.8	Outcome2	13.5	-1.26	2.77575	Yes	n/a	-14.7573696145125	n/a	n/a	n/a	TrialHappPreview	Loss
266.499	4.012	0.016	829.14	43.0	2	-1.26	-0.63	25.3374	70.0	2.8	Outcome2	13.5	-1.26	2.77575	Yes	4{-4}4{-4}4{-4}	-14.7573696145125	3.419	269.918	404.0	TrialHappiness	Loss
266.499	2.817	n/a	829.742	43.0	2	-1.26	-0.63	25.3374	70.0	2.8	Outcome2	13.5	-1.26	2.77575	Yes	n/a	-14.7573696145125	n/a	n/a	404.0	TrialHappinessSliderResponse	Loss
270.511	3.103	4.012	833.152	43.0	2	-1.26	-0.63	25.3374	70.0	2.8	Outcome2	13.5	-1.26	2.77575	Yes	n/a	-14.7573696145125	n/a	n/a	n/a	ISIRate	Loss
273.637	3.0	0.023	836.278	44.0	2	1.58	0.0	25.5349	70.0	5.0	Outcome1	1.58	-0.59	0.0	No	n/a	2.17139077853364	n/a	n/a	n/a	GetAnswer	Gain
276.663	4.0	0.026	839.304	44.0	2	1.58	0.0	25.5349	70.0	5.0	Outcome1	1.58	-0.59	0.0	No	n/a	2.17139077853364	n/a	n/a	n/a	ShowChoice	Gain
280.675	1.0	0.012	843.316	44.0	2	1.58	0.0	25.5349	70.0	5.0	Outcome1	1.58	-0.59	0.0	No	n/a	2.17139077853364	n/a	n/a	n/a	ShowResult	Gain
281.694	2.42	0.019	844.335	44.0	2	1.58	0.0	25.5349	70.0	5.0	Outcome1	1.58	-0.59	0.0	No	n/a	2.17139077853364	n/a	n/a	n/a	ISITrial	Gain
284.135	3.0	0.021	846.776	45.0	2	-17.13	-9.0	23.3936	70.0	0.3	Outcome2	-1.3	-17.13	0.0	No	2.0	-15.8321995464853	2.72	286.855	n/a	GetAnswer	Mixed
286.877	4.0	0.022	849.518	45.0	2	-17.13	-9.0	23.3936	70.0	0.3	Outcome2	-1.3	-17.13	0.0	No	n/a	-15.8321995464853	n/a	n/a	n/a	ShowChoice	Mixed
290.889	1.0	0.012	853.53	45.0	2	-17.13	-9.0	23.3936	70.0	0.3	Outcome2	-1.3	-17.13	0.0	No	n/a	-15.8321995464853	n/a	n/a	n/a	ShowResult	Mixed
291.908	3.144	0.019	854.549	45.0	2	-17.13	-9.0	23.3936	70.0	0.3	Outcome2	-1.3	-17.13	0.0	No	n/a	-15.8321995464853	n/a	n/a	n/a	ISITrial	Mixed
295.068	3.0	0.016	857.709	46.0	2	-15.31	-7.0	21.4798	70.0	0.4	Outcome1	-15.31	0.9	3.84125	Yes	n/a	-16.210884353741502	n/a	n/a	n/a	GetAnswer	Mixed
298.093	4.0	0.025	860.734	46.0	2	-15.31	-7.0	21.4798	70.0	0.4	Outcome1	-15.31	0.9	3.84125	Yes	n/a	-16.210884353741502	n/a	n/a	n/a	ShowChoice	Mixed
302.105	1.0	0.012	864.746	46.0	2	-15.31	-7.0	21.4798	70.0	0.4	Outcome1	-15.31	0.9	3.84125	Yes	n/a	-16.210884353741502	n/a	n/a	n/a	ShowResult	Mixed
303.125	2.246	0.02	865.766	46.0	2	-15.31	-7.0	21.4798	70.0	0.4	Outcome1	-15.31	0.9	3.84125	Yes	n/a	-16.210884353741502	n/a	n/a	n/a	ISITrial	Mixed
305.382	3.841	0.011	868.023	46.0	2	-15.31	-7.0	21.4798	70.0	0.4	Outcome1	-15.31	0.9	3.84125	Yes	n/a	-16.210884353741502	n/a	n/a	n/a	TrialHappPreview	Mixed
309.244	4.012	0.021	871.885	46.0	2	-15.31	-7.0	21.4798	70.0	0.4	Outcome1	-15.31	0.9	3.84125	Yes	n/a	-16.210884353741502	n/a	n/a	232.0	TrialHappiness	Mixed
309.244	1.21	n/a	872.153	46.0	2	-15.31	-7.0	21.4798	70.0	0.4	Outcome1	-15.31	0.9	3.84125	Yes	n/a	-16.210884353741502	n/a	n/a	232.0	TrialHappinessSliderResponse	Mixed
313.256	7.365	4.012	875.897	46.0	2	-15.31	-7.0	21.4798	70.0	0.4	Outcome1	-15.31	0.9	3.84125	Yes	n/a	-16.210884353741502	n/a	n/a	n/a	ISIRate	Mixed
320.644	3.0	0.023	883.285	47.0	2	-12.36	-5.0	19.9348	70.0	0.66	Outcome1	-12.36	1.3	0.0	No	n/a	-13.6643990929705	n/a	n/a	n/a	GetAnswer	Mixed
323.67	4.0	0.026	886.311	47.0	2	-12.36	-5.0	19.9348	70.0	0.66	Outcome1	-12.36	1.3	0.0	No	n/a	-13.6643990929705	n/a	n/a	n/a	ShowChoice	Mixed
327.682	1.0	0.012	890.323	47.0	2	-12.36	-5.0	19.9348	70.0	0.66	Outcome1	-12.36	1.3	0.0	No	n/a	-13.6643990929705	n/a	n/a	n/a	ShowResult	Mixed
328.702	2.0	0.02	891.343	47.0	2	-12.36	-5.0	19.9348	70.0	0.66	Outcome1	-12.36	1.3	0.0	No	n/a	-13.6643990929705	n/a	n/a	n/a	ISITrial	Mixed
330.725	3.0	0.023	893.366	48.0	2	-7.35	0.0	19.016	70.0	1.68	Outcome2	6.5	-7.35	2.83175	Yes	2.0	-13.8480725623583	1.451	332.176	n/a	GetAnswer	Gain
332.196	4.0	0.02	894.837	48.0	2	-7.35	0.0	19.016	70.0	1.68	Outcome2	6.5	-7.35	2.83175	Yes	n/a	-13.8480725623583	n/a	n/a	n/a	ShowChoice	Gain
336.208	1.0	0.012	898.849	48.0	2	-7.35	0.0	19.016	70.0	1.68	Outcome2	6.5	-7.35	2.83175	Yes	n/a	-13.8480725623583	n/a	n/a	n/a	ShowResult	Gain
337.227	3.692	0.019	899.868	48.0	2	-7.35	0.0	19.016	70.0	1.68	Outcome2	6.5	-7.35	2.83175	Yes	n/a	-13.8480725623583	n/a	n/a	n/a	ISITrial	Gain
340.939	2.832	0.02	903.58	48.0	2	-7.35	0.0	19.016	70.0	1.68	Outcome2	6.5	-7.35	2.83175	Yes	n/a	-13.8480725623583	n/a	n/a	n/a	TrialHappPreview	Gain
343.797	4.012	0.026	906.438	48.0	2	-7.35	0.0	19.016	70.0	1.68	Outcome2	6.5	-7.35	2.83175	Yes	n/a	-13.8480725623583	n/a	n/a	72.0	TrialHappiness	Gain
343.798	1.202	n/a	906.698	48.0	2	-7.35	0.0	19.016	70.0	1.68	Outcome2	6.5	-7.35	2.83175	Yes	n/a	-13.8480725623583	n/a	n/a	72.0	TrialHappinessSliderResponse	Gain
347.809	3.327	4.012	910.45	48.0	2	-7.35	0.0	19.016	70.0	1.68	Outcome2	6.5	-7.35	2.83175	Yes	n/a	-13.8480725623583	n/a	n/a	n/a	ISIRate	Gain
351.152	3.0	0.016	913.793	49.0	2	0.0	0.0	19.016	70.0	1.0	Certain	-0.08	-1.03	0.0	No	4.0	0.947845804988662	1.369	352.521	n/a	GetAnswer	Mixed
352.54	4.0	0.019	915.181	49.0	2	0.0	0.0	19.016	70.0	1.0	Certain	-0.08	-1.03	0.0	No	n/a	0.947845804988662	n/a	n/a	n/a	ShowChoice	Mixed
356.552	1.0	0.012	919.193	49.0	2	0.0	0.0	19.016	70.0	1.0	Certain	-0.08	-1.03	0.0	No	n/a	0.947845804988662	n/a	n/a	n/a	ShowResult	Mixed
357.572	8.0	0.02	920.213	49.0	2	0.0	0.0	19.016	70.0	1.0	Certain	-0.08	-1.03	0.0	No	n/a	0.947845804988662	n/a	n/a	n/a	ISITrial	Mixed
365.596	3.0	0.024	928.237	50.0	2	-5.0	-5.0	18.391	70.0	1.5	Certain	-11.21	0.1	3.54725	Yes	4.0	-11.312925170068	2.179	367.775	n/a	GetAnswer	Mixed
367.802	4.0	0.027	930.443	50.0	2	-5.0	-5.0	18.391	70.0	1.5	Certain	-11.21	0.1	3.54725	Yes	n/a	-11.312925170068	n/a	n/a	n/a	ShowChoice	Mixed
371.814	1.0	0.012	934.455	50.0	2	-5.0	-5.0	18.391	70.0	1.5	Certain	-11.21	0.1	3.54725	Yes	n/a	-11.312925170068	n/a	n/a	n/a	ShowResult	Mixed
372.834	7.537	0.02	935.475	50.0	2	-5.0	-5.0	18.391	70.0	1.5	Certain	-11.21	0.1	3.54725	Yes	n/a	-11.312925170068	n/a	n/a	n/a	ISITrial	Mixed
380.39	3.547	0.019	943.031	50.0	2	-5.0	-5.0	18.391	70.0	1.5	Certain	-11.21	0.1	3.54725	Yes	n/a	-11.312925170068	n/a	n/a	n/a	TrialHappPreview	Mixed
383.967	4.012	0.03	946.608	50.0	2	-5.0	-5.0	18.391	70.0	1.5	Certain	-11.21	0.1	3.54725	Yes	n/a	-11.312925170068	n/a	n/a	280.0	TrialHappiness	Mixed
383.968	0.763	n/a	947.373	50.0	2	-5.0	-5.0	18.391	70.0	1.5	Certain	-11.21	0.1	3.54725	Yes	n/a	-11.312925170068	n/a	n/a	280.0	TrialHappinessSliderResponse	Mixed
387.979	6.189	4.012	950.62	50.0	2	-5.0	-5.0	18.391	70.0	1.5	Certain	-11.21	0.1	3.54725	Yes	n/a	-11.312925170068	n/a	n/a	n/a	ISIRate	Mixed
394.198	3.0	0.03	956.839	51.0	2	2.02	1.0	18.6435	70.0	4.2	Outcome1	2.02	0.23	0.0	No	2.0	1.79327286470144	1.377	395.575	n/a	GetAnswer	Gain
395.602	4.0	0.027	958.243	51.0	2	2.02	1.0	18.6435	70.0	4.2	Outcome1	2.02	0.23	0.0	No	n/a	1.79327286470144	n/a	n/a	n/a	ShowChoice	Gain
399.614	1.0	0.012	962.255	51.0	2	2.02	1.0	18.6435	70.0	4.2	Outcome1	2.02	0.23	0.0	No	n/a	1.79327286470144	n/a	n/a	n/a	ShowResult	Gain
400.634	5.508	0.02	963.275	51.0	2	2.02	1.0	18.6435	70.0	4.2	Outcome1	2.02	0.23	0.0	No	n/a	1.79327286470144	n/a	n/a	n/a	ISITrial	Gain
406.167	3.0	0.025	968.808	52.0	2	-2.59	-1.3	18.3197	70.0	1.68	Outcome1	-2.59	12.5	0.0	No	2.0	-15.0907029478458	1.775	407.942	n/a	GetAnswer	Loss
407.956	4.0	0.014	970.597	52.0	2	-2.59	-1.3	18.3197	70.0	1.68	Outcome1	-2.59	12.5	0.0	No	n/a	-15.0907029478458	n/a	n/a	n/a	ShowChoice	Loss
411.968	1.0	0.012	974.609	52.0	2	-2.59	-1.3	18.3197	70.0	1.68	Outcome1	-2.59	12.5	0.0	No	n/a	-15.0907029478458	n/a	n/a	n/a	ShowResult	Loss
412.988	5.913	0.02	975.629	52.0	2	-2.59	-1.3	18.3197	70.0	1.68	Outcome1	-2.59	12.5	0.0	No	n/a	-15.0907029478458	n/a	n/a	n/a	ISITrial	Loss
418.922	3.0	0.021	981.563	53.0	2	-6.83	1.0	17.4659	70.0	1.68	Outcome1	-6.83	8.5	2.99675	Yes	2.0	-15.328798185941	1.481	420.403	n/a	GetAnswer	Gain
420.427	4.0	0.024	983.068	53.0	2	-6.83	1.0	17.4659	70.0	1.68	Outcome1	-6.83	8.5	2.99675	Yes	n/a	-15.328798185941	n/a	n/a	n/a	ShowChoice	Gain
424.439	1.0	0.012	987.08	53.0	2	-6.83	1.0	17.4659	70.0	1.68	Outcome1	-6.83	8.5	2.99675	Yes	n/a	-15.328798185941	n/a	n/a	n/a	ShowResult	Gain
425.458	3.66	0.019	988.099	53.0	2	-6.83	1.0	17.4659	70.0	1.68	Outcome1	-6.83	8.5	2.99675	Yes	n/a	-15.328798185941	n/a	n/a	n/a	ISITrial	Gain
429.136	2.997	0.018	991.777	53.0	2	-6.83	1.0	17.4659	70.0	1.68	Outcome1	-6.83	8.5	2.99675	Yes	n/a	-15.328798185941	n/a	n/a	n/a	TrialHappPreview	Gain
432.162	4.012	0.029	994.803	53.0	2	-6.83	1.0	17.4659	70.0	1.68	Outcome1	-6.83	8.5	2.99675	Yes	n/a	-15.328798185941	n/a	n/a	80.0	TrialHappiness	Gain
432.162	3.536	n/a	995.134	53.0	2	-6.83	1.0	17.4659	70.0	1.68	Outcome1	-6.83	8.5	2.99675	Yes	n/a	-15.328798185941	n/a	n/a	80.0	TrialHappinessSliderResponse	Gain
436.174	3.987	4.012	998.815	53.0	2	-6.83	1.0	17.4659	70.0	1.68	Outcome1	-6.83	8.5	2.99675	Yes	n/a	-15.328798185941	n/a	n/a	n/a	ISIRate	Gain
440.186	3.0	0.025	1002.827	54.0	2	-6.67	0.0	16.6321	70.0	2.8	Outcome2	5.5	-6.67	0.0	No	2.0	-12.1655328798186	1.477	441.663	n/a	GetAnswer	Gain
441.69	4.0	0.027	1004.331	54.0	2	-6.67	0.0	16.6321	70.0	2.8	Outcome2	5.5	-6.67	0.0	No	n/a	-12.1655328798186	n/a	n/a	n/a	ShowChoice	Gain
445.702	1.0	0.012	1008.343	54.0	2	-6.67	0.0	16.6321	70.0	2.8	Outcome2	5.5	-6.67	0.0	No	n/a	-12.1655328798186	n/a	n/a	n/a	ShowResult	Gain
446.722	8.0	0.02	1009.363	54.0	2	-6.67	0.0	16.6321	70.0	2.8	Outcome2	5.5	-6.67	0.0	No	n/a	-12.1655328798186	n/a	n/a	n/a	ISITrial	Gain
491.056	0.616	n/a	1054.073	n/a	2	n/a	n/a	n/a	n/a	n/a	n/a	n/a	n/a	n/a	n/a	n/a	n/a	n/a	n/a	288.0	BlockStartHappinessSliderResponse	n/a
-44.4	-0.001	0.024	1017.387	n/a	3	n/a	n/a	n/a	n/a	n/a	n/a	n/a	n/a	n/a	n/a	{SPACE}	n/a	32.282	-12.118	n/a	Rest	n/a
-12.103	4.0	0.014	1049.684	n/a	3	n/a	n/a	n/a	n/a	n/a	n/a	n/a	n/a	n/a	n/a	n/a	n/a	n/a	n/a	n/a	BlockHappyPreview	n/a
-8.091	0.992	0.012	1053.696	n/a	3	n/a	n/a	n/a	n/a	n/a	n/a	n/a	n/a	n/a	n/a	n/a	n/a	n/a	n/a	288.0	BlockStartHappiness	n/a
-2.207	-0.001	0.023	1059.58	n/a	3	n/a	n/a	n/a	n/a	n/a	n/a	n/a	n/a	n/a	n/a	5.0	n/a	2.184	-0.023	n/a	ScanWait	n/a
0.0	10.0	0.023	1061.787	n/a	3	n/a	n/a	n/a	n/a	n/a	n/a	n/a	n/a	n/a	n/a	n/a	n/a	n/a	n/a	n/a	GetReady	n/a
10.013	3.0	0.013	1071.8	55.0	3	11.5	0.08	18.0696	955.0	2.8	Outcome1	11.5	0.17	2.53325	Yes	2.0	11.3306908267271	0.95	10.963	n/a	GetAnswer	Loss
10.983	4.0	0.02	1072.77	55.0	3	11.5	0.08	18.0696	955.0	2.8	Outcome1	11.5	0.17	2.53325	Yes	n/a	11.3306908267271	n/a	n/a	n/a	ShowChoice	Loss
14.995	1.0	0.012	1076.782	55.0	3	11.5	0.08	18.0696	955.0	2.8	Outcome1	11.5	0.17	2.53325	Yes	n/a	11.3306908267271	n/a	n/a	n/a	ShowResult	Loss
16.015	7.709	0.02	1077.802	55.0	3	11.5	0.08	18.0696	955.0	2.8	Outcome1	11.5	0.17	2.53325	Yes	n/a	11.3306908267271	n/a	n/a	n/a	ISITrial	Loss
23.738	2.533	0.014	1085.525	55.0	3	11.5	0.08	18.0696	955.0	2.8	Outcome1	11.5	0.17	2.53325	Yes	n/a	11.3306908267271	n/a	n/a	n/a	TrialHappPreview	Loss
26.295	4.012	0.024	1088.082	55.0	3	11.5	0.08	18.0696	955.0	2.8	Outcome1	11.5	0.17	2.53325	Yes	n/a	11.3306908267271	n/a	n/a	728.0	TrialHappiness	Loss
26.296	1.369	n/a	1088.376	55.0	3	11.5	0.08	18.0696	955.0	2.8	Outcome1	11.5	0.17	2.53325	Yes	n/a	11.3306908267271	n/a	n/a	728.0	TrialHappinessSliderResponse	Loss
30.307	2.133	4.012	1092.094	55.0	3	11.5	0.08	18.0696	955.0	2.8	Outcome1	11.5	0.17	2.53325	Yes	n/a	11.3306908267271	n/a	n/a	n/a	ISIRate	Loss
32.464	3.0	0.024	1094.251	56.0	3	9.72	4.86	19.2846	955.0	1.82	Outcome2	10.7	9.72	0.0	No	2.0	-0.9841449603624008	0.882	33.346	n/a	GetAnswer	Loss
33.367	4.0	0.021	1095.154	56.0	3	9.72	4.86	19.2846	955.0	1.82	Outcome2	10.7	9.72	0.0	No	n/a	-0.9841449603624008	n/a	n/a	n/a	ShowChoice	Loss
37.379	1.0	0.012	1099.166	56.0	3	9.72	4.86	19.2846	955.0	1.82	Outcome2	10.7	9.72	0.0	No	n/a	-0.9841449603624008	n/a	n/a	n/a	ShowResult	Loss
38.398	4.697	0.019	1100.185	56.0	3	9.72	4.86	19.2846	955.0	1.82	Outcome2	10.7	9.72	0.0	No	n/a	-0.9841449603624008	n/a	n/a	n/a	ISITrial	Loss
43.112	3.0	0.017	1104.899	57.0	3	6.49	3.24	20.0958	955.0	2.8	Outcome2	7.5	6.49	0.0	No	2.0	-1.00556813892035	1.237	44.349	n/a	GetAnswer	Gain
44.366	4.0	0.017	1106.153	57.0	3	6.49	3.24	20.0958	955.0	2.8	Outcome2	7.5	6.49	0.0	No	n/a	-1.00556813892035	n/a	n/a	n/a	ShowChoice	Gain
48.378	1.0	0.012	1110.165	57.0	3	6.49	3.24	20.0958	955.0	2.8	Outcome2	7.5	6.49	0.0	No	n/a	-1.00556813892035	n/a	n/a	n/a	ShowResult	Gain
49.398	4.291	0.02	1111.185	57.0	3	6.49	3.24	20.0958	955.0	2.8	Outcome2	7.5	6.49	0.0	No	n/a	-1.00556813892035	n/a	n/a	n/a	ISITrial	Gain
53.711	3.0	0.022	1115.498	58.0	3	2.3	0.0	20.3833	955.0	2.0	Outcome1	2.3	-2.83	3.04575	Yes	2.0	5.12570781426954	0.879	54.59	n/a	GetAnswer	Mixed
54.614	4.0	0.024	1116.401	58.0	3	2.3	0.0	20.3833	955.0	2.0	Outcome1	2.3	-2.83	3.04575	Yes	n/a	5.12570781426954	n/a	n/a	n/a	ShowChoice	Mixed
58.626	1.0	0.012	1120.413	58.0	3	2.3	0.0	20.3833	955.0	2.0	Outcome1	2.3	-2.83	3.04575	Yes	n/a	5.12570781426954	n/a	n/a	n/a	ShowResult	Mixed
59.645	2.037	0.019	1121.432	58.0	3	2.3	0.0	20.3833	955.0	2.0	Outcome1	2.3	-2.83	3.04575	Yes	n/a	5.12570781426954	n/a	n/a	n/a	ISITrial	Mixed
61.701	3.046	0.019	1123.488	58.0	3	2.3	0.0	20.3833	955.0	2.0	Outcome1	2.3	-2.83	3.04575	Yes	n/a	5.12570781426954	n/a	n/a	n/a	TrialHappPreview	Mixed
64.777	4.012	0.03	1126.564	58.0	3	2.3	0.0	20.3833	955.0	2.0	Outcome1	2.3	-2.83	3.04575	Yes	n/a	5.12570781426954	n/a	n/a	816.0	TrialHappiness	Mixed
64.778	2.48	n/a	1126.834	58.0	3	2.3	0.0	20.3833	955.0	2.0	Outcome1	2.3	-2.83	3.04575	Yes	n/a	5.12570781426954	n/a	n/a	816.0	TrialHappinessSliderResponse	Mixed
68.789	4.183	4.012	1130.576	58.0	3	2.3	0.0	20.3833	955.0	2.0	Outcome1	2.3	-2.83	3.04575	Yes	n/a	5.12570781426954	n/a	n/a	n/a	ISIRate	Mixed
73.002	3.0	0.03	1134.789	59.0	3	13.21	6.6	22.0345	955.0	3.6	Outcome1	13.21	13.9	0.0	No	2.0	-0.6912986032465079	1.267	74.269	n/a	GetAnswer	Loss
74.289	4.0	0.02	1136.076	59.0	3	13.21	6.6	22.0345	955.0	3.6	Outcome1	13.21	13.9	0.0	No	n/a	-0.6912986032465079	n/a	n/a	n/a	ShowChoice	Loss
78.301	1.0	0.012	1140.088	59.0	3	13.21	6.6	22.0345	955.0	3.6	Outcome1	13.21	13.9	0.0	No	n/a	-0.6912986032465079	n/a	n/a	n/a	ShowResult	Loss
79.321	5.064	0.02	1141.108	59.0	3	13.21	6.6	22.0345	955.0	3.6	Outcome1	13.21	13.9	0.0	No	n/a	-0.6912986032465079	n/a	n/a	n/a	ISITrial	Loss
84.403	3.0	0.018	1146.19	60.0	3	4.3	2.0	22.572	955.0	2.0	Outcome1	4.3	0.25	3.5625	Yes	2.0	4.04530011325028	1.37	85.773	n/a	GetAnswer	Mixed
85.79	4.0	0.017	1147.577	60.0	3	4.3	2.0	22.572	955.0	2.0	Outcome1	4.3	0.25	3.5625	Yes	n/a	4.04530011325028	n/a	n/a	n/a	ShowChoice	Mixed
89.802	1.0	0.012	1151.589	60.0	3	4.3	2.0	22.572	955.0	2.0	Outcome1	4.3	0.25	3.5625	Yes	n/a	4.04530011325028	n/a	n/a	n/a	ShowResult	Mixed
90.822	8.0	0.02	1152.609	60.0	3	4.3	2.0	22.572	955.0	2.0	Outcome1	4.3	0.25	3.5625	Yes	n/a	4.04530011325028	n/a	n/a	n/a	ISITrial	Mixed
98.846	3.562	0.024	1160.633	60.0	3	4.3	2.0	22.572	955.0	2.0	Outcome1	4.3	0.25	3.5625	Yes	n/a	4.04530011325028	n/a	n/a	n/a	TrialHappPreview	Mixed
102.423	4.012	0.015	1164.21	60.0	3	4.3	2.0	22.572	955.0	2.0	Outcome1	4.3	0.25	3.5625	Yes	n/a	4.04530011325028	n/a	n/a	808.0	TrialHappiness	Mixed
102.424	2.7	n/a	1165.353	60.0	3	4.3	2.0	22.572	955.0	2.0	Outcome1	4.3	0.25	3.5625	Yes	n/a	4.04530011325028	n/a	n/a	808.0	TrialHappinessSliderResponse	Mixed
106.435	6.25	4.012	1168.222	60.0	3	4.3	2.0	22.572	955.0	2.0	Outcome1	4.3	0.25	3.5625	Yes	n/a	4.04530011325028	n/a	n/a	n/a	ISIRate	Mixed
112.704	3.0	0.019	1174.491	61.0	3	13.3	4.48	24.2345	955.0	2.48	Outcome2	8.96	13.3	0.0	No	2.0	4.338618346545871	1.028	113.732	n/a	GetAnswer	Loss
113.757	4.0	0.025	1175.544	61.0	3	13.3	4.48	24.2345	955.0	2.48	Outcome2	8.96	13.3	0.0	No	n/a	4.338618346545871	n/a	n/a	n/a	ShowChoice	Loss
117.769	1.0	0.012	1179.556	61.0	3	13.3	4.48	24.2345	955.0	2.48	Outcome2	8.96	13.3	0.0	No	n/a	4.338618346545871	n/a	n/a	n/a	ShowResult	Loss
118.789	4.586	0.02	1180.576	61.0	3	13.3	4.48	24.2345	955.0	2.48	Outcome2	8.96	13.3	0.0	No	n/a	4.338618346545871	n/a	n/a	n/a	ISITrial	Loss
123.403	3.0	0.028	1185.19	62.0	3	11.1	3.3	25.622	955.0	2.22	Outcome2	6.59	11.1	3.74875	Yes	2.0	4.50509626274066	1.077	124.48	n/a	GetAnswer	Loss
124.506	4.0	0.026	1186.293	62.0	3	11.1	3.3	25.622	955.0	2.22	Outcome2	6.59	11.1	3.74875	Yes	n/a	4.50509626274066	n/a	n/a	n/a	ShowChoice	Loss
128.518	1.0	0.012	1190.305	62.0	3	11.1	3.3	25.622	955.0	2.22	Outcome2	6.59	11.1	3.74875	Yes	n/a	4.50509626274066	n/a	n/a	n/a	ShowResult	Loss
129.538	5.212	0.02	1191.325	62.0	3	11.1	3.3	25.622	955.0	2.22	Outcome2	6.59	11.1	3.74875	Yes	n/a	4.50509626274066	n/a	n/a	n/a	ISITrial	Loss
134.77	3.749	0.02	1196.557	62.0	3	11.1	3.3	25.622	955.0	2.22	Outcome2	6.59	11.1	3.74875	Yes	n/a	4.50509626274066	n/a	n/a	n/a	TrialHappPreview	Loss
138.548	4.029	0.029	1200.335	62.0	3	11.1	3.3	25.622	955.0	2.22	Outcome2	6.59	11.1	3.74875	Yes	n/a	4.50509626274066	n/a	n/a	856.0	TrialHappiness	Loss
138.549	3.234	n/a	1200.829	62.0	3	11.1	3.3	25.622	955.0	2.22	Outcome2	6.59	11.1	3.74875	Yes	n/a	4.50509626274066	n/a	n/a	856.0	TrialHappinessSliderResponse	Loss
142.577	6.995	4.029	1204.364	62.0	3	11.1	3.3	25.622	955.0	2.22	Outcome2	6.59	11.1	3.74875	Yes	n/a	4.50509626274066	n/a	n/a	n/a	ISIRate	Loss
149.598	3.0	0.026	1211.385	63.0	3	9.92	4.96	26.862	955.0	1.68	Outcome2	10.5	9.92	0.0	No	2.0	-0.582955832389581	0.808	150.406	n/a	GetAnswer	Loss
150.417	4.0	0.011	1212.204	63.0	3	9.92	4.96	26.862	955.0	1.68	Outcome2	10.5	9.92	0.0	No	n/a	-0.582955832389581	n/a	n/a	n/a	ShowChoice	Loss
154.429	1.0	0.012	1216.216	63.0	3	9.92	4.96	26.862	955.0	1.68	Outcome2	10.5	9.92	0.0	No	n/a	-0.582955832389581	n/a	n/a	n/a	ShowResult	Loss
155.449	5.595	0.02	1217.236	63.0	3	9.92	4.96	26.862	955.0	1.68	Outcome2	10.5	9.92	0.0	No	n/a	-0.582955832389581	n/a	n/a	n/a	ISITrial	Loss
161.066	3.0	0.022	1222.853	64.0	3	9.7	2.86	28.0745	955.0	3.16	Outcome1	9.7	5.73	0.0	No	2.0	3.9682899207248	0.679	161.745	n/a	GetAnswer	Gain
161.768	4.0	0.023	1223.555	64.0	3	9.7	2.86	28.0745	955.0	3.16	Outcome1	9.7	5.73	0.0	No	n/a	3.9682899207248	n/a	n/a	n/a	ShowChoice	Gain
165.78	1.0	0.012	1227.567	64.0	3	9.7	2.86	28.0745	955.0	3.16	Outcome1	9.7	5.73	0.0	No	n/a	3.9682899207248	n/a	n/a	n/a	ShowResult	Gain
166.8	5.47	0.02	1228.587	64.0	3	9.7	2.86	28.0745	955.0	3.16	Outcome1	9.7	5.73	0.0	No	n/a	3.9682899207248	n/a	n/a	n/a	ISITrial	Gain
172.3	3.0	0.03	1234.087	65.0	3	8.3	4.15	29.112	955.0	2.0	Outcome1	8.3	8.9	2.99675	Yes	2.0	-0.601642129105323	0.848	173.148	n/a	GetAnswer	Gain
173.169	4.0	0.021	1234.956	65.0	3	8.3	4.15	29.112	955.0	2.0	Outcome1	8.3	8.9	2.99675	Yes	n/a	-0.601642129105323	n/a	n/a	n/a	ShowChoice	Gain
177.181	1.0	0.012	1238.968	65.0	3	8.3	4.15	29.112	955.0	2.0	Outcome1	8.3	8.9	2.99675	Yes	n/a	-0.601642129105323	n/a	n/a	n/a	ShowResult	Gain
178.201	3.344	0.02	1239.988	65.0	3	8.3	4.15	29.112	955.0	2.0	Outcome1	8.3	8.9	2.99675	Yes	n/a	-0.601642129105323	n/a	n/a	n/a	ISITrial	Gain
181.561	2.997	0.016	1243.348	65.0	3	8.3	4.15	29.112	955.0	2.0	Outcome1	8.3	8.9	2.99675	Yes	n/a	-0.601642129105323	n/a	n/a	n/a	TrialHappPreview	Gain
184.586	4.012	0.028	1246.373	65.0	3	8.3	4.15	29.112	955.0	2.0	Outcome1	8.3	8.9	2.99675	Yes	n/a	-0.601642129105323	n/a	n/a	916.0	TrialHappiness	Gain
184.587	2.27	n/a	1246.537	65.0	3	8.3	4.15	29.112	955.0	2.0	Outcome1	8.3	8.9	2.99675	Yes	n/a	-0.601642129105323	n/a	n/a	916.0	TrialHappinessSliderResponse	Gain
188.598	3.987	4.012	1250.385	65.0	3	8.3	4.15	29.112	955.0	2.0	Outcome1	8.3	8.9	2.99675	Yes	n/a	-0.601642129105323	n/a	n/a	n/a	ISIRate	Gain
192.61	3.0	0.025	1254.397	66.0	3	11.3	4.07	30.5245	955.0	2.48	Outcome2	8.13	11.3	0.0	No	2.0	3.17327293318233	0.773	193.383	n/a	GetAnswer	Loss
193.396	4.0	0.013	1255.183	66.0	3	11.3	4.07	30.5245	955.0	2.48	Outcome2	8.13	11.3	0.0	No	n/a	3.17327293318233	n/a	n/a	n/a	ShowChoice	Loss
197.408	1.0	0.012	1259.195	66.0	3	11.3	4.07	30.5245	955.0	2.48	Outcome2	8.13	11.3	0.0	No	n/a	3.17327293318233	n/a	n/a	n/a	ShowResult	Loss
198.428	3.959	0.02	1260.215	66.0	3	11.3	4.07	30.5245	955.0	2.48	Outcome2	8.13	11.3	0.0	No	n/a	3.17327293318233	n/a	n/a	n/a	ISITrial	Loss
202.406	3.0	0.019	1264.193	67.0	3	-2.0	-2.0	30.2745	955.0	0.66	Certain	-0.7	-3.92	2.9185	Yes	4.0	3.21744054360136	1.96	204.366	n/a	GetAnswer	Mixed
204.379	4.0	0.013	1266.166	67.0	3	-2.0	-2.0	30.2745	955.0	0.66	Certain	-0.7	-3.92	2.9185	Yes	n/a	3.21744054360136	n/a	n/a	n/a	ShowChoice	Mixed
208.391	1.0	0.012	1270.178	67.0	3	-2.0	-2.0	30.2745	955.0	0.66	Certain	-0.7	-3.92	2.9185	Yes	n/a	3.21744054360136	n/a	n/a	n/a	ShowResult	Mixed
209.411	4.199	0.02	1271.198	67.0	3	-2.0	-2.0	30.2745	955.0	0.66	Certain	-0.7	-3.92	2.9185	Yes	n/a	3.21744054360136	n/a	n/a	n/a	ISITrial	Mixed
213.623	2.918	0.013	1275.41	67.0	3	-2.0	-2.0	30.2745	955.0	0.66	Certain	-0.7	-3.92	2.9185	Yes	n/a	3.21744054360136	n/a	n/a	n/a	TrialHappPreview	Mixed
216.565	4.013	0.024	1278.352	67.0	3	-2.0	-2.0	30.2745	955.0	0.66	Certain	-0.7	-3.92	2.9185	Yes	n/a	3.21744054360136	n/a	n/a	708.0	TrialHappiness	Mixed
216.566	2.875	n/a	1278.863	67.0	3	-2.0	-2.0	30.2745	955.0	0.66	Certain	-0.7	-3.92	2.9185	Yes	n/a	3.21744054360136	n/a	n/a	708.0	TrialHappinessSliderResponse	Mixed
220.578	3.674	4.013	1282.365	67.0	3	-2.0	-2.0	30.2745	955.0	0.66	Certain	-0.7	-3.92	2.9185	Yes	n/a	3.21744054360136	n/a	n/a	n/a	ISIRate	Mixed
224.272	3.0	0.02	1286.059	68.0	3	-3.0	-3.0	29.8995	955.0	1.2	Certain	-6.9	-0.1	0.0	No	4.0	6.7950169875424695	2.06	226.332	n/a	GetAnswer	Mixed
226.345	4.0	0.013	1288.132	68.0	3	-3.0	-3.0	29.8995	955.0	1.2	Certain	-6.9	-0.1	0.0	No	n/a	6.7950169875424695	n/a	n/a	n/a	ShowChoice	Mixed
230.357	1.0	0.012	1292.144	68.0	3	-3.0	-3.0	29.8995	955.0	1.2	Certain	-6.9	-0.1	0.0	No	n/a	6.7950169875424695	n/a	n/a	n/a	ShowResult	Mixed
231.377	2.185	0.02	1293.164	68.0	3	-3.0	-3.0	29.8995	955.0	1.2	Certain	-6.9	-0.1	0.0	No	n/a	6.7950169875424695	n/a	n/a	n/a	ISITrial	Mixed
233.583	3.0	0.021	1295.37	69.0	3	0.3	-3.0	29.937	955.0	2.0	Outcome1	0.3	-6.77	0.0	No	2.0	7.07474518686297	1.734	235.317	n/a	GetAnswer	Mixed
235.338	4.0	0.021	1297.125	69.0	3	0.3	-3.0	29.937	955.0	2.0	Outcome1	0.3	-6.77	0.0	No	n/a	7.07474518686297	n/a	n/a	n/a	ShowChoice	Mixed
239.35	1.0	0.012	1301.137	69.0	3	0.3	-3.0	29.937	955.0	2.0	Outcome1	0.3	-6.77	0.0	No	n/a	7.07474518686297	n/a	n/a	n/a	ShowResult	Mixed
240.37	2.0	0.02	1302.157	69.0	3	0.3	-3.0	29.937	955.0	2.0	Outcome1	0.3	-6.77	0.0	No	n/a	7.07474518686297	n/a	n/a	n/a	ISITrial	Mixed
242.393	3.0	0.023	1304.18	70.0	3	8.63	4.32	31.0158	955.0	3.6	Outcome2	9.9	8.63	3.65125	Yes	2.0	-1.26557191392978	2.076	244.469	n/a	GetAnswer	Gain
244.482	4.0	0.013	1306.269	70.0	3	8.63	4.32	31.0158	955.0	3.6	Outcome2	9.9	8.63	3.65125	Yes	n/a	-1.26557191392978	n/a	n/a	n/a	ShowChoice	Gain
248.494	1.0	0.012	1310.281	70.0	3	8.63	4.32	31.0158	955.0	3.6	Outcome2	9.9	8.63	3.65125	Yes	n/a	-1.26557191392978	n/a	n/a	n/a	ShowResult	Gain
249.514	2.623	0.02	1311.301	70.0	3	8.63	4.32	31.0158	955.0	3.6	Outcome2	9.9	8.63	3.65125	Yes	n/a	-1.26557191392978	n/a	n/a	n/a	ISITrial	Gain
252.155	3.651	0.018	1313.942	70.0	3	8.63	4.32	31.0158	955.0	3.6	Outcome2	9.9	8.63	3.65125	Yes	n/a	-1.26557191392978	n/a	n/a	n/a	TrialHappPreview	Gain
255.833	4.012	0.027	1317.62	70.0	3	8.63	4.32	31.0158	955.0	3.6	Outcome2	9.9	8.63	3.65125	Yes	2{-2}2{-2}	-1.26557191392978	2.212	258.045	936.0	TrialHappiness	Gain
255.834	1.542	n/a	1318.291	70.0	3	8.63	4.32	31.0158	955.0	3.6	Outcome2	9.9	8.63	3.65125	Yes	n/a	-1.26557191392978	n/a	n/a	936.0	TrialHappinessSliderResponse	Gain
259.845	6.605	4.012	1321.632	70.0	3	8.63	4.32	31.0158	955.0	3.6	Outcome2	9.9	8.63	3.65125	Yes	n/a	-1.26557191392978	n/a	n/a	n/a	ISIRate	Gain
266.482	3.0	0.032	1328.269	71.0	3	0.34	0.0	31.0583	955.0	0.3	Outcome1	0.34	0.7	0.0	No	2.0	-0.36362778406946	1.118	267.6	n/a	GetAnswer	Mixed
267.618	4.0	0.018	1329.405	71.0	3	0.34	0.0	31.0583	955.0	0.3	Outcome1	0.34	0.7	0.0	No	n/a	-0.36362778406946	n/a	n/a	n/a	ShowChoice	Mixed
271.63	1.0	0.012	1333.417	71.0	3	0.34	0.0	31.0583	955.0	0.3	Outcome1	0.34	0.7	0.0	No	n/a	-0.36362778406946	n/a	n/a	n/a	ShowResult	Mixed
272.65	5.499	0.02	1334.437	71.0	3	0.34	0.0	31.0583	955.0	0.3	Outcome1	0.34	0.7	0.0	No	n/a	-0.36362778406946	n/a	n/a	n/a	ISITrial	Mixed
278.167	3.0	0.018	1339.954	72.0	3	1.13	1.0	31.1996	955.0	0.82	Outcome1	1.13	1.5	3.0805	Yes	2.0	-0.365420913552284	1.101	279.268	n/a	GetAnswer	Mixed
279.287	4.0	0.019	1341.074	72.0	3	1.13	1.0	31.1996	955.0	0.82	Outcome1	1.13	1.5	3.0805	Yes	n/a	-0.365420913552284	n/a	n/a	n/a	ShowChoice	Mixed
283.299	1.0	0.012	1345.086	72.0	3	1.13	1.0	31.1996	955.0	0.82	Outcome1	1.13	1.5	3.0805	Yes	n/a	-0.365420913552284	n/a	n/a	n/a	ShowResult	Mixed
284.318	5.672	0.019	1346.105	72.0	3	1.13	1.0	31.1996	955.0	0.82	Outcome1	1.13	1.5	3.0805	Yes	n/a	-0.365420913552284	n/a	n/a	n/a	ISITrial	Mixed
290.002	3.08	0.012	1351.789	72.0	3	1.13	1.0	31.1996	955.0	0.82	Outcome1	1.13	1.5	3.0805	Yes	n/a	-0.365420913552284	n/a	n/a	n/a	TrialHappPreview	Mixed
293.112	4.012	0.03	1354.899	72.0	3	1.13	1.0	31.1996	955.0	0.82	Outcome1	1.13	1.5	3.0805	Yes	n/a	-0.365420913552284	n/a	n/a	760.0	TrialHappiness	Mixed
293.112	2.055	n/a	1355.457	72.0	3	1.13	1.0	31.1996	955.0	0.82	Outcome1	1.13	1.5	3.0805	Yes	n/a	-0.365420913552284	n/a	n/a	760.0	TrialHappinessSliderResponse	Mixed
297.124	4.322	4.012	1358.911	72.0	3	1.13	1.0	31.1996	955.0	0.82	Outcome1	1.13	1.5	3.0805	Yes	n/a	-0.365420913552284	n/a	n/a	n/a	ISIRate	Mixed
301.47	3.0	0.024	1363.257	73.0	3	9.5	1.36	32.3871	955.0	2.8	Outcome1	9.5	2.71	0.0	No	2.0	6.793884484711209	0.832	302.302	n/a	GetAnswer	Gain
302.322	4.0	0.02	1364.109	73.0	3	9.5	1.36	32.3871	955.0	2.8	Outcome1	9.5	2.71	0.0	No	n/a	6.793884484711209	n/a	n/a	n/a	ShowChoice	Gain
306.334	1.0	0.012	1368.121	73.0	3	9.5	1.36	32.3871	955.0	2.8	Outcome1	9.5	2.71	0.0	No	n/a	6.793884484711209	n/a	n/a	n/a	ShowResult	Gain
307.354	4.616	0.02	1369.141	73.0	3	9.5	1.36	32.3871	955.0	2.8	Outcome1	9.5	2.71	0.0	No	n/a	6.793884484711209	n/a	n/a	n/a	ISITrial	Gain
312.001	3.0	0.031	1373.788	74.0	3	8.3	0.64	33.4246	955.0	5.0	Outcome1	8.3	1.29	3.05625	Yes	2.0	7.014722536806341	1.737	313.738	n/a	GetAnswer	Gain
313.757	4.0	0.019	1375.544	74.0	3	8.3	0.64	33.4246	955.0	5.0	Outcome1	8.3	1.29	3.05625	Yes	n/a	7.014722536806341	n/a	n/a	n/a	ShowChoice	Gain
317.769	1.0	0.012	1379.556	74.0	3	8.3	0.64	33.4246	955.0	5.0	Outcome1	8.3	1.29	3.05625	Yes	n/a	7.014722536806341	n/a	n/a	n/a	ShowResult	Gain
318.788	3.909	0.019	1380.575	74.0	3	8.3	0.64	33.4246	955.0	5.0	Outcome1	8.3	1.29	3.05625	Yes	n/a	7.014722536806341	n/a	n/a	n/a	ISITrial	Gain
322.717	3.056	0.02	1384.504	74.0	3	8.3	0.64	33.4246	955.0	5.0	Outcome1	8.3	1.29	3.05625	Yes	n/a	7.014722536806341	n/a	n/a	n/a	TrialHappPreview	Gain
325.793	4.012	0.02	1387.58	74.0	3	8.3	0.64	33.4246	955.0	5.0	Outcome1	8.3	1.29	3.05625	Yes	n/a	7.014722536806341	n/a	n/a	876.0	TrialHappiness	Gain
325.793	2.152	n/a	1388.181	74.0	3	8.3	0.64	33.4246	955.0	5.0	Outcome1	8.3	1.29	3.05625	Yes	n/a	7.014722536806341	n/a	n/a	876.0	TrialHappinessSliderResponse	Gain
329.805	4.225	4.012	1391.592	74.0	3	8.3	0.64	33.4246	955.0	5.0	Outcome1	8.3	1.29	3.05625	Yes	n/a	7.014722536806341	n/a	n/a	n/a	ISIRate	Gain
334.051	3.0	0.021	1395.838	75.0	3	13.1	3.92	35.0621	955.0	2.22	Outcome1	13.1	7.84	0.0	No	2.0	5.26500566251416	1.148	335.199	n/a	GetAnswer	Loss
335.221	4.0	0.022	1397.008	75.0	3	13.1	3.92	35.0621	955.0	2.22	Outcome1	13.1	7.84	0.0	No	n/a	5.26500566251416	n/a	n/a	n/a	ShowChoice	Loss
339.233	1.0	0.012	1401.02	75.0	3	13.1	3.92	35.0621	955.0	2.22	Outcome1	13.1	7.84	0.0	No	n/a	5.26500566251416	n/a	n/a	n/a	ShowResult	Loss
340.253	4.979	0.02	1402.04	75.0	3	13.1	3.92	35.0621	955.0	2.22	Outcome1	13.1	7.84	0.0	No	n/a	5.26500566251416	n/a	n/a	n/a	ISITrial	Loss
345.251	3.0	0.019	1407.038	76.0	3	-1.56	-1.0	34.8671	955.0	0.52	Outcome1	-1.56	-0.9	0.0	No	n/a	-0.654964137410343	n/a	n/a	n/a	GetAnswer	Mixed
348.277	4.0	0.026	1410.064	76.0	3	-1.56	-1.0	34.8671	955.0	0.52	Outcome1	-1.56	-0.9	0.0	No	n/a	-0.654964137410343	n/a	n/a	n/a	ShowChoice	Mixed
352.289	1.0	0.012	1414.076	76.0	3	-1.56	-1.0	34.8671	955.0	0.52	Outcome1	-1.56	-0.9	0.0	No	n/a	-0.654964137410343	n/a	n/a	n/a	ShowResult	Mixed
353.309	3.931	0.02	1415.096	76.0	3	-1.56	-1.0	34.8671	955.0	0.52	Outcome1	-1.56	-0.9	0.0	No	n/a	-0.654964137410343	n/a	n/a	n/a	ISITrial	Mixed
357.27	3.0	0.03	1419.057	77.0	3	4.7	2.0	35.4546	955.0	1.82	Outcome1	4.7	-0.74	4.0	Yes	2.0	5.443941109852769	2.309	359.579	n/a	GetAnswer	Gain
359.594	4.0	0.015	1421.381	77.0	3	4.7	2.0	35.4546	955.0	1.82	Outcome1	4.7	-0.74	4.0	Yes	n/a	5.443941109852769	n/a	n/a	n/a	ShowChoice	Gain
363.606	1.0	0.012	1425.393	77.0	3	4.7	2.0	35.4546	955.0	1.82	Outcome1	4.7	-0.74	4.0	Yes	n/a	5.443941109852769	n/a	n/a	n/a	ShowResult	Gain
364.626	7.022	0.02	1426.413	77.0	3	4.7	2.0	35.4546	955.0	1.82	Outcome1	4.7	-0.74	4.0	Yes	n/a	5.443941109852769	n/a	n/a	n/a	ISITrial	Gain
371.664	4.0	0.016	1433.451	77.0	3	4.7	2.0	35.4546	955.0	1.82	Outcome1	4.7	-0.74	4.0	Yes	n/a	5.443941109852769	n/a	n/a	n/a	TrialHappPreview	Gain
375.692	4.012	0.028	1437.479	77.0	3	4.7	2.0	35.4546	955.0	1.82	Outcome1	4.7	-0.74	4.0	Yes	n/a	5.443941109852769	n/a	n/a	936.0	TrialHappiness	Gain
375.693	2.028	n/a	1437.75	77.0	3	4.7	2.0	35.4546	955.0	1.82	Outcome1	4.7	-0.74	4.0	Yes	n/a	5.443941109852769	n/a	n/a	936.0	TrialHappinessSliderResponse	Gain
379.704	8.0	4.012	1441.491	77.0	3	4.7	2.0	35.4546	955.0	1.82	Outcome1	4.7	-0.74	4.0	Yes	n/a	5.443941109852769	n/a	n/a	n/a	ISIRate	Gain
387.728	3.0	0.024	1449.515	78.0	3	11.27	5.64	36.8634	955.0	3.16	Outcome1	11.27	11.7	0.0	No	2.0	-0.42638731596829	1.267	388.995	n/a	GetAnswer	Loss
389.016	4.0	0.021	1450.803	78.0	3	11.27	5.64	36.8634	955.0	3.16	Outcome1	11.27	11.7	0.0	No	n/a	-0.42638731596829	n/a	n/a	n/a	ShowChoice	Loss
393.028	1.0	0.012	1454.815	78.0	3	11.27	5.64	36.8634	955.0	3.16	Outcome1	11.27	11.7	0.0	No	n/a	-0.42638731596829	n/a	n/a	n/a	ShowResult	Loss
394.047	2.078	0.019	1455.834	78.0	3	11.27	5.64	36.8634	955.0	3.16	Outcome1	11.27	11.7	0.0	No	n/a	-0.42638731596829	n/a	n/a	n/a	ISITrial	Loss
396.154	3.0	0.029	1457.941	79.0	3	4.27	2.13	37.3972	955.0	1.82	Outcome2	4.7	4.27	2.7295	Yes	2.0	-0.428180445451114	1.224	397.378	n/a	GetAnswer	Gain
397.391	4.0	0.013	1459.178	79.0	3	4.27	2.13	37.3972	955.0	1.82	Outcome2	4.7	4.27	2.7295	Yes	n/a	-0.428180445451114	n/a	n/a	n/a	ShowChoice	Gain
401.403	1.0	0.012	1463.19	79.0	3	4.27	2.13	37.3972	955.0	1.82	Outcome2	4.7	4.27	2.7295	Yes	n/a	-0.428180445451114	n/a	n/a	n/a	ShowResult	Gain
402.422	3.829	0.019	1464.209	79.0	3	4.27	2.13	37.3972	955.0	1.82	Outcome2	4.7	4.27	2.7295	Yes	n/a	-0.428180445451114	n/a	n/a	n/a	ISITrial	Gain
406.267	2.73	0.016	1468.054	79.0	3	4.27	2.13	37.3972	955.0	1.82	Outcome2	4.7	4.27	2.7295	Yes	n/a	-0.428180445451114	n/a	n/a	n/a	TrialHappPreview	Gain
409.026	4.012	0.029	1470.813	79.0	3	4.27	2.13	37.3972	955.0	1.82	Outcome2	4.7	4.27	2.7295	Yes	n/a	-0.428180445451114	n/a	n/a	944.0	TrialHappiness	Gain
409.026	2.807	n/a	1471.858	79.0	3	4.27	2.13	37.3972	955.0	1.82	Outcome2	4.7	4.27	2.7295	Yes	n/a	-0.428180445451114	n/a	n/a	944.0	TrialHappinessSliderResponse	Gain
413.038	2.918	4.012	1474.825	79.0	3	4.27	2.13	37.3972	955.0	1.82	Outcome2	4.7	4.27	2.7295	Yes	n/a	-0.428180445451114	n/a	n/a	n/a	ISIRate	Gain
415.98	3.0	0.024	1477.767	80.0	3	-1.3	-3.0	37.2347	955.0	0.3	Outcome2	-5.72	-1.3	0.0	No	n/a	4.4212910532276295	n/a	n/a	n/a	GetAnswer	Mixed
419.005	4.0	0.025	1480.792	80.0	3	-1.3	-3.0	37.2347	955.0	0.3	Outcome2	-5.72	-1.3	0.0	No	n/a	4.4212910532276295	n/a	n/a	n/a	ShowChoice	Mixed
423.017	1.0	0.012	1484.804	80.0	3	-1.3	-3.0	37.2347	955.0	0.3	Outcome2	-5.72	-1.3	0.0	No	n/a	4.4212910532276295	n/a	n/a	n/a	ShowResult	Mixed
424.037	3.336	0.02	1485.824	80.0	3	-1.3	-3.0	37.2347	955.0	0.3	Outcome2	-5.72	-1.3	0.0	No	n/a	4.4212910532276295	n/a	n/a	n/a	ISITrial	Mixed
427.397	3.0	0.024	1489.184	81.0	3	-2.0	-2.0	36.9847	955.0	2.0	Certain	-4.13	0.3	3.92375	Yes	4.0	4.43374858437146	2.171	429.568	n/a	GetAnswer	Mixed
429.587	4.0	0.019	1491.374	81.0	3	-2.0	-2.0	36.9847	955.0	2.0	Certain	-4.13	0.3	3.92375	Yes	n/a	4.43374858437146	n/a	n/a	n/a	ShowChoice	Mixed
433.599	1.0	0.012	1495.386	81.0	3	-2.0	-2.0	36.9847	955.0	2.0	Certain	-4.13	0.3	3.92375	Yes	n/a	4.43374858437146	n/a	n/a	n/a	ShowResult	Mixed
434.619	3.919	0.02	1496.406	81.0	3	-2.0	-2.0	36.9847	955.0	2.0	Certain	-4.13	0.3	3.92375	Yes	n/a	4.43374858437146	n/a	n/a	n/a	ISITrial	Mixed
438.564	3.924	0.026	1500.351	81.0	3	-2.0	-2.0	36.9847	955.0	2.0	Certain	-4.13	0.3	3.92375	Yes	n/a	4.43374858437146	n/a	n/a	n/a	TrialHappPreview	Mixed
442.509	4.012	0.021	1504.296	81.0	3	-2.0	-2.0	36.9847	955.0	2.0	Certain	-4.13	0.3	3.92375	Yes	n/a	4.43374858437146	n/a	n/a	952.0	TrialHappiness	Mixed
442.51	2.396	n/a	1504.716	81.0	3	-2.0	-2.0	36.9847	955.0	2.0	Certain	-4.13	0.3	3.92375	Yes	n/a	4.43374858437146	n/a	n/a	952.0	TrialHappinessSliderResponse	Mixed
446.521	7.695	4.012	1508.308	81.0	3	-2.0	-2.0	36.9847	955.0	2.0	Certain	-4.13	0.3	3.92375	Yes	n/a	4.43374858437146	n/a	n/a	n/a	ISIRate	Mixed
454.244	3.0	0.028	1516.031	n/a	3	n/a	n/a	n/a	n/a	n/a	n/a	n/a	n/a	n/a	n/a	n/a	n/a	n/a	n/a	n/a	CurrentEarnings	n/a
457.27	-0.001	0.026	1519.057	n/a	3	n/a	n/a	n/a	n/a	n/a	n/a	n/a	n/a	n/a	n/a	{SPACE}	n/a	3.469	460.739	n/a	Goodbye	n/a
