onset	duration	onset_delay	onset_unadjusted	trial_number	block	amount_change	certain_amount	current_amount	mood_target	multiplier	outcome	outcome1_amount	outcome2_amount	question_duration	rating	response	rpe	rt	rt_time	slider_response	trial_phase	trial_type
-25.827	-0.001	0.021	26.231	n/a	0	n/a	n/a	n/a	n/a	n/a	n/a	n/a	n/a	n/a	n/a	{SPACE}	n/a	3.336	-22.491	n/a	Welcome	n/a
-22.467	5.0	0.024	29.591	n/a	0	n/a	n/a	n/a	n/a	n/a	n/a	n/a	n/a	n/a	n/a	n/a	n/a	n/a	n/a	n/a	LifeHappyPreview	n/a
-17.436	4.84	0.031	34.622	n/a	0	n/a	n/a	n/a	n/a	n/a	n/a	n/a	n/a	n/a	n/a	2{-2}2{-2}4{-4}	n/a	4.84	-12.596	744.0	LifeHappiness	n/a
-17.435	4.065	n/a	35.398	n/a	0	n/a	n/a	n/a	n/a	n/a	n/a	n/a	n/a	n/a	n/a	n/a	n/a	n/a	n/a	744.0	LifeHappinessSliderResponse	n/a
-12.287	4.0	0.025	39.771	n/a	0	n/a	n/a	n/a	n/a	n/a	n/a	n/a	n/a	n/a	n/a	n/a	n/a	n/a	n/a	n/a	BlockHappyPreview	n/a
-8.275	3.871	0.012	43.783	n/a	0	n/a	n/a	n/a	n/a	n/a	n/a	n/a	n/a	n/a	n/a	n/a	n/a	n/a	n/a	740.0	BlockStartHappiness	n/a
-8.274	3.097	n/a	44.558	n/a	0	n/a	n/a	n/a	n/a	n/a	n/a	n/a	n/a	n/a	n/a	n/a	n/a	n/a	n/a	740.0	BlockStartHappinessSliderResponse	n/a
-0.953	-0.001	0.019	51.105	n/a	0	n/a	n/a	n/a	n/a	n/a	n/a	n/a	n/a	n/a	n/a	5.0	n/a	0.929	-0.024	n/a	ScanWait	n/a
0.0	10.0	0.024	52.058	n/a	1	n/a	n/a	n/a	n/a	n/a	n/a	n/a	n/a	n/a	n/a	n/a	n/a	n/a	n/a	n/a	GetReady	n/a
10.03	3.0	0.03	62.088	1.0	1	6.22	6.22	10.7775	955.0	2.48	Certain	12.43	13.3	0.0	No	4.0	-0.872499056247641	2.517	12.547	n/a	GetAnswer	Loss
12.571	4.0	0.024	64.629	1.0	1	6.22	6.22	10.7775	955.0	2.48	Certain	12.43	13.3	0.0	No	n/a	-0.872499056247641	n/a	n/a	n/a	ShowChoice	Loss
16.6	1.0	0.029	68.658	1.0	1	6.22	6.22	10.7775	955.0	2.48	Certain	12.43	13.3	0.0	No	n/a	-0.872499056247641	n/a	n/a	n/a	ShowResult	Loss
17.619	2.431	0.019	69.677	1.0	1	6.22	6.22	10.7775	955.0	2.48	Certain	12.43	13.3	0.0	No	n/a	-0.872499056247641	n/a	n/a	n/a	ISITrial	Loss
20.077	3.0	0.027	72.135	2.0	1	9.1	2.6	11.915	955.0	2.22	Outcome2	5.2	9.1	0.0	No	2.0	3.89580973952435	1.883	21.96	n/a	GetAnswer	Gain
21.982	4.0	0.022	74.04	2.0	1	9.1	2.6	11.915	955.0	2.22	Outcome2	5.2	9.1	0.0	No	n/a	3.89580973952435	n/a	n/a	n/a	ShowChoice	Gain
26.011	1.0	0.029	78.069	2.0	1	9.1	2.6	11.915	955.0	2.22	Outcome2	5.2	9.1	0.0	No	n/a	3.89580973952435	n/a	n/a	n/a	ShowResult	Gain
27.031	4.568	0.02	79.089	2.0	1	9.1	2.6	11.915	955.0	2.22	Outcome2	5.2	9.1	0.0	No	n/a	3.89580973952435	n/a	n/a	n/a	ISITrial	Gain
31.628	3.0	0.029	83.686	3.0	1	8.3	2.08	12.9525	955.0	5.0	Outcome1	8.3	4.16	2.868	Yes	2.0	4.13929784824462	1.889	33.517	n/a	GetAnswer	Gain
33.534	4.0	0.017	85.592	3.0	1	8.3	2.08	12.9525	955.0	5.0	Outcome1	8.3	4.16	2.868	Yes	n/a	4.13929784824462	n/a	n/a	n/a	ShowChoice	Gain
37.562	1.0	0.028	89.62	3.0	1	8.3	2.08	12.9525	955.0	5.0	Outcome1	8.3	4.16	2.868	Yes	n/a	4.13929784824462	n/a	n/a	n/a	ShowResult	Gain
38.582	3.243	0.02	90.64	3.0	1	8.3	2.08	12.9525	955.0	5.0	Outcome1	8.3	4.16	2.868	Yes	n/a	4.13929784824462	n/a	n/a	n/a	ISITrial	Gain
41.842	2.868	0.017	93.9	3.0	1	8.3	2.08	12.9525	955.0	5.0	Outcome1	8.3	4.16	2.868	Yes	n/a	4.13929784824462	n/a	n/a	n/a	TrialHappPreview	Gain
44.734	4.028	0.024	96.792	3.0	1	8.3	2.08	12.9525	955.0	5.0	Outcome1	8.3	4.16	2.868	Yes	n/a	4.13929784824462	n/a	n/a	692.0	TrialHappiness	Gain
44.734	3.227	n/a	97.133	3.0	1	8.3	2.08	12.9525	955.0	5.0	Outcome1	8.3	4.16	2.868	Yes	n/a	4.13929784824462	n/a	n/a	692.0	TrialHappinessSliderResponse	Gain
48.762	3.472	4.028	100.82	3.0	1	8.3	2.08	12.9525	955.0	5.0	Outcome1	8.3	4.16	2.868	Yes	n/a	4.13929784824462	n/a	n/a	n/a	ISIRate	Gain
52.256	3.0	0.022	104.314	4.0	1	2.17	2.0	13.2237	955.0	0.66	Outcome2	3.3	2.17	0.0	No	2.0	-1.12816157040393	2.108	54.364	n/a	GetAnswer	Mixed
54.379	4.0	0.015	106.437	4.0	1	2.17	2.0	13.2237	955.0	0.66	Outcome2	3.3	2.17	0.0	No	n/a	-1.12816157040393	n/a	n/a	n/a	ShowChoice	Mixed
58.408	1.0	0.029	110.466	4.0	1	2.17	2.0	13.2237	955.0	0.66	Outcome2	3.3	2.17	0.0	No	n/a	-1.12816157040393	n/a	n/a	n/a	ShowResult	Mixed
59.428	2.011	0.02	111.486	4.0	1	2.17	2.0	13.2237	955.0	0.66	Outcome2	3.3	2.17	0.0	No	n/a	-1.12816157040393	n/a	n/a	n/a	ISITrial	Mixed
61.467	3.0	0.028	113.525	5.0	1	-1.1	-4.0	13.0862	955.0	0.4	Outcome1	-1.1	-6.6	2.5825	Yes	2.0	5.496036240090599	1.796	63.263	n/a	GetAnswer	Mixed
63.289	4.0	0.026	115.347	5.0	1	-1.1	-4.0	13.0862	955.0	0.4	Outcome1	-1.1	-6.6	2.5825	Yes	n/a	5.496036240090599	n/a	n/a	n/a	ShowChoice	Mixed
67.318	1.0	0.029	119.376	5.0	1	-1.1	-4.0	13.0862	955.0	0.4	Outcome1	-1.1	-6.6	2.5825	Yes	n/a	5.496036240090599	n/a	n/a	n/a	ShowResult	Mixed
68.338	5.129	0.02	120.396	5.0	1	-1.1	-4.0	13.0862	955.0	0.4	Outcome1	-1.1	-6.6	2.5825	Yes	n/a	5.496036240090599	n/a	n/a	n/a	ISITrial	Mixed
73.486	2.582	0.019	125.544	5.0	1	-1.1	-4.0	13.0862	955.0	0.4	Outcome1	-1.1	-6.6	2.5825	Yes	n/a	5.496036240090599	n/a	n/a	n/a	TrialHappPreview	Mixed
76.094	4.012	0.026	128.152	5.0	1	-1.1	-4.0	13.0862	955.0	0.4	Outcome1	-1.1	-6.6	2.5825	Yes	n/a	5.496036240090599	n/a	n/a	724.0	TrialHappiness	Mixed
76.095	2.697	n/a	128.602	5.0	1	-1.1	-4.0	13.0862	955.0	0.4	Outcome1	-1.1	-6.6	2.5825	Yes	n/a	5.496036240090599	n/a	n/a	724.0	TrialHappinessSliderResponse	Mixed
80.106	2.33	4.012	132.164	5.0	1	-1.1	-4.0	13.0862	955.0	0.4	Outcome1	-1.1	-6.6	2.5825	Yes	n/a	5.496036240090599	n/a	n/a	n/a	ISIRate	Mixed
82.463	3.0	0.027	134.521	6.0	1	-2.0	-2.0	12.8362	955.0	1.2	Certain	-0.1	-5.35	0.0	No	4.0	5.250283125707809	2.185	84.648	n/a	GetAnswer	Mixed
84.67	4.0	0.022	136.728	6.0	1	-2.0	-2.0	12.8362	955.0	1.2	Certain	-0.1	-5.35	0.0	No	n/a	5.250283125707809	n/a	n/a	n/a	ShowChoice	Mixed
88.682	1.0	0.012	140.74	6.0	1	-2.0	-2.0	12.8362	955.0	1.2	Certain	-0.1	-5.35	0.0	No	n/a	5.250283125707809	n/a	n/a	n/a	ShowResult	Mixed
89.702	6.232	0.02	141.76	6.0	1	-2.0	-2.0	12.8362	955.0	1.2	Certain	-0.1	-5.35	0.0	No	n/a	5.250283125707809	n/a	n/a	n/a	ISITrial	Mixed
95.954	3.0	0.02	148.012	7.0	1	11.3	2.9	14.2487	955.0	2.48	Outcome2	5.79	11.3	0.0	No	2.0	5.5118912797282	1.557	97.511	n/a	GetAnswer	Loss
97.542	4.0	0.031	149.6	7.0	1	11.3	2.9	14.2487	955.0	2.48	Outcome2	5.79	11.3	0.0	No	n/a	5.5118912797282	n/a	n/a	n/a	ShowChoice	Loss
101.571	1.0	0.029	153.629	7.0	1	11.3	2.9	14.2487	955.0	2.48	Outcome2	5.79	11.3	0.0	No	n/a	5.5118912797282	n/a	n/a	n/a	ShowResult	Loss
102.59	2.305	0.019	154.648	7.0	1	11.3	2.9	14.2487	955.0	2.48	Outcome2	5.79	11.3	0.0	No	n/a	5.5118912797282	n/a	n/a	n/a	ISITrial	Loss
104.914	3.0	0.019	156.972	8.0	1	9.3	1.76	15.4112	955.0	2.48	Outcome2	3.53	9.3	3.1125	Yes	2.0	5.77349943374858	2.507	107.421	n/a	GetAnswer	Gain
107.438	4.0	0.017	159.496	8.0	1	9.3	1.76	15.4112	955.0	2.48	Outcome2	3.53	9.3	3.1125	Yes	n/a	5.77349943374858	n/a	n/a	n/a	ShowChoice	Gain
111.467	1.0	0.029	163.525	8.0	1	9.3	1.76	15.4112	955.0	2.48	Outcome2	3.53	9.3	3.1125	Yes	n/a	5.77349943374858	n/a	n/a	n/a	ShowResult	Gain
112.487	3.506	0.02	164.545	8.0	1	9.3	1.76	15.4112	955.0	2.48	Outcome2	3.53	9.3	3.1125	Yes	n/a	5.77349943374858	n/a	n/a	n/a	ISITrial	Gain
116.014	3.112	0.021	168.072	8.0	1	9.3	1.76	15.4112	955.0	2.48	Outcome2	3.53	9.3	3.1125	Yes	n/a	5.77349943374858	n/a	n/a	n/a	TrialHappPreview	Gain
119.156	4.029	0.03	171.214	8.0	1	9.3	1.76	15.4112	955.0	2.48	Outcome2	3.53	9.3	3.1125	Yes	n/a	5.77349943374858	n/a	n/a	668.0	TrialHappiness	Gain
119.157	1.889	n/a	172.21	8.0	1	9.3	1.76	15.4112	955.0	2.48	Outcome2	3.53	9.3	3.1125	Yes	n/a	5.77349943374858	n/a	n/a	668.0	TrialHappinessSliderResponse	Gain
123.185	4.45	4.029	175.243	8.0	1	9.3	1.76	15.4112	955.0	2.48	Outcome2	3.53	9.3	3.1125	Yes	n/a	5.77349943374858	n/a	n/a	n/a	ISIRate	Gain
127.665	3.0	0.03	179.723	9.0	1	7.1	0.06	16.2987	955.0	2.22	Outcome2	0.11	7.1	0.0	No	2.0	6.98640996602492	2.722	130.387	n/a	GetAnswer	Gain
130.407	4.0	0.02	182.465	9.0	1	7.1	0.06	16.2987	955.0	2.22	Outcome2	0.11	7.1	0.0	No	n/a	6.98640996602492	n/a	n/a	n/a	ShowChoice	Gain
134.436	1.0	0.029	186.494	9.0	1	7.1	0.06	16.2987	955.0	2.22	Outcome2	0.11	7.1	0.0	No	n/a	6.98640996602492	n/a	n/a	n/a	ShowResult	Gain
135.455	2.0	0.019	187.513	9.0	1	7.1	0.06	16.2987	955.0	2.22	Outcome2	0.11	7.1	0.0	No	n/a	6.98640996602492	n/a	n/a	n/a	ISITrial	Gain
137.478	3.0	0.023	189.536	10.0	1	-0.2	-0.2	16.2737	955.0	2.0	Certain	6.9	-0.41	4.0	Yes	4.0	7.3114382785957	2.702	140.18	n/a	GetAnswer	Gain
140.203	4.0	0.023	192.261	10.0	1	-0.2	-0.2	16.2737	955.0	2.0	Certain	6.9	-0.41	4.0	Yes	n/a	7.3114382785957	n/a	n/a	n/a	ShowChoice	Gain
144.232	1.0	0.029	196.29	10.0	1	-0.2	-0.2	16.2737	955.0	2.0	Certain	6.9	-0.41	4.0	Yes	n/a	7.3114382785957	n/a	n/a	n/a	ShowResult	Gain
145.251	2.0	0.019	197.309	10.0	1	-0.2	-0.2	16.2737	955.0	2.0	Certain	6.9	-0.41	4.0	Yes	n/a	7.3114382785957	n/a	n/a	n/a	ISITrial	Gain
147.274	4.0	0.023	199.332	10.0	1	-0.2	-0.2	16.2737	955.0	2.0	Certain	6.9	-0.41	4.0	Yes	n/a	7.3114382785957	n/a	n/a	n/a	TrialHappPreview	Gain
151.303	4.028	0.029	203.361	10.0	1	-0.2	-0.2	16.2737	955.0	2.0	Certain	6.9	-0.41	4.0	Yes	n/a	7.3114382785957	n/a	n/a	700.0	TrialHappiness	Gain
151.303	1.779	n/a	203.662	10.0	1	-0.2	-0.2	16.2737	955.0	2.0	Certain	6.9	-0.41	4.0	Yes	n/a	7.3114382785957	n/a	n/a	700.0	TrialHappinessSliderResponse	Gain
155.331	8.0	4.028	207.389	10.0	1	-0.2	-0.2	16.2737	955.0	2.0	Certain	6.9	-0.41	4.0	Yes	n/a	7.3114382785957	n/a	n/a	n/a	ISIRate	Gain
163.355	3.0	0.024	215.413	11.0	1	4.64	2.32	16.8537	955.0	3.6	Outcome1	4.64	5.9	0.0	No	2.0	-1.26491128727822	2.103	165.458	n/a	GetAnswer	Gain
165.478	4.0	0.02	217.536	11.0	1	4.64	2.32	16.8537	955.0	3.6	Outcome1	4.64	5.9	0.0	No	n/a	-1.26491128727822	n/a	n/a	n/a	ShowChoice	Gain
169.507	1.0	0.029	221.565	11.0	1	4.64	2.32	16.8537	955.0	3.6	Outcome1	4.64	5.9	0.0	No	n/a	-1.26491128727822	n/a	n/a	n/a	ShowResult	Gain
170.527	3.324	0.02	222.585	11.0	1	4.64	2.32	16.8537	955.0	3.6	Outcome1	4.64	5.9	0.0	No	n/a	-1.26491128727822	n/a	n/a	n/a	ISITrial	Gain
173.87	3.0	0.019	225.928	12.0	1	3.7	0.0	17.3162	955.0	1.0	Outcome2	-3.68	3.7	2.61875	Yes	n/a	7.381653454133639	n/a	n/a	n/a	GetAnswer	Mixed
176.896	4.0	0.026	228.954	12.0	1	3.7	0.0	17.3162	955.0	1.0	Outcome2	-3.68	3.7	2.61875	Yes	n/a	7.381653454133639	n/a	n/a	n/a	ShowChoice	Mixed
180.925	1.0	0.029	232.983	12.0	1	3.7	0.0	17.3162	955.0	1.0	Outcome2	-3.68	3.7	2.61875	Yes	n/a	7.381653454133639	n/a	n/a	n/a	ShowResult	Mixed
181.944	6.642	0.019	234.002	12.0	1	3.7	0.0	17.3162	955.0	1.0	Outcome2	-3.68	3.7	2.61875	Yes	n/a	7.381653454133639	n/a	n/a	n/a	ISITrial	Mixed
188.614	2.619	0.028	240.672	12.0	1	3.7	0.0	17.3162	955.0	1.0	Outcome2	-3.68	3.7	2.61875	Yes	n/a	7.381653454133639	n/a	n/a	n/a	TrialHappPreview	Mixed
191.256	4.028	0.023	243.314	12.0	1	3.7	0.0	17.3162	955.0	1.0	Outcome2	-3.68	3.7	2.61875	Yes	n/a	7.381653454133639	n/a	n/a	704.0	TrialHappiness	Mixed
191.256	2.023	n/a	243.805	12.0	1	3.7	0.0	17.3162	955.0	1.0	Outcome2	-3.68	3.7	2.61875	Yes	n/a	7.381653454133639	n/a	n/a	704.0	TrialHappinessSliderResponse	Mixed
195.284	2.475	4.028	247.342	12.0	1	3.7	0.0	17.3162	955.0	1.0	Outcome2	-3.68	3.7	2.61875	Yes	n/a	7.381653454133639	n/a	n/a	n/a	ISIRate	Mixed
197.792	3.0	0.033	249.85	13.0	1	-5.0	-5.0	16.6912	955.0	0.2	Certain	-1.5	-9.1	0.0	No	4.0	7.60249150622877	1.849	199.641	n/a	GetAnswer	Mixed
199.664	4.0	0.023	251.722	13.0	1	-5.0	-5.0	16.6912	955.0	0.2	Certain	-1.5	-9.1	0.0	No	n/a	7.60249150622877	n/a	n/a	n/a	ShowChoice	Mixed
203.693	1.0	0.029	255.751	13.0	1	-5.0	-5.0	16.6912	955.0	0.2	Certain	-1.5	-9.1	0.0	No	n/a	7.60249150622877	n/a	n/a	n/a	ShowResult	Mixed
204.713	3.48	0.02	256.771	13.0	1	-5.0	-5.0	16.6912	955.0	0.2	Certain	-1.5	-9.1	0.0	No	n/a	7.60249150622877	n/a	n/a	n/a	ISITrial	Mixed
208.223	3.0	0.03	260.281	14.0	1	-1.0	-1.0	16.5662	955.0	0.2	Certain	-5.39	2.5	0.0	No	4.0	7.88674971687429	2.774	210.997	n/a	GetAnswer	Mixed
211.015	4.0	0.018	263.073	14.0	1	-1.0	-1.0	16.5662	955.0	0.2	Certain	-5.39	2.5	0.0	No	n/a	7.88674971687429	n/a	n/a	n/a	ShowChoice	Mixed
215.044	1.0	0.029	267.102	14.0	1	-1.0	-1.0	16.5662	955.0	0.2	Certain	-5.39	2.5	0.0	No	n/a	7.88674971687429	n/a	n/a	n/a	ShowResult	Mixed
216.063	5.019	0.019	268.121	14.0	1	-1.0	-1.0	16.5662	955.0	0.2	Certain	-5.39	2.5	0.0	No	n/a	7.88674971687429	n/a	n/a	n/a	ISITrial	Mixed
221.112	3.0	0.03	273.17	15.0	1	-2.64	-2.0	16.2362	955.0	0.3	Outcome1	-2.64	-1.3	3.3485	Yes	2.0	-1.34418648546621	2.373	223.485	n/a	GetAnswer	Mixed
223.502	4.0	0.017	275.56	15.0	1	-2.64	-2.0	16.2362	955.0	0.3	Outcome1	-2.64	-1.3	3.3485	Yes	n/a	-1.34418648546621	n/a	n/a	n/a	ShowChoice	Mixed
227.531	1.0	0.029	279.589	15.0	1	-2.64	-2.0	16.2362	955.0	0.3	Outcome1	-2.64	-1.3	3.3485	Yes	n/a	-1.34418648546621	n/a	n/a	n/a	ShowResult	Mixed
228.551	7.614	0.02	280.609	15.0	1	-2.64	-2.0	16.2362	955.0	0.3	Outcome1	-2.64	-1.3	3.3485	Yes	n/a	-1.34418648546621	n/a	n/a	n/a	ISITrial	Mixed
236.19	3.348	0.025	288.248	15.0	1	-2.64	-2.0	16.2362	955.0	0.3	Outcome1	-2.64	-1.3	3.3485	Yes	n/a	-1.34418648546621	n/a	n/a	n/a	TrialHappPreview	Mixed
239.567	4.029	0.029	291.625	15.0	1	-2.64	-2.0	16.2362	955.0	0.3	Outcome1	-2.64	-1.3	3.3485	Yes	2{-2}4{-4}4{-4}	-1.34418648546621	1.739	241.306	684.0	TrialHappiness	Mixed
239.568	1.326	n/a	292.039	15.0	1	-2.64	-2.0	16.2362	955.0	0.3	Outcome1	-2.64	-1.3	3.3485	Yes	n/a	-1.34418648546621	n/a	n/a	684.0	TrialHappinessSliderResponse	Mixed
243.596	5.394	4.029	295.654	15.0	1	-2.64	-2.0	16.2362	955.0	0.3	Outcome1	-2.64	-1.3	3.3485	Yes	n/a	-1.34418648546621	n/a	n/a	n/a	ISIRate	Mixed
249.012	3.0	0.022	301.07	16.0	1	11.7	1.45	17.6987	955.0	3.16	Outcome1	11.7	2.9	0.0	No	2.0	8.79501698754247	1.508	250.52	n/a	GetAnswer	Loss
250.55	4.0	0.03	302.608	16.0	1	11.7	1.45	17.6987	955.0	3.16	Outcome1	11.7	2.9	0.0	No	n/a	8.79501698754247	n/a	n/a	n/a	ShowChoice	Loss
254.579	1.0	0.029	306.637	16.0	1	11.7	1.45	17.6987	955.0	3.16	Outcome1	11.7	2.9	0.0	No	n/a	8.79501698754247	n/a	n/a	n/a	ShowResult	Loss
255.598	3.008	0.019	307.656	16.0	1	11.7	1.45	17.6987	955.0	3.16	Outcome1	11.7	2.9	0.0	No	n/a	8.79501698754247	n/a	n/a	n/a	ISITrial	Loss
258.641	3.0	0.035	310.699	17.0	1	11.9	1.4	19.1862	955.0	3.6	Outcome1	11.9	2.8	3.0415	Yes	2.0	9.10192525481314	1.523	260.164	n/a	GetAnswer	Loss
260.195	4.0	0.031	312.253	17.0	1	11.9	1.4	19.1862	955.0	3.6	Outcome1	11.9	2.8	3.0415	Yes	n/a	9.10192525481314	n/a	n/a	n/a	ShowChoice	Loss
264.207	1.0	0.012	316.265	17.0	1	11.9	1.4	19.1862	955.0	3.6	Outcome1	11.9	2.8	3.0415	Yes	n/a	9.10192525481314	n/a	n/a	n/a	ShowResult	Loss
265.227	3.566	0.02	317.285	17.0	1	11.9	1.4	19.1862	955.0	3.6	Outcome1	11.9	2.8	3.0415	Yes	n/a	9.10192525481314	n/a	n/a	n/a	ISITrial	Loss
268.821	3.042	0.028	320.879	17.0	1	11.9	1.4	19.1862	955.0	3.6	Outcome1	11.9	2.8	3.0415	Yes	n/a	9.10192525481314	n/a	n/a	n/a	TrialHappPreview	Loss
271.897	4.029	0.034	323.955	17.0	1	11.9	1.4	19.1862	955.0	3.6	Outcome1	11.9	2.8	3.0415	Yes	n/a	9.10192525481314	n/a	n/a	696.0	TrialHappiness	Loss
271.898	1.907	n/a	324.33	17.0	1	11.9	1.4	19.1862	955.0	3.6	Outcome1	11.9	2.8	3.0415	Yes	n/a	9.10192525481314	n/a	n/a	696.0	TrialHappinessSliderResponse	Loss
275.926	4.166	4.029	327.984	17.0	1	11.9	1.4	19.1862	955.0	3.6	Outcome1	11.9	2.8	3.0415	Yes	n/a	9.10192525481314	n/a	n/a	n/a	ISIRate	Loss
280.122	3.0	0.03	332.18	18.0	1	3.9	0.0	19.6737	955.0	1.2	Outcome2	-5.3	3.9	0.0	No	2.0	9.204983012457529	2.482	282.604	n/a	GetAnswer	Mixed
282.629	4.0	0.025	334.687	18.0	1	3.9	0.0	19.6737	955.0	1.2	Outcome2	-5.3	3.9	0.0	No	n/a	9.204983012457529	n/a	n/a	n/a	ShowChoice	Mixed
286.658	1.0	0.029	338.716	18.0	1	3.9	0.0	19.6737	955.0	1.2	Outcome2	-5.3	3.9	0.0	No	n/a	9.204983012457529	n/a	n/a	n/a	ShowResult	Mixed
287.678	6.787	0.02	339.736	18.0	1	3.9	0.0	19.6737	955.0	1.2	Outcome2	-5.3	3.9	0.0	No	n/a	9.204983012457529	n/a	n/a	n/a	ISITrial	Mixed
294.498	3.0	0.033	346.556	19.0	1	4.62	2.31	20.2512	955.0	4.2	Outcome1	4.62	6.1	0.0	No	2.0	-1.4759343148357902	2.328	296.826	n/a	GetAnswer	Gain
296.855	4.0	0.029	348.913	19.0	1	4.62	2.31	20.2512	955.0	4.2	Outcome1	4.62	6.1	0.0	No	n/a	-1.4759343148357902	n/a	n/a	n/a	ShowChoice	Gain
300.867	1.0	0.012	352.925	19.0	1	4.62	2.31	20.2512	955.0	4.2	Outcome1	4.62	6.1	0.0	No	n/a	-1.4759343148357902	n/a	n/a	n/a	ShowResult	Gain
301.887	2.0	0.02	353.945	19.0	1	4.62	2.31	20.2512	955.0	4.2	Outcome1	4.62	6.1	0.0	No	n/a	-1.4759343148357902	n/a	n/a	n/a	ISITrial	Gain
303.91	3.0	0.023	355.968	20.0	1	10.7	0.46	21.5887	955.0	1.82	Outcome1	10.7	0.91	2.92125	Yes	2.0	9.791619479048698	2.043	305.953	n/a	GetAnswer	Loss
305.982	4.0	0.029	358.04	20.0	1	10.7	0.46	21.5887	955.0	1.82	Outcome1	10.7	0.91	2.92125	Yes	n/a	9.791619479048698	n/a	n/a	n/a	ShowChoice	Loss
310.011	1.0	0.029	362.069	20.0	1	10.7	0.46	21.5887	955.0	1.82	Outcome1	10.7	0.91	2.92125	Yes	n/a	9.791619479048698	n/a	n/a	n/a	ShowResult	Loss
311.031	8.0	0.02	363.089	20.0	1	10.7	0.46	21.5887	955.0	1.82	Outcome1	10.7	0.91	2.92125	Yes	n/a	9.791619479048698	n/a	n/a	n/a	ISITrial	Loss
319.055	2.921	0.024	371.113	20.0	1	10.7	0.46	21.5887	955.0	1.82	Outcome1	10.7	0.91	2.92125	Yes	n/a	9.791619479048698	n/a	n/a	n/a	TrialHappPreview	Loss
321.997	4.012	0.021	374.055	20.0	1	10.7	0.46	21.5887	955.0	1.82	Outcome1	10.7	0.91	2.92125	Yes	n/a	9.791619479048698	n/a	n/a	700.0	TrialHappiness	Loss
321.998	2.767	n/a	374.673	20.0	1	10.7	0.46	21.5887	955.0	1.82	Outcome1	10.7	0.91	2.92125	Yes	n/a	9.791619479048698	n/a	n/a	700.0	TrialHappinessSliderResponse	Loss
326.009	3.685	4.012	378.067	20.0	1	10.7	0.46	21.5887	955.0	1.82	Outcome1	10.7	0.91	2.92125	Yes	n/a	9.791619479048698	n/a	n/a	n/a	ISIRate	Loss
329.72	3.0	0.026	381.778	21.0	1	-5.0	-5.0	20.9637	955.0	0.82	Certain	-0.5	-10.52	0.0	No	4.0	10.0169875424689	1.506	331.226	n/a	GetAnswer	Mixed
331.241	4.0	0.015	383.299	21.0	1	-5.0	-5.0	20.9637	955.0	0.82	Certain	-0.5	-10.52	0.0	No	n/a	10.0169875424689	n/a	n/a	n/a	ShowChoice	Mixed
335.253	1.0	0.012	387.311	21.0	1	-5.0	-5.0	20.9637	955.0	0.82	Certain	-0.5	-10.52	0.0	No	n/a	10.0169875424689	n/a	n/a	n/a	ShowResult	Mixed
336.273	3.555	0.02	388.331	21.0	1	-5.0	-5.0	20.9637	955.0	0.82	Certain	-0.5	-10.52	0.0	No	n/a	10.0169875424689	n/a	n/a	n/a	ISITrial	Mixed
339.85	3.0	0.022	391.908	22.0	1	10.5	0.1	22.2762	955.0	1.68	Outcome2	0.19	10.5	3.2195	Yes	2.0	10.3057757644394	2.632	342.482	n/a	GetAnswer	Loss
342.508	4.0	0.026	394.566	22.0	1	10.5	0.1	22.2762	955.0	1.68	Outcome2	0.19	10.5	3.2195	Yes	n/a	10.3057757644394	n/a	n/a	n/a	ShowChoice	Loss
346.537	1.0	0.029	398.595	22.0	1	10.5	0.1	22.2762	955.0	1.68	Outcome2	0.19	10.5	3.2195	Yes	n/a	10.3057757644394	n/a	n/a	n/a	ShowResult	Loss
347.557	6.793	0.02	399.615	22.0	1	10.5	0.1	22.2762	955.0	1.68	Outcome2	0.19	10.5	3.2195	Yes	n/a	10.3057757644394	n/a	n/a	n/a	ISITrial	Loss
354.377	3.22	0.027	406.435	22.0	1	10.5	0.1	22.2762	955.0	1.68	Outcome2	0.19	10.5	3.2195	Yes	n/a	10.3057757644394	n/a	n/a	n/a	TrialHappPreview	Loss
357.62	4.029	0.023	409.678	22.0	1	10.5	0.1	22.2762	955.0	1.68	Outcome2	0.19	10.5	3.2195	Yes	n/a	10.3057757644394	n/a	n/a	664.0	TrialHappiness	Loss
357.621	1.267	n/a	410.309	22.0	1	10.5	0.1	22.2762	955.0	1.68	Outcome2	0.19	10.5	3.2195	Yes	n/a	10.3057757644394	n/a	n/a	664.0	TrialHappinessSliderResponse	Loss
361.649	4.878	4.029	413.707	22.0	1	10.5	0.1	22.2762	955.0	1.68	Outcome2	0.19	10.5	3.2195	Yes	n/a	10.3057757644394	n/a	n/a	n/a	ISIRate	Loss
366.547	3.0	0.02	418.605	23.0	1	-1.0	-1.0	22.1512	955.0	1.82	Certain	-6.51	4.7	0.0	No	4.0	11.2061155152888	1.774	368.321	n/a	GetAnswer	Gain
368.336	4.0	0.015	420.394	23.0	1	-1.0	-1.0	22.1512	955.0	1.82	Certain	-6.51	4.7	0.0	No	n/a	11.2061155152888	n/a	n/a	n/a	ShowChoice	Gain
372.364	1.0	0.028	424.422	23.0	1	-1.0	-1.0	22.1512	955.0	1.82	Certain	-6.51	4.7	0.0	No	n/a	11.2061155152888	n/a	n/a	n/a	ShowResult	Gain
373.384	8.0	0.02	425.442	23.0	1	-1.0	-1.0	22.1512	955.0	1.82	Certain	-6.51	4.7	0.0	No	n/a	11.2061155152888	n/a	n/a	n/a	ISITrial	Gain
381.408	3.0	0.024	433.466	24.0	1	5.1	0.0	22.7887	955.0	2.22	Outcome2	-6.44	5.1	3.255	Yes	2.0	11.535673839184598	2.802	384.21	n/a	GetAnswer	Gain
384.233	4.0	0.023	436.291	24.0	1	5.1	0.0	22.7887	955.0	2.22	Outcome2	-6.44	5.1	3.255	Yes	n/a	11.535673839184598	n/a	n/a	n/a	ShowChoice	Gain
388.262	1.0	0.029	440.32	24.0	1	5.1	0.0	22.7887	955.0	2.22	Outcome2	-6.44	5.1	3.255	Yes	n/a	11.535673839184598	n/a	n/a	n/a	ShowResult	Gain
389.282	2.0	0.02	441.34	24.0	1	5.1	0.0	22.7887	955.0	2.22	Outcome2	-6.44	5.1	3.255	Yes	n/a	11.535673839184598	n/a	n/a	n/a	ISITrial	Gain
391.304	3.255	0.022	443.362	24.0	1	5.1	0.0	22.7887	955.0	2.22	Outcome2	-6.44	5.1	3.255	Yes	n/a	11.535673839184598	n/a	n/a	n/a	TrialHappPreview	Gain
394.581	4.029	0.022	446.639	24.0	1	5.1	0.0	22.7887	955.0	2.22	Outcome2	-6.44	5.1	3.255	Yes	n/a	11.535673839184598	n/a	n/a	712.0	TrialHappiness	Gain
394.582	3.348	n/a	447.101	24.0	1	5.1	0.0	22.7887	955.0	2.22	Outcome2	-6.44	5.1	3.255	Yes	n/a	11.535673839184598	n/a	n/a	712.0	TrialHappinessSliderResponse	Gain
398.61	5.02	4.029	450.668	24.0	1	5.1	0.0	22.7887	955.0	2.22	Outcome2	-6.44	5.1	3.255	Yes	n/a	11.535673839184598	n/a	n/a	n/a	ISIRate	Gain
403.658	3.0	0.028	455.716	25.0	1	-3.0	-3.0	22.4137	955.0	0.3	Certain	-8.35	2.7	0.0	No	4.0	11.0498301245753	2.224	405.882	n/a	GetAnswer	Mixed
405.898	4.0	0.016	457.956	25.0	1	-3.0	-3.0	22.4137	955.0	0.3	Certain	-8.35	2.7	0.0	No	n/a	11.0498301245753	n/a	n/a	n/a	ShowChoice	Mixed
409.927	1.0	0.029	461.985	25.0	1	-3.0	-3.0	22.4137	955.0	0.3	Certain	-8.35	2.7	0.0	No	n/a	11.0498301245753	n/a	n/a	n/a	ShowResult	Mixed
410.947	3.749	0.02	463.005	25.0	1	-3.0	-3.0	22.4137	955.0	0.3	Certain	-8.35	2.7	0.0	No	n/a	11.0498301245753	n/a	n/a	n/a	ISITrial	Mixed
414.725	3.0	0.029	466.783	26.0	1	13.9	1.29	24.1512	955.0	3.6	Outcome2	2.58	13.9	0.0	No	2.0	11.3250283125708	1.618	416.343	n/a	GetAnswer	Loss
416.363	4.0	0.02	468.421	26.0	1	13.9	1.29	24.1512	955.0	3.6	Outcome2	2.58	13.9	0.0	No	n/a	11.3250283125708	n/a	n/a	n/a	ShowChoice	Loss
420.392	1.0	0.029	472.45	26.0	1	13.9	1.29	24.1512	955.0	3.6	Outcome2	2.58	13.9	0.0	No	n/a	11.3250283125708	n/a	n/a	n/a	ShowResult	Loss
421.411	7.834	0.019	473.469	26.0	1	13.9	1.29	24.1512	955.0	3.6	Outcome2	2.58	13.9	0.0	No	n/a	11.3250283125708	n/a	n/a	n/a	ISITrial	Loss
429.268	3.0	0.023	481.326	27.0	1	-2.0	-2.0	23.9012	955.0	0.52	Certain	3.1	-8.5	2.54975	Yes	4.0	11.6002265005663	2.244	431.512	n/a	GetAnswer	Mixed
431.542	4.0	0.03	483.6	27.0	1	-2.0	-2.0	23.9012	955.0	0.52	Certain	3.1	-8.5	2.54975	Yes	n/a	11.6002265005663	n/a	n/a	n/a	ShowChoice	Mixed
435.57	1.0	0.028	487.628	27.0	1	-2.0	-2.0	23.9012	955.0	0.52	Certain	3.1	-8.5	2.54975	Yes	n/a	11.6002265005663	n/a	n/a	n/a	ShowResult	Mixed
436.59	4.225	0.02	488.648	27.0	1	-2.0	-2.0	23.9012	955.0	0.52	Certain	3.1	-8.5	2.54975	Yes	n/a	11.6002265005663	n/a	n/a	n/a	ISITrial	Mixed
440.836	2.55	0.021	492.894	27.0	1	-2.0	-2.0	23.9012	955.0	0.52	Certain	3.1	-8.5	2.54975	Yes	n/a	11.6002265005663	n/a	n/a	n/a	TrialHappPreview	Mixed
443.41	4.012	0.024	495.468	27.0	1	-2.0	-2.0	23.9012	955.0	0.52	Certain	3.1	-8.5	2.54975	Yes	n/a	11.6002265005663	n/a	n/a	712.0	TrialHappiness	Mixed
443.411	1.528	n/a	496.172	27.0	1	-2.0	-2.0	23.9012	955.0	0.52	Certain	3.1	-8.5	2.54975	Yes	n/a	11.6002265005663	n/a	n/a	712.0	TrialHappinessSliderResponse	Mixed
447.422	2.199	4.012	499.48	27.0	1	-2.0	-2.0	23.9012	955.0	0.52	Certain	3.1	-8.5	2.54975	Yes	n/a	11.6002265005663	n/a	n/a	n/a	ISIRate	Mixed
488.646	2.59	n/a	541.604	n/a	1	n/a	n/a	n/a	n/a	n/a	n/a	n/a	n/a	n/a	n/a	n/a	n/a	n/a	n/a	712.0	BlockStartHappinessSliderResponse	n/a
-48.445	-0.001	0.025	501.704	n/a	2	n/a	n/a	n/a	n/a	n/a	n/a	n/a	n/a	n/a	n/a	{SPACE}	n/a	34.973	-13.472	n/a	Rest	n/a
-13.457	4.0	0.015	536.692	n/a	2	n/a	n/a	n/a	n/a	n/a	n/a	n/a	n/a	n/a	n/a	n/a	n/a	n/a	n/a	n/a	BlockHappyPreview	n/a
-9.445	3.49	0.012	540.704	n/a	2	n/a	n/a	n/a	n/a	n/a	n/a	n/a	n/a	n/a	n/a	n/a	n/a	n/a	n/a	712.0	BlockStartHappiness	n/a
-3.16	-0.001	0.024	546.989	n/a	2	n/a	n/a	n/a	n/a	n/a	n/a	n/a	n/a	n/a	n/a	5.0	n/a	3.14	-0.02	n/a	ScanWait	n/a
0.0	10.0	0.02	550.149	n/a	2	n/a	n/a	n/a	n/a	n/a	n/a	n/a	n/a	n/a	n/a	n/a	n/a	n/a	n/a	n/a	GetReady	n/a
10.03	3.0	0.03	560.179	28.0	2	0.0	0.0	23.9012	70.0	3.16	Certain	-5.22	5.7	0.0	No	4.0	-10.9183673469388	1.457	11.487	n/a	GetAnswer	Gain
11.501	4.0	0.014	561.65	28.0	2	0.0	0.0	23.9012	70.0	3.16	Certain	-5.22	5.7	0.0	No	n/a	-10.9183673469388	n/a	n/a	n/a	ShowChoice	Gain
15.53	1.0	0.029	565.679	28.0	2	0.0	0.0	23.9012	70.0	3.16	Certain	-5.22	5.7	0.0	No	n/a	-10.9183673469388	n/a	n/a	n/a	ShowResult	Gain
16.549	3.575	0.019	566.698	28.0	2	0.0	0.0	23.9012	70.0	3.16	Certain	-5.22	5.7	0.0	No	n/a	-10.9183673469388	n/a	n/a	n/a	ISITrial	Gain
20.143	3.0	0.019	570.292	29.0	2	1.23	0.0	24.055	70.0	2.0	Outcome2	-1.44	1.23	3.529	Yes	2.0	2.6689342403628102	2.155	22.298	n/a	GetAnswer	Gain
22.317	4.0	0.019	572.466	29.0	2	1.23	0.0	24.055	70.0	2.0	Outcome2	-1.44	1.23	3.529	Yes	n/a	2.6689342403628102	n/a	n/a	n/a	ShowChoice	Gain
26.345	1.0	0.028	576.494	29.0	2	1.23	0.0	24.055	70.0	2.0	Outcome2	-1.44	1.23	3.529	Yes	n/a	2.6689342403628102	n/a	n/a	n/a	ShowResult	Gain
27.365	3.955	0.02	577.514	29.0	2	1.23	0.0	24.055	70.0	2.0	Outcome2	-1.44	1.23	3.529	Yes	n/a	2.6689342403628102	n/a	n/a	n/a	ISITrial	Gain
31.344	3.529	0.024	581.493	29.0	2	1.23	0.0	24.055	70.0	2.0	Outcome2	-1.44	1.23	3.529	Yes	n/a	2.6689342403628102	n/a	n/a	n/a	TrialHappPreview	Gain
34.904	4.029	0.031	585.053	29.0	2	1.23	0.0	24.055	70.0	2.0	Outcome2	-1.44	1.23	3.529	Yes	n/a	2.6689342403628102	n/a	n/a	700.0	TrialHappiness	Gain
34.905	2.069	n/a	585.527	29.0	2	1.23	0.0	24.055	70.0	2.0	Outcome2	-1.44	1.23	3.529	Yes	n/a	2.6689342403628102	n/a	n/a	700.0	TrialHappinessSliderResponse	Gain
38.933	6.116	4.029	589.082	29.0	2	1.23	0.0	24.055	70.0	2.0	Outcome2	-1.44	1.23	3.529	Yes	n/a	2.6689342403628102	n/a	n/a	n/a	ISIRate	Gain
45.068	3.0	0.019	595.217	30.0	2	-6.0	-6.0	23.305	70.0	1.0	Certain	-12.47	-0.3	0.0	No	4.0	-12.1700680272109	1.542	46.61	n/a	GetAnswer	Mixed
46.639	4.0	0.029	596.788	30.0	2	-6.0	-6.0	23.305	70.0	1.0	Certain	-12.47	-0.3	0.0	No	n/a	-12.1700680272109	n/a	n/a	n/a	ShowChoice	Mixed
50.668	1.0	0.029	600.817	30.0	2	-6.0	-6.0	23.305	70.0	1.0	Certain	-12.47	-0.3	0.0	No	n/a	-12.1700680272109	n/a	n/a	n/a	ShowResult	Mixed
51.688	4.453	0.02	601.837	30.0	2	-6.0	-6.0	23.305	70.0	1.0	Certain	-12.47	-0.3	0.0	No	n/a	-12.1700680272109	n/a	n/a	n/a	ISITrial	Mixed
56.168	3.0	0.027	606.317	31.0	2	0.82	0.41	23.4075	70.0	3.16	Outcome1	0.82	13.7	2.50325	Yes	2.0	-12.884353741496598	2.085	58.253	n/a	GetAnswer	Loss
58.274	4.0	0.021	608.423	31.0	2	0.82	0.41	23.4075	70.0	3.16	Outcome1	0.82	13.7	2.50325	Yes	n/a	-12.884353741496598	n/a	n/a	n/a	ShowChoice	Loss
62.303	1.0	0.029	612.452	31.0	2	0.82	0.41	23.4075	70.0	3.16	Outcome1	0.82	13.7	2.50325	Yes	n/a	-12.884353741496598	n/a	n/a	n/a	ShowResult	Loss
63.323	4.786	0.02	613.472	31.0	2	0.82	0.41	23.4075	70.0	3.16	Outcome1	0.82	13.7	2.50325	Yes	n/a	-12.884353741496598	n/a	n/a	n/a	ISITrial	Loss
68.137	2.503	0.028	618.286	31.0	2	0.82	0.41	23.4075	70.0	3.16	Outcome1	0.82	13.7	2.50325	Yes	n/a	-12.884353741496598	n/a	n/a	n/a	TrialHappPreview	Loss
70.661	4.029	0.021	620.81	31.0	2	0.82	0.41	23.4075	70.0	3.16	Outcome1	0.82	13.7	2.50325	Yes	n/a	-12.884353741496598	n/a	n/a	712.0	TrialHappiness	Loss
70.662	1.562	n/a	621.38	31.0	2	0.82	0.41	23.4075	70.0	3.16	Outcome1	0.82	13.7	2.50325	Yes	n/a	-12.884353741496598	n/a	n/a	712.0	TrialHappinessSliderResponse	Loss
74.69	2.013	4.029	624.839	31.0	2	0.82	0.41	23.4075	70.0	3.16	Outcome1	0.82	13.7	2.50325	Yes	n/a	-12.884353741496598	n/a	n/a	n/a	ISIRate	Loss
76.729	3.0	0.026	626.878	32.0	2	1.0	1.0	23.5325	70.0	4.2	Certain	-0.33	2.52	0.0	No	4.0	2.8486394557823096	2.211	78.94	n/a	GetAnswer	Gain
78.969	4.0	0.029	629.118	32.0	2	1.0	1.0	23.5325	70.0	4.2	Certain	-0.33	2.52	0.0	No	n/a	2.8486394557823096	n/a	n/a	n/a	ShowChoice	Gain
82.981	1.0	0.012	633.13	32.0	2	1.0	1.0	23.5325	70.0	4.2	Certain	-0.33	2.52	0.0	No	n/a	2.8486394557823096	n/a	n/a	n/a	ShowResult	Gain
84.001	2.0	0.02	634.15	32.0	2	1.0	1.0	23.5325	70.0	4.2	Certain	-0.33	2.52	0.0	No	n/a	2.8486394557823096	n/a	n/a	n/a	ISITrial	Gain
86.024	3.0	0.023	636.173	33.0	2	-13.83	-6.0	21.8037	70.0	0.3	Outcome2	0.7	-13.83	0.0	No	n/a	-14.530612244898	n/a	n/a	n/a	GetAnswer	Mixed
89.05	4.0	0.026	639.199	33.0	2	-13.83	-6.0	21.8037	70.0	0.3	Outcome2	0.7	-13.83	0.0	No	n/a	-14.530612244898	n/a	n/a	n/a	ShowChoice	Mixed
93.078	1.0	0.028	643.227	33.0	2	-13.83	-6.0	21.8037	70.0	0.3	Outcome2	0.7	-13.83	0.0	No	n/a	-14.530612244898	n/a	n/a	n/a	ShowResult	Mixed
94.098	5.099	0.02	644.247	33.0	2	-13.83	-6.0	21.8037	70.0	0.3	Outcome2	0.7	-13.83	0.0	No	n/a	-14.530612244898	n/a	n/a	n/a	ISITrial	Mixed
99.23	3.0	0.033	649.379	34.0	2	-11.16	-3.0	20.4087	70.0	1.5	Outcome1	-11.16	4.1	3.2315	Yes	2.0	-15.2585034013605	1.729	100.959	n/a	GetAnswer	Mixed
100.985	4.0	0.026	651.134	34.0	2	-11.16	-3.0	20.4087	70.0	1.5	Outcome1	-11.16	4.1	3.2315	Yes	n/a	-15.2585034013605	n/a	n/a	n/a	ShowChoice	Mixed
104.997	1.0	0.012	655.146	34.0	2	-11.16	-3.0	20.4087	70.0	1.5	Outcome1	-11.16	4.1	3.2315	Yes	n/a	-15.2585034013605	n/a	n/a	n/a	ShowResult	Mixed
106.017	4.784	0.02	656.166	34.0	2	-11.16	-3.0	20.4087	70.0	1.5	Outcome1	-11.16	4.1	3.2315	Yes	n/a	-15.2585034013605	n/a	n/a	n/a	ISITrial	Mixed
110.815	3.232	0.014	660.964	34.0	2	-11.16	-3.0	20.4087	70.0	1.5	Outcome1	-11.16	4.1	3.2315	Yes	n/a	-15.2585034013605	n/a	n/a	n/a	TrialHappPreview	Mixed
114.075	4.028	0.028	664.224	34.0	2	-11.16	-3.0	20.4087	70.0	1.5	Outcome1	-11.16	4.1	3.2315	Yes	n/a	-15.2585034013605	n/a	n/a	724.0	TrialHappiness	Mixed
114.075	2.299	n/a	664.623	34.0	2	-11.16	-3.0	20.4087	70.0	1.5	Outcome1	-11.16	4.1	3.2315	Yes	n/a	-15.2585034013605	n/a	n/a	724.0	TrialHappinessSliderResponse	Mixed
118.103	4.926	4.028	668.252	34.0	2	-11.16	-3.0	20.4087	70.0	1.5	Outcome1	-11.16	4.1	3.2315	Yes	n/a	-15.2585034013605	n/a	n/a	n/a	ISIRate	Mixed
123.051	3.0	0.022	673.2	35.0	2	-4.0	-4.0	19.9087	70.0	2.0	Certain	4.3	-11.89	0.0	No	4.0	-16.190476190476197	1.669	124.72	n/a	GetAnswer	Mixed
124.74	4.0	0.02	674.889	35.0	2	-4.0	-4.0	19.9087	70.0	2.0	Certain	4.3	-11.89	0.0	No	n/a	-16.190476190476197	n/a	n/a	n/a	ShowChoice	Mixed
128.769	1.0	0.029	678.918	35.0	2	-4.0	-4.0	19.9087	70.0	2.0	Certain	4.3	-11.89	0.0	No	n/a	-16.190476190476197	n/a	n/a	n/a	ShowResult	Mixed
129.788	2.098	0.019	679.937	35.0	2	-4.0	-4.0	19.9087	70.0	2.0	Certain	4.3	-11.89	0.0	No	n/a	-16.190476190476197	n/a	n/a	n/a	ISITrial	Mixed
131.911	3.0	0.025	682.06	36.0	2	-2.0	-2.0	19.6587	70.0	1.82	Certain	6.7	-10.23	3.33575	Yes	4.0	-16.9319727891156	2.333	134.244	n/a	GetAnswer	Gain
134.268	4.0	0.024	684.417	36.0	2	-2.0	-2.0	19.6587	70.0	1.82	Certain	6.7	-10.23	3.33575	Yes	n/a	-16.9319727891156	n/a	n/a	n/a	ShowChoice	Gain
138.28	1.0	0.012	688.429	36.0	2	-2.0	-2.0	19.6587	70.0	1.82	Certain	6.7	-10.23	3.33575	Yes	n/a	-16.9319727891156	n/a	n/a	n/a	ShowResult	Gain
139.3	5.156	0.02	689.449	36.0	2	-2.0	-2.0	19.6587	70.0	1.82	Certain	6.7	-10.23	3.33575	Yes	n/a	-16.9319727891156	n/a	n/a	n/a	ISITrial	Gain
144.482	3.336	0.026	694.631	36.0	2	-2.0	-2.0	19.6587	70.0	1.82	Certain	6.7	-10.23	3.33575	Yes	n/a	-16.9319727891156	n/a	n/a	n/a	TrialHappPreview	Gain
147.842	4.029	0.024	697.991	36.0	2	-2.0	-2.0	19.6587	70.0	1.82	Certain	6.7	-10.23	3.33575	Yes	n/a	-16.9319727891156	n/a	n/a	736.0	TrialHappiness	Gain
147.843	1.881	n/a	699.245	36.0	2	-2.0	-2.0	19.6587	70.0	1.82	Certain	6.7	-10.23	3.33575	Yes	n/a	-16.9319727891156	n/a	n/a	736.0	TrialHappinessSliderResponse	Gain
151.871	5.343	4.029	702.02	36.0	2	-2.0	-2.0	19.6587	70.0	1.82	Certain	6.7	-10.23	3.33575	Yes	n/a	-16.9319727891156	n/a	n/a	n/a	ISIRate	Gain
157.237	3.0	0.023	707.386	37.0	2	-9.0	-9.0	18.5337	70.0	1.5	Certain	0.1	-17.78	0.0	No	4.0	-17.877551020408198	2.459	159.696	n/a	GetAnswer	Mixed
159.711	4.0	0.015	709.86	37.0	2	-9.0	-9.0	18.5337	70.0	1.5	Certain	0.1	-17.78	0.0	No	n/a	-17.877551020408198	n/a	n/a	n/a	ShowChoice	Mixed
163.723	1.0	0.012	713.872	37.0	2	-9.0	-9.0	18.5337	70.0	1.5	Certain	0.1	-17.78	0.0	No	n/a	-17.877551020408198	n/a	n/a	n/a	ShowResult	Mixed
164.743	3.598	0.02	714.892	37.0	2	-9.0	-9.0	18.5337	70.0	1.5	Certain	0.1	-17.78	0.0	No	n/a	-17.877551020408198	n/a	n/a	n/a	ISITrial	Mixed
168.37	3.0	0.029	718.519	38.0	2	-5.13	-2.56	17.8925	70.0	2.8	Outcome1	-5.13	13.5	0.0	No	2.0	-18.632653061224502	1.731	170.101	n/a	GetAnswer	Loss
170.126	4.0	0.025	720.275	38.0	2	-5.13	-2.56	17.8925	70.0	2.8	Outcome1	-5.13	13.5	0.0	No	n/a	-18.632653061224502	n/a	n/a	n/a	ShowChoice	Loss
174.154	1.0	0.028	724.303	38.0	2	-5.13	-2.56	17.8925	70.0	2.8	Outcome1	-5.13	13.5	0.0	No	n/a	-18.632653061224502	n/a	n/a	n/a	ShowResult	Loss
175.174	4.787	0.02	725.323	38.0	2	-5.13	-2.56	17.8925	70.0	2.8	Outcome1	-5.13	13.5	0.0	No	n/a	-18.632653061224502	n/a	n/a	n/a	ISITrial	Loss
179.989	3.0	0.028	730.138	39.0	2	-9.0	-9.0	16.7675	70.0	0.2	Certain	-18.89	0.5	2.86425	Yes	4.0	-19.387755102040803	2.375	182.364	n/a	GetAnswer	Mixed
182.379	4.0	0.015	732.528	39.0	2	-9.0	-9.0	16.7675	70.0	0.2	Certain	-18.89	0.5	2.86425	Yes	n/a	-19.387755102040803	n/a	n/a	n/a	ShowChoice	Mixed
186.391	1.0	0.012	736.54	39.0	2	-9.0	-9.0	16.7675	70.0	0.2	Certain	-18.89	0.5	2.86425	Yes	n/a	-19.387755102040803	n/a	n/a	n/a	ShowResult	Mixed
187.411	2.348	0.02	737.56	39.0	2	-9.0	-9.0	16.7675	70.0	0.2	Certain	-18.89	0.5	2.86425	Yes	n/a	-19.387755102040803	n/a	n/a	n/a	ISITrial	Mixed
189.785	2.864	0.026	739.934	39.0	2	-9.0	-9.0	16.7675	70.0	0.2	Certain	-18.89	0.5	2.86425	Yes	n/a	-19.387755102040803	n/a	n/a	n/a	TrialHappPreview	Mixed
192.677	4.012	0.028	742.826	39.0	2	-9.0	-9.0	16.7675	70.0	0.2	Certain	-18.89	0.5	2.86425	Yes	n/a	-19.387755102040803	n/a	n/a	752.0	TrialHappiness	Mixed
192.677	1.652	n/a	743.388	39.0	2	-9.0	-9.0	16.7675	70.0	0.2	Certain	-18.89	0.5	2.86425	Yes	n/a	-19.387755102040803	n/a	n/a	752.0	TrialHappinessSliderResponse	Mixed
196.689	3.457	4.012	746.838	39.0	2	-9.0	-9.0	16.7675	70.0	0.2	Certain	-18.89	0.5	2.86425	Yes	n/a	-19.387755102040803	n/a	n/a	n/a	ISIRate	Mixed
200.166	3.0	0.02	750.315	40.0	2	0.0	0.0	16.7675	70.0	5.0	Certain	10.3	-10.12	0.0	No	4.0	-20.4149659863946	2.85	203.016	n/a	GetAnswer	Gain
203.041	4.0	0.025	753.19	40.0	2	0.0	0.0	16.7675	70.0	5.0	Certain	10.3	-10.12	0.0	No	n/a	-20.4149659863946	n/a	n/a	n/a	ShowChoice	Gain
207.07	1.0	0.029	757.219	40.0	2	0.0	0.0	16.7675	70.0	5.0	Certain	10.3	-10.12	0.0	No	n/a	-20.4149659863946	n/a	n/a	n/a	ShowResult	Gain
208.089	3.158	0.019	758.238	40.0	2	0.0	0.0	16.7675	70.0	5.0	Certain	10.3	-10.12	0.0	No	n/a	-20.4149659863946	n/a	n/a	n/a	ISITrial	Gain
211.265	3.0	0.018	761.414	41.0	2	-9.09	1.0	15.6313	70.0	4.2	Outcome1	-9.09	12.1	4.0	Yes	2.0	-21.18820861678	2.175	213.44	n/a	GetAnswer	Loss
213.455	4.0	0.015	763.604	41.0	2	-9.09	1.0	15.6313	70.0	4.2	Outcome1	-9.09	12.1	4.0	Yes	n/a	-21.18820861678	n/a	n/a	n/a	ShowChoice	Loss
217.467	1.0	0.012	767.616	41.0	2	-9.09	1.0	15.6313	70.0	4.2	Outcome1	-9.09	12.1	4.0	Yes	n/a	-21.18820861678	n/a	n/a	n/a	ShowResult	Loss
218.487	4.506	0.02	768.636	41.0	2	-9.09	1.0	15.6313	70.0	4.2	Outcome1	-9.09	12.1	4.0	Yes	n/a	-21.18820861678	n/a	n/a	n/a	ISITrial	Loss
223.017	4.0	0.024	773.166	41.0	2	-9.09	1.0	15.6313	70.0	4.2	Outcome1	-9.09	12.1	4.0	Yes	n/a	-21.18820861678	n/a	n/a	n/a	TrialHappPreview	Loss
227.046	4.029	0.029	777.195	41.0	2	-9.09	1.0	15.6313	70.0	4.2	Outcome1	-9.09	12.1	4.0	Yes	n/a	-21.18820861678	n/a	n/a	752.0	TrialHappiness	Loss
227.047	2.769	n/a	777.561	41.0	2	-9.09	1.0	15.6313	70.0	4.2	Outcome1	-9.09	12.1	4.0	Yes	n/a	-21.18820861678	n/a	n/a	752.0	TrialHappinessSliderResponse	Loss
231.075	8.0	4.029	781.224	41.0	2	-9.09	1.0	15.6313	70.0	4.2	Outcome1	-9.09	12.1	4.0	Yes	n/a	-21.18820861678	n/a	n/a	n/a	ISIRate	Loss
239.099	3.0	0.024	789.248	42.0	2	3.12	1.0	16.0213	70.0	1.68	Outcome2	-0.51	3.12	0.0	No	2.0	3.6343537414966	1.924	241.023	n/a	GetAnswer	Loss
241.055	4.0	0.032	791.204	42.0	2	3.12	1.0	16.0213	70.0	1.68	Outcome2	-0.51	3.12	0.0	No	n/a	3.6343537414966	n/a	n/a	n/a	ShowChoice	Loss
245.083	1.0	0.028	795.232	42.0	2	3.12	1.0	16.0213	70.0	1.68	Outcome2	-0.51	3.12	0.0	No	n/a	3.6343537414966	n/a	n/a	n/a	ShowResult	Loss
246.103	6.248	0.02	796.252	42.0	2	3.12	1.0	16.0213	70.0	1.68	Outcome2	-0.51	3.12	0.0	No	n/a	3.6343537414966	n/a	n/a	n/a	ISITrial	Loss
252.372	3.0	0.021	802.521	43.0	2	-12.0	-12.0	14.5213	70.0	0.52	Certain	-0.9	-23.63	2.77575	Yes	4.0	-22.734693877551	1.726	254.098	n/a	GetAnswer	Mixed
254.127	4.0	0.029	804.276	43.0	2	-12.0	-12.0	14.5213	70.0	0.52	Certain	-0.9	-23.63	2.77575	Yes	n/a	-22.734693877551	n/a	n/a	n/a	ShowChoice	Mixed
258.139	1.0	0.012	808.288	43.0	2	-12.0	-12.0	14.5213	70.0	0.52	Certain	-0.9	-23.63	2.77575	Yes	n/a	-22.734693877551	n/a	n/a	n/a	ShowResult	Mixed
259.159	4.596	0.02	809.308	43.0	2	-12.0	-12.0	14.5213	70.0	0.52	Certain	-0.9	-23.63	2.77575	Yes	n/a	-22.734693877551	n/a	n/a	n/a	ISITrial	Mixed
263.773	2.776	0.018	813.922	43.0	2	-12.0	-12.0	14.5213	70.0	0.52	Certain	-0.9	-23.63	2.77575	Yes	n/a	-22.734693877551	n/a	n/a	n/a	TrialHappPreview	Mixed
266.581	4.029	0.032	816.73	43.0	2	-12.0	-12.0	14.5213	70.0	0.52	Certain	-0.9	-23.63	2.77575	Yes	n/a	-22.734693877551	n/a	n/a	736.0	TrialHappiness	Mixed
266.582	1.534	n/a	817.428	43.0	2	-12.0	-12.0	14.5213	70.0	0.52	Certain	-0.9	-23.63	2.77575	Yes	n/a	-22.734693877551	n/a	n/a	736.0	TrialHappinessSliderResponse	Mixed
270.61	3.103	4.029	820.759	43.0	2	-12.0	-12.0	14.5213	70.0	0.52	Certain	-0.9	-23.63	2.77575	Yes	n/a	-22.734693877551	n/a	n/a	n/a	ISIRate	Mixed
273.736	3.0	0.023	823.885	44.0	2	2.02	0.0	14.7738	70.0	4.2	Outcome2	-1.68	2.02	0.0	No	2.0	3.69822373393802	1.916	275.652	n/a	GetAnswer	Gain
275.675	4.0	0.023	825.824	44.0	2	2.02	0.0	14.7738	70.0	4.2	Outcome2	-1.68	2.02	0.0	No	n/a	3.69822373393802	n/a	n/a	n/a	ShowChoice	Gain
279.704	1.0	0.029	829.853	44.0	2	2.02	0.0	14.7738	70.0	4.2	Outcome2	-1.68	2.02	0.0	No	n/a	3.69822373393802	n/a	n/a	n/a	ShowResult	Gain
280.723	2.42	0.019	830.872	44.0	2	2.02	0.0	14.7738	70.0	4.2	Outcome2	-1.68	2.02	0.0	No	n/a	3.69822373393802	n/a	n/a	n/a	ISITrial	Gain
283.164	3.0	0.021	833.313	45.0	2	-11.0	-11.0	13.3988	70.0	2.0	Certain	0.3	-23.69	0.0	No	4.0	-23.9909297052154	1.614	284.778	n/a	GetAnswer	Mixed
284.802	4.0	0.024	834.951	45.0	2	-11.0	-11.0	13.3988	70.0	2.0	Certain	0.3	-23.69	0.0	No	n/a	-23.9909297052154	n/a	n/a	n/a	ShowChoice	Mixed
288.814	1.0	0.012	838.963	45.0	2	-11.0	-11.0	13.3988	70.0	2.0	Certain	0.3	-23.69	0.0	No	n/a	-23.9909297052154	n/a	n/a	n/a	ShowResult	Mixed
289.834	3.144	0.02	839.983	45.0	2	-11.0	-11.0	13.3988	70.0	2.0	Certain	0.3	-23.69	0.0	No	n/a	-23.9909297052154	n/a	n/a	n/a	ISITrial	Mixed
293.01	3.0	0.032	843.159	46.0	2	-11.0	-11.0	12.0238	70.0	0.82	Certain	1.5	-23.25	3.84125	Yes	4.0	-24.7460317460317	1.442	294.452	n/a	GetAnswer	Mixed
294.481	4.0	0.029	844.63	46.0	2	-11.0	-11.0	12.0238	70.0	0.82	Certain	1.5	-23.25	3.84125	Yes	n/a	-24.7460317460317	n/a	n/a	n/a	ShowChoice	Mixed
298.493	1.0	0.012	848.642	46.0	2	-11.0	-11.0	12.0238	70.0	0.82	Certain	1.5	-23.25	3.84125	Yes	n/a	-24.7460317460317	n/a	n/a	n/a	ShowResult	Mixed
299.513	2.246	0.02	849.662	46.0	2	-11.0	-11.0	12.0238	70.0	0.82	Certain	1.5	-23.25	3.84125	Yes	n/a	-24.7460317460317	n/a	n/a	n/a	ISITrial	Mixed
301.786	3.841	0.027	851.935	46.0	2	-11.0	-11.0	12.0238	70.0	0.82	Certain	1.5	-23.25	3.84125	Yes	n/a	-24.7460317460317	n/a	n/a	n/a	TrialHappPreview	Mixed
305.648	4.012	0.021	855.797	46.0	2	-11.0	-11.0	12.0238	70.0	0.82	Certain	1.5	-23.25	3.84125	Yes	n/a	-24.7460317460317	n/a	n/a	752.0	TrialHappiness	Mixed
305.649	1.571	n/a	856.809	46.0	2	-11.0	-11.0	12.0238	70.0	0.82	Certain	1.5	-23.25	3.84125	Yes	n/a	-24.7460317460317	n/a	n/a	752.0	TrialHappinessSliderResponse	Mixed
309.66	7.365	4.012	859.809	46.0	2	-11.0	-11.0	12.0238	70.0	0.82	Certain	1.5	-23.25	3.84125	Yes	n/a	-24.7460317460317	n/a	n/a	n/a	ISIRate	Mixed
317.049	3.0	0.024	867.198	47.0	2	-1.0	-1.0	11.8988	70.0	0.82	Certain	-3.07	0.88	0.0	No	4.0	3.9520030234316	2.549	319.598	n/a	GetAnswer	Mixed
319.623	4.0	0.025	869.772	47.0	2	-1.0	-1.0	11.8988	70.0	0.82	Certain	-3.07	0.88	0.0	No	n/a	3.9520030234316	n/a	n/a	n/a	ShowChoice	Mixed
323.635	1.0	0.012	873.784	47.0	2	-1.0	-1.0	11.8988	70.0	0.82	Certain	-3.07	0.88	0.0	No	n/a	3.9520030234316	n/a	n/a	n/a	ShowResult	Mixed
324.655	2.0	0.02	874.804	47.0	2	-1.0	-1.0	11.8988	70.0	0.82	Certain	-3.07	0.88	0.0	No	n/a	3.9520030234316	n/a	n/a	n/a	ISITrial	Mixed
326.678	3.0	0.023	876.827	48.0	2	2.88	1.0	12.2588	70.0	2.8	Outcome2	-1.14	2.88	2.83175	Yes	2.0	4.016439909297049	2.294	328.972	n/a	GetAnswer	Loss
328.985	4.0	0.013	879.134	48.0	2	2.88	1.0	12.2588	70.0	2.8	Outcome2	-1.14	2.88	2.83175	Yes	n/a	4.016439909297049	n/a	n/a	n/a	ShowChoice	Loss
332.997	1.0	0.012	883.146	48.0	2	2.88	1.0	12.2588	70.0	2.8	Outcome2	-1.14	2.88	2.83175	Yes	n/a	4.016439909297049	n/a	n/a	n/a	ShowResult	Loss
334.016	3.692	0.019	884.165	48.0	2	2.88	1.0	12.2588	70.0	2.8	Outcome2	-1.14	2.88	2.83175	Yes	n/a	4.016439909297049	n/a	n/a	n/a	ISITrial	Loss
337.727	2.832	0.019	887.876	48.0	2	2.88	1.0	12.2588	70.0	2.8	Outcome2	-1.14	2.88	2.83175	Yes	n/a	4.016439909297049	n/a	n/a	n/a	TrialHappPreview	Loss
340.586	4.012	0.027	890.735	48.0	2	2.88	1.0	12.2588	70.0	2.8	Outcome2	-1.14	2.88	2.83175	Yes	2{-2}2{-2}	4.016439909297049	3.268	343.854	768.0	TrialHappiness	Loss
340.587	2.527	n/a	891.477	48.0	2	2.88	1.0	12.2588	70.0	2.8	Outcome2	-1.14	2.88	2.83175	Yes	n/a	4.016439909297049	n/a	n/a	768.0	TrialHappinessSliderResponse	Loss
344.598	3.327	4.012	894.747	48.0	2	2.88	1.0	12.2588	70.0	2.8	Outcome2	-1.14	2.88	2.83175	Yes	n/a	4.016439909297049	n/a	n/a	n/a	ISIRate	Loss
347.941	3.0	0.016	898.09	49.0	2	-1.0	-1.0	12.1338	70.0	2.0	Certain	12.9	-14.69	0.0	No	4.0	-27.5918367346939	2.049	349.99	n/a	GetAnswer	Loss
350.014	4.0	0.024	900.163	49.0	2	-1.0	-1.0	12.1338	70.0	2.0	Certain	12.9	-14.69	0.0	No	n/a	-27.5918367346939	n/a	n/a	n/a	ShowChoice	Loss
354.026	1.0	0.012	904.175	49.0	2	-1.0	-1.0	12.1338	70.0	2.0	Certain	12.9	-14.69	0.0	No	n/a	-27.5918367346939	n/a	n/a	n/a	ShowResult	Loss
355.046	8.0	0.02	905.195	49.0	2	-1.0	-1.0	12.1338	70.0	2.0	Certain	12.9	-14.69	0.0	No	n/a	-27.5918367346939	n/a	n/a	n/a	ISITrial	Loss
363.07	3.0	0.024	913.219	50.0	2	-5.0	-5.0	11.5088	70.0	2.0	Certain	8.9	-19.48	3.54725	Yes	4.0	-28.3832199546485	2.286	365.356	n/a	GetAnswer	Gain
365.377	4.0	0.021	915.526	50.0	2	-5.0	-5.0	11.5088	70.0	2.0	Certain	8.9	-19.48	3.54725	Yes	n/a	-28.3832199546485	n/a	n/a	n/a	ShowChoice	Gain
369.389	1.0	0.012	919.538	50.0	2	-5.0	-5.0	11.5088	70.0	2.0	Certain	8.9	-19.48	3.54725	Yes	n/a	-28.3832199546485	n/a	n/a	n/a	ShowResult	Gain
370.409	7.537	0.02	920.558	50.0	2	-5.0	-5.0	11.5088	70.0	2.0	Certain	8.9	-19.48	3.54725	Yes	n/a	-28.3832199546485	n/a	n/a	n/a	ISITrial	Gain
377.964	3.547	0.018	928.113	50.0	2	-5.0	-5.0	11.5088	70.0	2.0	Certain	8.9	-19.48	3.54725	Yes	n/a	-28.3832199546485	n/a	n/a	n/a	TrialHappPreview	Gain
381.542	4.012	0.031	931.691	50.0	2	-5.0	-5.0	11.5088	70.0	2.0	Certain	8.9	-19.48	3.54725	Yes	n/a	-28.3832199546485	n/a	n/a	740.0	TrialHappiness	Gain
381.542	2.61	n/a	932.327	50.0	2	-5.0	-5.0	11.5088	70.0	2.0	Certain	8.9	-19.48	3.54725	Yes	n/a	-28.3832199546485	n/a	n/a	740.0	TrialHappinessSliderResponse	Gain
385.554	6.189	4.012	935.703	50.0	2	-5.0	-5.0	11.5088	70.0	2.0	Certain	8.9	-19.48	3.54725	Yes	n/a	-28.3832199546485	n/a	n/a	n/a	ISIRate	Gain
391.772	3.0	0.029	941.921	51.0	2	1.38	0.0	11.6813	70.0	2.8	Outcome2	-2.78	1.38	0.0	No	2.0	4.16402116402116	2.263	394.035	n/a	GetAnswer	Gain
394.046	4.0	0.011	944.195	51.0	2	1.38	0.0	11.6813	70.0	2.8	Outcome2	-2.78	1.38	0.0	No	n/a	4.16402116402116	n/a	n/a	n/a	ShowChoice	Gain
398.058	1.0	0.012	948.207	51.0	2	1.38	0.0	11.6813	70.0	2.8	Outcome2	-2.78	1.38	0.0	No	n/a	4.16402116402116	n/a	n/a	n/a	ShowResult	Gain
399.078	5.508	0.02	949.227	51.0	2	1.38	0.0	11.6813	70.0	2.8	Outcome2	-2.78	1.38	0.0	No	n/a	4.16402116402116	n/a	n/a	n/a	ISITrial	Gain
404.611	3.0	0.025	954.76	52.0	2	-10.0	-10.0	10.4313	70.0	1.68	Certain	-24.96	4.5	0.0	No	4.0	-29.4580498866213	1.926	406.537	n/a	GetAnswer	Gain
406.55	4.0	0.013	956.699	52.0	2	-10.0	-10.0	10.4313	70.0	1.68	Certain	-24.96	4.5	0.0	No	n/a	-29.4580498866213	n/a	n/a	n/a	ShowChoice	Gain
410.562	1.0	0.012	960.711	52.0	2	-10.0	-10.0	10.4313	70.0	1.68	Certain	-24.96	4.5	0.0	No	n/a	-29.4580498866213	n/a	n/a	n/a	ShowResult	Gain
411.582	5.913	0.02	961.731	52.0	2	-10.0	-10.0	10.4313	70.0	1.68	Certain	-24.96	4.5	0.0	No	n/a	-29.4580498866213	n/a	n/a	n/a	ISITrial	Gain
417.516	3.0	0.021	967.665	53.0	2	3.28	1.0	10.8413	70.0	2.22	Outcome2	-1.01	3.28	2.99675	Yes	2.0	4.29062736205593	1.829	419.345	n/a	GetAnswer	Loss
419.372	4.0	0.027	969.521	53.0	2	3.28	1.0	10.8413	70.0	2.22	Outcome2	-1.01	3.28	2.99675	Yes	n/a	4.29062736205593	n/a	n/a	n/a	ShowChoice	Loss
423.384	1.0	0.012	973.533	53.0	2	3.28	1.0	10.8413	70.0	2.22	Outcome2	-1.01	3.28	2.99675	Yes	n/a	4.29062736205593	n/a	n/a	n/a	ShowResult	Loss
424.403	3.66	0.019	974.552	53.0	2	3.28	1.0	10.8413	70.0	2.22	Outcome2	-1.01	3.28	2.99675	Yes	n/a	4.29062736205593	n/a	n/a	n/a	ISITrial	Loss
428.081	2.997	0.018	978.23	53.0	2	3.28	1.0	10.8413	70.0	2.22	Outcome2	-1.01	3.28	2.99675	Yes	n/a	4.29062736205593	n/a	n/a	n/a	TrialHappPreview	Loss
431.107	4.012	0.029	981.256	53.0	2	3.28	1.0	10.8413	70.0	2.22	Outcome2	-1.01	3.28	2.99675	Yes	n/a	4.29062736205593	n/a	n/a	704.0	TrialHappiness	Loss
431.107	0.54	n/a	981.825	53.0	2	3.28	1.0	10.8413	70.0	2.22	Outcome2	-1.01	3.28	2.99675	Yes	n/a	4.29062736205593	n/a	n/a	704.0	TrialHappinessSliderResponse	Loss
435.119	3.987	4.012	985.268	53.0	2	3.28	1.0	10.8413	70.0	2.22	Outcome2	-1.01	3.28	2.99675	Yes	n/a	4.29062736205593	n/a	n/a	n/a	ISIRate	Loss
439.131	3.0	0.025	989.28	54.0	2	-13.0	-13.0	9.2163	70.0	2.0	Certain	2.3	-28.07	0.0	No	4.0	-30.3650793650794	2.31	441.441	n/a	GetAnswer	Mixed
441.455	4.0	0.014	991.604	54.0	2	-13.0	-13.0	9.2163	70.0	2.0	Certain	2.3	-28.07	0.0	No	n/a	-30.3650793650794	n/a	n/a	n/a	ShowChoice	Mixed
445.467	1.0	0.012	995.616	54.0	2	-13.0	-13.0	9.2163	70.0	2.0	Certain	2.3	-28.07	0.0	No	n/a	-30.3650793650794	n/a	n/a	n/a	ShowResult	Mixed
446.486	8.0	0.019	996.635	54.0	2	-13.0	-13.0	9.2163	70.0	2.0	Certain	2.3	-28.07	0.0	No	n/a	-30.3650793650794	n/a	n/a	n/a	ISITrial	Mixed
499.044	1.274	n/a	1050.165	n/a	2	n/a	n/a	n/a	n/a	n/a	n/a	n/a	n/a	n/a	n/a	n/a	n/a	n/a	n/a	728.0	BlockStartHappinessSliderResponse	n/a
-53.661	-0.001	0.024	1004.659	n/a	3	n/a	n/a	n/a	n/a	n/a	n/a	n/a	n/a	n/a	n/a	{SPACE}	n/a	40.504	-13.157	n/a	Rest	n/a
-13.139	4.0	0.018	1045.181	n/a	3	n/a	n/a	n/a	n/a	n/a	n/a	n/a	n/a	n/a	n/a	n/a	n/a	n/a	n/a	n/a	BlockHappyPreview	n/a
-9.127	2.246	0.012	1049.193	n/a	3	n/a	n/a	n/a	n/a	n/a	n/a	n/a	n/a	n/a	n/a	2{-2}2{-2}2{-2}	n/a	2.246	-6.881	728.0	BlockStartHappiness	n/a
-3.394	-0.001	0.02	1054.926	n/a	3	n/a	n/a	n/a	n/a	n/a	n/a	n/a	n/a	n/a	n/a	5.0	n/a	3.368	-0.026	n/a	ScanWait	n/a
0.0	10.0	0.026	1058.32	n/a	3	n/a	n/a	n/a	n/a	n/a	n/a	n/a	n/a	n/a	n/a	n/a	n/a	n/a	n/a	n/a	GetReady	n/a
10.013	3.0	0.013	1068.333	55.0	3	8.78	4.39	10.3138	955.0	3.16	Outcome2	9.7	8.78	2.53325	Yes	2.0	-0.9211966779916948	1.737	11.75	n/a	GetAnswer	Gain
11.768	4.0	0.018	1070.088	55.0	3	8.78	4.39	10.3138	955.0	3.16	Outcome2	9.7	8.78	2.53325	Yes	n/a	-0.9211966779916948	n/a	n/a	n/a	ShowChoice	Gain
15.78	1.0	0.012	1074.1	55.0	3	8.78	4.39	10.3138	955.0	3.16	Outcome2	9.7	8.78	2.53325	Yes	n/a	-0.9211966779916948	n/a	n/a	n/a	ShowResult	Gain
16.8	7.709	0.02	1075.12	55.0	3	8.78	4.39	10.3138	955.0	3.16	Outcome2	9.7	8.78	2.53325	Yes	n/a	-0.9211966779916948	n/a	n/a	n/a	ISITrial	Gain
24.523	2.533	0.014	1082.843	55.0	3	8.78	4.39	10.3138	955.0	3.16	Outcome2	9.7	8.78	2.53325	Yes	n/a	-0.9211966779916948	n/a	n/a	n/a	TrialHappPreview	Gain
27.081	4.012	0.025	1085.401	55.0	3	8.78	4.39	10.3138	955.0	3.16	Outcome2	9.7	8.78	2.53325	Yes	n/a	-0.9211966779916948	n/a	n/a	716.0	TrialHappiness	Gain
27.082	2.097	n/a	1086.102	55.0	3	8.78	4.39	10.3138	955.0	3.16	Outcome2	9.7	8.78	2.53325	Yes	n/a	-0.9211966779916948	n/a	n/a	716.0	TrialHappinessSliderResponse	Gain
31.093	2.133	4.012	1089.413	55.0	3	8.78	4.39	10.3138	955.0	3.16	Outcome2	9.7	8.78	2.53325	Yes	n/a	-0.9211966779916948	n/a	n/a	n/a	ISIRate	Gain
33.249	3.0	0.023	1091.569	56.0	3	6.5	1.09	11.1263	955.0	1.68	Outcome1	6.5	2.18	0.0	No	2.0	4.31710079275198	2.044	35.293	n/a	GetAnswer	Gain
35.306	4.0	0.013	1093.626	56.0	3	6.5	1.09	11.1263	955.0	1.68	Outcome1	6.5	2.18	0.0	No	n/a	4.31710079275198	n/a	n/a	n/a	ShowChoice	Gain
39.318	1.0	0.012	1097.638	56.0	3	6.5	1.09	11.1263	955.0	1.68	Outcome1	6.5	2.18	0.0	No	n/a	4.31710079275198	n/a	n/a	n/a	ShowResult	Gain
40.337	4.697	0.019	1098.657	56.0	3	6.5	1.09	11.1263	955.0	1.68	Outcome1	6.5	2.18	0.0	No	n/a	4.31710079275198	n/a	n/a	n/a	ISITrial	Gain
45.051	3.0	0.017	1103.371	57.0	3	7.5	1.46	12.0638	955.0	2.8	Outcome1	7.5	2.91	0.0	No	2.0	4.587768969422419	2.19	47.241	n/a	GetAnswer	Gain
47.258	4.0	0.017	1105.578	57.0	3	7.5	1.46	12.0638	955.0	2.8	Outcome1	7.5	2.91	0.0	No	n/a	4.587768969422419	n/a	n/a	n/a	ShowChoice	Gain
51.27	1.0	0.012	1109.59	57.0	3	7.5	1.46	12.0638	955.0	2.8	Outcome1	7.5	2.91	0.0	No	n/a	4.587768969422419	n/a	n/a	n/a	ShowResult	Gain
52.29	4.291	0.02	1110.61	57.0	3	7.5	1.46	12.0638	955.0	2.8	Outcome1	7.5	2.91	0.0	No	n/a	4.587768969422419	n/a	n/a	n/a	ISITrial	Gain
56.603	3.0	0.022	1114.923	58.0	3	1.3	-1.0	12.2263	955.0	0.66	Outcome1	1.3	-3.56	3.04575	Yes	2.0	4.858437146092871	1.928	58.531	n/a	GetAnswer	Mixed
58.558	4.0	0.027	1116.878	58.0	3	1.3	-1.0	12.2263	955.0	0.66	Outcome1	1.3	-3.56	3.04575	Yes	n/a	4.858437146092871	n/a	n/a	n/a	ShowChoice	Mixed
62.571	1.0	0.013	1120.891	58.0	3	1.3	-1.0	12.2263	955.0	0.66	Outcome1	1.3	-3.56	3.04575	Yes	n/a	4.858437146092871	n/a	n/a	n/a	ShowResult	Mixed
63.59	2.037	0.019	1121.91	58.0	3	1.3	-1.0	12.2263	955.0	0.66	Outcome1	1.3	-3.56	3.04575	Yes	n/a	4.858437146092871	n/a	n/a	n/a	ISITrial	Mixed
65.646	3.046	0.019	1123.966	58.0	3	1.3	-1.0	12.2263	955.0	0.66	Outcome1	1.3	-3.56	3.04575	Yes	n/a	4.858437146092871	n/a	n/a	n/a	TrialHappPreview	Mixed
68.722	4.012	0.03	1127.042	58.0	3	1.3	-1.0	12.2263	955.0	0.66	Outcome1	1.3	-3.56	3.04575	Yes	n/a	4.858437146092871	n/a	n/a	672.0	TrialHappiness	Mixed
68.723	2.307	n/a	1127.586	58.0	3	1.3	-1.0	12.2263	955.0	0.66	Outcome1	1.3	-3.56	3.04575	Yes	n/a	4.858437146092871	n/a	n/a	672.0	TrialHappinessSliderResponse	Mixed
72.734	4.183	4.012	1131.054	58.0	3	1.3	-1.0	12.2263	955.0	0.66	Outcome1	1.3	-3.56	3.04575	Yes	n/a	4.858437146092871	n/a	n/a	n/a	ISIRate	Mixed
76.947	3.0	0.03	1135.267	59.0	3	5.06	2.53	12.8588	955.0	5.0	Outcome1	5.06	6.3	0.0	No	2.0	-1.2375424688561698	1.984	78.931	n/a	GetAnswer	Gain
78.953	4.0	0.022	1137.273	59.0	3	5.06	2.53	12.8588	955.0	5.0	Outcome1	5.06	6.3	0.0	No	n/a	-1.2375424688561698	n/a	n/a	n/a	ShowChoice	Gain
82.965	1.0	0.012	1141.285	59.0	3	5.06	2.53	12.8588	955.0	5.0	Outcome1	5.06	6.3	0.0	No	n/a	-1.2375424688561698	n/a	n/a	n/a	ShowResult	Gain
83.985	5.064	0.02	1142.305	59.0	3	5.06	2.53	12.8588	955.0	5.0	Outcome1	5.06	6.3	0.0	No	n/a	-1.2375424688561698	n/a	n/a	n/a	ISITrial	Gain
89.066	3.0	0.017	1147.386	60.0	3	9.9	1.85	14.0963	955.0	3.6	Outcome2	3.7	9.9	3.5625	Yes	2.0	6.197055492638731	1.421	90.487	n/a	GetAnswer	Gain
90.504	4.0	0.017	1148.824	60.0	3	9.9	1.85	14.0963	955.0	3.6	Outcome2	3.7	9.9	3.5625	Yes	n/a	6.197055492638731	n/a	n/a	n/a	ShowChoice	Gain
94.516	1.0	0.012	1152.836	60.0	3	9.9	1.85	14.0963	955.0	3.6	Outcome2	3.7	9.9	3.5625	Yes	n/a	6.197055492638731	n/a	n/a	n/a	ShowResult	Gain
95.536	8.0	0.02	1153.856	60.0	3	9.9	1.85	14.0963	955.0	3.6	Outcome2	3.7	9.9	3.5625	Yes	n/a	6.197055492638731	n/a	n/a	n/a	ISITrial	Gain
103.56	3.562	0.024	1161.88	60.0	3	9.9	1.85	14.0963	955.0	3.6	Outcome2	3.7	9.9	3.5625	Yes	n/a	6.197055492638731	n/a	n/a	n/a	TrialHappPreview	Gain
107.154	4.012	0.032	1165.474	60.0	3	9.9	1.85	14.0963	955.0	3.6	Outcome2	3.7	9.9	3.5625	Yes	n/a	6.197055492638731	n/a	n/a	704.0	TrialHappiness	Gain
107.155	1.211	n/a	1166.077	60.0	3	9.9	1.85	14.0963	955.0	3.6	Outcome2	3.7	9.9	3.5625	Yes	n/a	6.197055492638731	n/a	n/a	704.0	TrialHappinessSliderResponse	Gain
111.166	6.25	4.012	1169.486	60.0	3	9.9	1.85	14.0963	955.0	3.6	Outcome2	3.7	9.9	3.5625	Yes	n/a	6.197055492638731	n/a	n/a	n/a	ISIRate	Gain
117.435	3.0	0.019	1175.755	61.0	3	11.1	2.56	15.4838	955.0	2.22	Outcome2	5.13	11.1	0.0	No	2.0	5.97395243488109	2.146	119.581	n/a	GetAnswer	Loss
119.608	4.0	0.027	1177.928	61.0	3	11.1	2.56	15.4838	955.0	2.22	Outcome2	5.13	11.1	0.0	No	n/a	5.97395243488109	n/a	n/a	n/a	ShowChoice	Loss
123.62	1.0	0.012	1181.94	61.0	3	11.1	2.56	15.4838	955.0	2.22	Outcome2	5.13	11.1	0.0	No	n/a	5.97395243488109	n/a	n/a	n/a	ShowResult	Loss
124.64	4.586	0.02	1182.96	61.0	3	11.1	2.56	15.4838	955.0	2.22	Outcome2	5.13	11.1	0.0	No	n/a	5.97395243488109	n/a	n/a	n/a	ISITrial	Loss
129.253	3.0	0.027	1187.573	62.0	3	6.72	3.36	16.3238	955.0	3.6	Outcome2	7.9	6.72	3.74875	Yes	2.0	-1.18478671196678	1.781	131.034	n/a	GetAnswer	Gain
131.059	4.0	0.025	1189.379	62.0	3	6.72	3.36	16.3238	955.0	3.6	Outcome2	7.9	6.72	3.74875	Yes	n/a	-1.18478671196678	n/a	n/a	n/a	ShowChoice	Gain
135.071	1.0	0.012	1193.391	62.0	3	6.72	3.36	16.3238	955.0	3.6	Outcome2	7.9	6.72	3.74875	Yes	n/a	-1.18478671196678	n/a	n/a	n/a	ShowResult	Gain
136.091	5.212	0.02	1194.411	62.0	3	6.72	3.36	16.3238	955.0	3.6	Outcome2	7.9	6.72	3.74875	Yes	n/a	-1.18478671196678	n/a	n/a	n/a	ISITrial	Gain
141.323	3.749	0.02	1199.643	62.0	3	6.72	3.36	16.3238	955.0	3.6	Outcome2	7.9	6.72	3.74875	Yes	n/a	-1.18478671196678	n/a	n/a	n/a	TrialHappPreview	Gain
145.101	4.012	0.029	1203.421	62.0	3	6.72	3.36	16.3238	955.0	3.6	Outcome2	7.9	6.72	3.74875	Yes	n/a	-1.18478671196678	n/a	n/a	744.0	TrialHappiness	Gain
145.102	2.918	n/a	1204.239	62.0	3	6.72	3.36	16.3238	955.0	3.6	Outcome2	7.9	6.72	3.74875	Yes	n/a	-1.18478671196678	n/a	n/a	744.0	TrialHappinessSliderResponse	Gain
149.113	6.995	4.012	1207.433	62.0	3	6.72	3.36	16.3238	955.0	3.6	Outcome2	7.9	6.72	3.74875	Yes	n/a	-1.18478671196678	n/a	n/a	n/a	ISIRate	Gain
156.134	3.0	0.026	1214.454	63.0	3	7.7	0.92	17.2863	955.0	3.16	Outcome2	1.84	7.7	0.0	No	2.0	5.86296715741789	2.317	158.451	n/a	GetAnswer	Gain
158.474	4.0	0.023	1216.794	63.0	3	7.7	0.92	17.2863	955.0	3.16	Outcome2	1.84	7.7	0.0	No	n/a	5.86296715741789	n/a	n/a	n/a	ShowChoice	Gain
162.486	1.0	0.012	1220.806	63.0	3	7.7	0.92	17.2863	955.0	3.16	Outcome2	1.84	7.7	0.0	No	n/a	5.86296715741789	n/a	n/a	n/a	ShowResult	Gain
163.506	5.595	0.02	1221.826	63.0	3	7.7	0.92	17.2863	955.0	3.16	Outcome2	1.84	7.7	0.0	No	n/a	5.86296715741789	n/a	n/a	n/a	ISITrial	Gain
169.123	3.0	0.022	1227.443	64.0	3	2.1	-1.0	17.5488	955.0	1.5	Outcome2	-4.0	2.1	0.0	No	2.0	6.101925254813139	2.06	171.183	n/a	GetAnswer	Mixed
171.196	4.0	0.013	1229.516	64.0	3	2.1	-1.0	17.5488	955.0	1.5	Outcome2	-4.0	2.1	0.0	No	n/a	6.101925254813139	n/a	n/a	n/a	ShowChoice	Mixed
175.208	1.0	0.012	1233.528	64.0	3	2.1	-1.0	17.5488	955.0	1.5	Outcome2	-4.0	2.1	0.0	No	n/a	6.101925254813139	n/a	n/a	n/a	ShowResult	Mixed
176.227	5.47	0.019	1234.547	64.0	3	2.1	-1.0	17.5488	955.0	1.5	Outcome2	-4.0	2.1	0.0	No	n/a	6.101925254813139	n/a	n/a	n/a	ISITrial	Mixed
181.727	3.0	0.03	1240.047	65.0	3	9.5	1.58	18.7363	955.0	2.8	Outcome2	3.16	9.5	2.99675	Yes	2.0	6.34088335220838	2.458	184.185	n/a	GetAnswer	Gain
184.201	4.0	0.016	1242.521	65.0	3	9.5	1.58	18.7363	955.0	2.8	Outcome2	3.16	9.5	2.99675	Yes	n/a	6.34088335220838	n/a	n/a	n/a	ShowChoice	Gain
188.213	1.0	0.012	1246.533	65.0	3	9.5	1.58	18.7363	955.0	2.8	Outcome2	3.16	9.5	2.99675	Yes	n/a	6.34088335220838	n/a	n/a	n/a	ShowResult	Gain
189.233	3.344	0.02	1247.553	65.0	3	9.5	1.58	18.7363	955.0	2.8	Outcome2	3.16	9.5	2.99675	Yes	n/a	6.34088335220838	n/a	n/a	n/a	ISITrial	Gain
192.593	2.997	0.016	1250.913	65.0	3	9.5	1.58	18.7363	955.0	2.8	Outcome2	3.16	9.5	2.99675	Yes	n/a	6.34088335220838	n/a	n/a	n/a	TrialHappPreview	Gain
195.619	4.012	0.029	1253.939	65.0	3	9.5	1.58	18.7363	955.0	2.8	Outcome2	3.16	9.5	2.99675	Yes	n/a	6.34088335220838	n/a	n/a	696.0	TrialHappiness	Gain
195.619	1.166	n/a	1254.385	65.0	3	9.5	1.58	18.7363	955.0	2.8	Outcome2	3.16	9.5	2.99675	Yes	n/a	6.34088335220838	n/a	n/a	696.0	TrialHappinessSliderResponse	Gain
199.631	3.987	4.012	1257.951	65.0	3	9.5	1.58	18.7363	955.0	2.8	Outcome2	3.16	9.5	2.99675	Yes	n/a	6.34088335220838	n/a	n/a	n/a	ISIRate	Gain
203.643	3.0	0.025	1261.963	66.0	3	1.0	1.0	18.8613	955.0	2.48	Certain	5.3	-2.1	0.0	No	4.0	7.395243488108719	2.694	206.337	n/a	GetAnswer	Gain
206.351	4.0	0.014	1264.671	66.0	3	1.0	1.0	18.8613	955.0	2.48	Certain	5.3	-2.1	0.0	No	n/a	7.395243488108719	n/a	n/a	n/a	ShowChoice	Gain
210.363	1.0	0.012	1268.683	66.0	3	1.0	1.0	18.8613	955.0	2.48	Certain	5.3	-2.1	0.0	No	n/a	7.395243488108719	n/a	n/a	n/a	ShowResult	Gain
211.383	3.959	0.02	1269.703	66.0	3	1.0	1.0	18.8613	955.0	2.48	Certain	5.3	-2.1	0.0	No	n/a	7.395243488108719	n/a	n/a	n/a	ISITrial	Gain
215.361	3.0	0.019	1273.681	67.0	3	-0.7	-4.0	18.7738	955.0	0.66	Outcome2	-8.39	-0.7	2.9185	Yes	n/a	7.68856172140431	n/a	n/a	n/a	GetAnswer	Mixed
218.387	4.0	0.026	1276.707	67.0	3	-0.7	-4.0	18.7738	955.0	0.66	Outcome2	-8.39	-0.7	2.9185	Yes	n/a	7.68856172140431	n/a	n/a	n/a	ShowChoice	Mixed
222.399	1.0	0.012	1280.719	67.0	3	-0.7	-4.0	18.7738	955.0	0.66	Outcome2	-8.39	-0.7	2.9185	Yes	n/a	7.68856172140431	n/a	n/a	n/a	ShowResult	Mixed
223.419	4.199	0.02	1281.739	67.0	3	-0.7	-4.0	18.7738	955.0	0.66	Outcome2	-8.39	-0.7	2.9185	Yes	n/a	7.68856172140431	n/a	n/a	n/a	ISITrial	Mixed
227.631	2.918	0.013	1285.951	67.0	3	-0.7	-4.0	18.7738	955.0	0.66	Outcome2	-8.39	-0.7	2.9185	Yes	n/a	7.68856172140431	n/a	n/a	n/a	TrialHappPreview	Mixed
230.573	4.012	0.024	1288.893	67.0	3	-0.7	-4.0	18.7738	955.0	0.66	Outcome2	-8.39	-0.7	2.9185	Yes	n/a	7.68856172140431	n/a	n/a	740.0	TrialHappiness	Mixed
230.574	3.311	n/a	1289.556	67.0	3	-0.7	-4.0	18.7738	955.0	0.66	Outcome2	-8.39	-0.7	2.9185	Yes	n/a	7.68856172140431	n/a	n/a	740.0	TrialHappinessSliderResponse	Mixed
234.585	3.674	4.012	1292.905	67.0	3	-0.7	-4.0	18.7738	955.0	0.66	Outcome2	-8.39	-0.7	2.9185	Yes	n/a	7.68856172140431	n/a	n/a	n/a	ISIRate	Mixed
238.28	3.0	0.021	1296.6	68.0	3	0.73	1.0	18.865	955.0	1.2	Outcome2	1.9	0.73	0.0	No	2.0	-1.17100792751982	1.806	240.086	n/a	GetAnswer	Mixed
240.102	4.0	0.016	1298.422	68.0	3	0.73	1.0	18.865	955.0	1.2	Outcome2	1.9	0.73	0.0	No	n/a	-1.17100792751982	n/a	n/a	n/a	ShowChoice	Mixed
244.114	1.0	0.012	1302.434	68.0	3	0.73	1.0	18.865	955.0	1.2	Outcome2	1.9	0.73	0.0	No	n/a	-1.17100792751982	n/a	n/a	n/a	ShowResult	Mixed
245.134	2.185	0.02	1303.454	68.0	3	0.73	1.0	18.865	955.0	1.2	Outcome2	1.9	0.73	0.0	No	n/a	-1.17100792751982	n/a	n/a	n/a	ISITrial	Mixed
247.34	3.0	0.021	1305.66	69.0	3	7.3	-0.09	19.7775	955.0	2.48	Outcome1	7.3	-0.18	0.0	No	2.0	7.47791619479049	2.235	249.575	n/a	GetAnswer	Gain
249.597	4.0	0.022	1307.917	69.0	3	7.3	-0.09	19.7775	955.0	2.48	Outcome1	7.3	-0.18	0.0	No	n/a	7.47791619479049	n/a	n/a	n/a	ShowChoice	Gain
253.609	1.0	0.012	1311.929	69.0	3	7.3	-0.09	19.7775	955.0	2.48	Outcome1	7.3	-0.18	0.0	No	n/a	7.47791619479049	n/a	n/a	n/a	ShowResult	Gain
254.629	2.0	0.02	1312.949	69.0	3	7.3	-0.09	19.7775	955.0	2.48	Outcome1	7.3	-0.18	0.0	No	n/a	7.47791619479049	n/a	n/a	n/a	ISITrial	Gain
256.651	3.0	0.022	1314.971	70.0	3	9.69	4.84	20.9888	955.0	2.0	Outcome2	10.9	9.69	3.65125	Yes	2.0	-1.2115892789732	1.59	258.241	n/a	GetAnswer	Loss
258.256	4.0	0.015	1316.576	70.0	3	9.69	4.84	20.9888	955.0	2.0	Outcome2	10.9	9.69	3.65125	Yes	n/a	-1.2115892789732	n/a	n/a	n/a	ShowChoice	Loss
262.268	1.0	0.012	1320.588	70.0	3	9.69	4.84	20.9888	955.0	2.0	Outcome2	10.9	9.69	3.65125	Yes	n/a	-1.2115892789732	n/a	n/a	n/a	ShowResult	Loss
263.288	2.623	0.02	1321.608	70.0	3	9.69	4.84	20.9888	955.0	2.0	Outcome2	10.9	9.69	3.65125	Yes	n/a	-1.2115892789732	n/a	n/a	n/a	ISITrial	Loss
265.929	3.651	0.018	1324.249	70.0	3	9.69	4.84	20.9888	955.0	2.0	Outcome2	10.9	9.69	3.65125	Yes	n/a	-1.2115892789732	n/a	n/a	n/a	TrialHappPreview	Loss
269.607	4.012	0.027	1327.927	70.0	3	9.69	4.84	20.9888	955.0	2.0	Outcome2	10.9	9.69	3.65125	Yes	n/a	-1.2115892789732	n/a	n/a	720.0	TrialHappiness	Loss
269.608	1.177	n/a	1328.329	70.0	3	9.69	4.84	20.9888	955.0	2.0	Outcome2	10.9	9.69	3.65125	Yes	n/a	-1.2115892789732	n/a	n/a	720.0	TrialHappinessSliderResponse	Loss
273.619	6.605	4.012	1331.939	70.0	3	9.69	4.84	20.9888	955.0	2.0	Outcome2	10.9	9.69	3.65125	Yes	n/a	-1.2115892789732	n/a	n/a	n/a	ISIRate	Loss
280.255	3.0	0.031	1338.575	71.0	3	-3.0	-3.0	20.6138	955.0	0.52	Certain	-7.2	1.1	0.0	No	4.0	8.30464326160815	2.762	283.017	n/a	GetAnswer	Mixed
283.03	4.0	0.013	1341.35	71.0	3	-3.0	-3.0	20.6138	955.0	0.52	Certain	-7.2	1.1	0.0	No	n/a	8.30464326160815	n/a	n/a	n/a	ShowChoice	Mixed
287.042	1.0	0.012	1345.362	71.0	3	-3.0	-3.0	20.6138	955.0	0.52	Certain	-7.2	1.1	0.0	No	n/a	8.30464326160815	n/a	n/a	n/a	ShowResult	Mixed
288.062	5.499	0.02	1346.382	71.0	3	-3.0	-3.0	20.6138	955.0	0.52	Certain	-7.2	1.1	0.0	No	n/a	8.30464326160815	n/a	n/a	n/a	ISITrial	Mixed
293.579	3.0	0.018	1351.899	72.0	3	10.96	5.48	21.9838	955.0	5.0	Outcome2	12.3	10.96	3.0805	Yes	2.0	-1.3352208380521	1.282	294.861	n/a	GetAnswer	Loss
294.883	4.0	0.022	1353.203	72.0	3	10.96	5.48	21.9838	955.0	5.0	Outcome2	12.3	10.96	3.0805	Yes	n/a	-1.3352208380521	n/a	n/a	n/a	ShowChoice	Loss
298.895	1.0	0.012	1357.215	72.0	3	10.96	5.48	21.9838	955.0	5.0	Outcome2	12.3	10.96	3.0805	Yes	n/a	-1.3352208380521	n/a	n/a	n/a	ShowResult	Loss
299.914	5.672	0.019	1358.234	72.0	3	10.96	5.48	21.9838	955.0	5.0	Outcome2	12.3	10.96	3.0805	Yes	n/a	-1.3352208380521	n/a	n/a	n/a	ISITrial	Loss
305.598	3.08	0.012	1363.918	72.0	3	10.96	5.48	21.9838	955.0	5.0	Outcome2	12.3	10.96	3.0805	Yes	n/a	-1.3352208380521	n/a	n/a	n/a	TrialHappPreview	Loss
308.707	4.012	0.029	1367.027	72.0	3	10.96	5.48	21.9838	955.0	5.0	Outcome2	12.3	10.96	3.0805	Yes	2{-2}2{-2}2{-2}2{-2}4{-4}2{-2}	-1.3352208380521	3.903	312.61	688.0	TrialHappiness	Loss
308.708	3.565	n/a	1367.366	72.0	3	10.96	5.48	21.9838	955.0	5.0	Outcome2	12.3	10.96	3.0805	Yes	n/a	-1.3352208380521	n/a	n/a	688.0	TrialHappinessSliderResponse	Loss
312.719	4.322	4.012	1371.039	72.0	3	10.96	5.48	21.9838	955.0	5.0	Outcome2	12.3	10.96	3.0805	Yes	n/a	-1.3352208380521	n/a	n/a	n/a	ISIRate	Loss
317.066	3.0	0.025	1375.386	73.0	3	8.7	-0.34	23.0713	955.0	1.82	Outcome1	8.7	-0.68	0.0	No	2.0	9.38052095130238	1.919	318.985	n/a	GetAnswer	Gain
319.005	4.0	0.02	1377.325	73.0	3	8.7	-0.34	23.0713	955.0	1.82	Outcome1	8.7	-0.68	0.0	No	n/a	9.38052095130238	n/a	n/a	n/a	ShowChoice	Gain
323.017	1.0	0.012	1381.337	73.0	3	8.7	-0.34	23.0713	955.0	1.82	Outcome1	8.7	-0.68	0.0	No	n/a	9.38052095130238	n/a	n/a	n/a	ShowResult	Gain
324.036	4.616	0.019	1382.356	73.0	3	8.7	-0.34	23.0713	955.0	1.82	Outcome1	8.7	-0.68	0.0	No	n/a	9.38052095130238	n/a	n/a	n/a	ISITrial	Gain
328.684	3.0	0.032	1387.004	74.0	3	-2.0	-2.0	22.8213	955.0	0.4	Certain	-6.78	2.9	3.05625	Yes	4.0	9.68289920724802	1.893	330.577	n/a	GetAnswer	Mixed
330.589	4.0	0.012	1388.909	74.0	3	-2.0	-2.0	22.8213	955.0	0.4	Certain	-6.78	2.9	3.05625	Yes	n/a	9.68289920724802	n/a	n/a	n/a	ShowChoice	Mixed
334.601	1.0	0.012	1392.921	74.0	3	-2.0	-2.0	22.8213	955.0	0.4	Certain	-6.78	2.9	3.05625	Yes	n/a	9.68289920724802	n/a	n/a	n/a	ShowResult	Mixed
335.621	3.909	0.02	1393.941	74.0	3	-2.0	-2.0	22.8213	955.0	0.4	Certain	-6.78	2.9	3.05625	Yes	n/a	9.68289920724802	n/a	n/a	n/a	ISITrial	Mixed
339.55	3.056	0.02	1397.87	74.0	3	-2.0	-2.0	22.8213	955.0	0.4	Certain	-6.78	2.9	3.05625	Yes	n/a	9.68289920724802	n/a	n/a	n/a	TrialHappPreview	Mixed
342.625	4.012	0.019	1400.945	74.0	3	-2.0	-2.0	22.8213	955.0	0.4	Certain	-6.78	2.9	3.05625	Yes	n/a	9.68289920724802	n/a	n/a	744.0	TrialHappiness	Mixed
342.626	0.857	n/a	1401.767	74.0	3	-2.0	-2.0	22.8213	955.0	0.4	Certain	-6.78	2.9	3.05625	Yes	n/a	9.68289920724802	n/a	n/a	744.0	TrialHappinessSliderResponse	Mixed
346.637	4.225	4.012	1404.957	74.0	3	-2.0	-2.0	22.8213	955.0	0.4	Certain	-6.78	2.9	3.05625	Yes	n/a	9.68289920724802	n/a	n/a	n/a	ISIRate	Mixed
350.884	3.0	0.022	1409.204	75.0	3	-0.41	0.0	22.7701	955.0	0.4	Outcome2	0.9	-0.41	0.0	No	2.0	-1.31040015100038	1.503	352.387	n/a	GetAnswer	Mixed
352.405	4.0	0.018	1410.725	75.0	3	-0.41	0.0	22.7701	955.0	0.4	Outcome2	0.9	-0.41	0.0	No	n/a	-1.31040015100038	n/a	n/a	n/a	ShowChoice	Mixed
356.417	1.0	0.012	1414.737	75.0	3	-0.41	0.0	22.7701	955.0	0.4	Outcome2	0.9	-0.41	0.0	No	n/a	-1.31040015100038	n/a	n/a	n/a	ShowResult	Mixed
357.436	4.979	0.019	1415.756	75.0	3	-0.41	0.0	22.7701	955.0	0.4	Outcome2	0.9	-0.41	0.0	No	n/a	-1.31040015100038	n/a	n/a	n/a	ISITrial	Mixed
362.435	3.0	0.02	1420.755	76.0	3	12.7	1.72	24.3576	955.0	1.82	Outcome1	12.7	3.43	0.0	No	2.0	9.27293318233296	2.736	365.171	n/a	GetAnswer	Loss
365.193	4.0	0.022	1423.513	76.0	3	12.7	1.72	24.3576	955.0	1.82	Outcome1	12.7	3.43	0.0	No	n/a	9.27293318233296	n/a	n/a	n/a	ShowChoice	Loss
369.205	1.0	0.012	1427.525	76.0	3	12.7	1.72	24.3576	955.0	1.82	Outcome1	12.7	3.43	0.0	No	n/a	9.27293318233296	n/a	n/a	n/a	ShowResult	Loss
370.225	3.931	0.02	1428.545	76.0	3	12.7	1.72	24.3576	955.0	1.82	Outcome1	12.7	3.43	0.0	No	n/a	9.27293318233296	n/a	n/a	n/a	ISITrial	Loss
374.187	3.0	0.031	1432.507	77.0	3	-0.5	-0.5	24.2951	955.0	1.68	Certain	-1.01	8.5	4.0	Yes	4.0	9.5118912797282	2.287	376.474	n/a	GetAnswer	Gain
376.494	4.0	0.02	1434.814	77.0	3	-0.5	-0.5	24.2951	955.0	1.68	Certain	-1.01	8.5	4.0	Yes	n/a	9.5118912797282	n/a	n/a	n/a	ShowChoice	Gain
380.506	1.0	0.012	1438.826	77.0	3	-0.5	-0.5	24.2951	955.0	1.68	Certain	-1.01	8.5	4.0	Yes	n/a	9.5118912797282	n/a	n/a	n/a	ShowResult	Gain
381.525	7.022	0.019	1439.845	77.0	3	-0.5	-0.5	24.2951	955.0	1.68	Certain	-1.01	8.5	4.0	Yes	n/a	9.5118912797282	n/a	n/a	n/a	ISITrial	Gain
388.563	4.0	0.016	1446.883	77.0	3	-0.5	-0.5	24.2951	955.0	1.68	Certain	-1.01	8.5	4.0	Yes	n/a	9.5118912797282	n/a	n/a	n/a	TrialHappPreview	Gain
392.592	4.012	0.029	1450.912	77.0	3	-0.5	-0.5	24.2951	955.0	1.68	Certain	-1.01	8.5	4.0	Yes	n/a	9.5118912797282	n/a	n/a	672.0	TrialHappiness	Gain
392.592	2.191	n/a	1451.586	77.0	3	-0.5	-0.5	24.2951	955.0	1.68	Certain	-1.01	8.5	4.0	Yes	n/a	9.5118912797282	n/a	n/a	672.0	TrialHappinessSliderResponse	Gain
396.604	8.0	4.012	1454.924	77.0	3	-0.5	-0.5	24.2951	955.0	1.68	Certain	-1.01	8.5	4.0	Yes	n/a	9.5118912797282	n/a	n/a	n/a	ISIRate	Gain
404.628	3.0	0.024	1462.948	78.0	3	0.04	1.0	24.3001	955.0	1.0	Outcome2	1.7	0.04	0.0	No	2.0	-1.6623254058135102	2.117	406.745	n/a	GetAnswer	Mixed
406.767	4.0	0.022	1465.087	78.0	3	0.04	1.0	24.3001	955.0	1.0	Outcome2	1.7	0.04	0.0	No	n/a	-1.6623254058135102	n/a	n/a	n/a	ShowChoice	Mixed
410.779	1.0	0.012	1469.099	78.0	3	0.04	1.0	24.3001	955.0	1.0	Outcome2	1.7	0.04	0.0	No	n/a	-1.6623254058135102	n/a	n/a	n/a	ShowResult	Mixed
411.799	2.078	0.02	1470.119	78.0	3	0.04	1.0	24.3001	955.0	1.0	Outcome2	1.7	0.04	0.0	No	n/a	-1.6623254058135102	n/a	n/a	n/a	ISITrial	Mixed
413.906	3.0	0.029	1472.226	79.0	3	10.01	5.0	25.5513	955.0	3.16	Outcome1	10.01	11.7	2.7295	Yes	2.0	-1.68903359758399	1.919	415.825	n/a	GetAnswer	Loss
415.845	4.0	0.02	1474.165	79.0	3	10.01	5.0	25.5513	955.0	3.16	Outcome1	10.01	11.7	2.7295	Yes	n/a	-1.68903359758399	n/a	n/a	n/a	ShowChoice	Loss
419.857	1.0	0.012	1478.177	79.0	3	10.01	5.0	25.5513	955.0	3.16	Outcome1	10.01	11.7	2.7295	Yes	n/a	-1.68903359758399	n/a	n/a	n/a	ShowResult	Loss
420.876	3.829	0.019	1479.196	79.0	3	10.01	5.0	25.5513	955.0	3.16	Outcome1	10.01	11.7	2.7295	Yes	n/a	-1.68903359758399	n/a	n/a	n/a	ISITrial	Loss
424.721	2.73	0.016	1483.041	79.0	3	10.01	5.0	25.5513	955.0	3.16	Outcome1	10.01	11.7	2.7295	Yes	n/a	-1.68903359758399	n/a	n/a	n/a	TrialHappPreview	Loss
427.479	4.012	0.028	1485.799	79.0	3	10.01	5.0	25.5513	955.0	3.16	Outcome1	10.01	11.7	2.7295	Yes	n/a	-1.68903359758399	n/a	n/a	688.0	TrialHappiness	Loss
427.48	1.006	n/a	1486.374	79.0	3	10.01	5.0	25.5513	955.0	3.16	Outcome1	10.01	11.7	2.7295	Yes	n/a	-1.68903359758399	n/a	n/a	688.0	TrialHappinessSliderResponse	Loss
431.491	2.918	4.012	1489.811	79.0	3	10.01	5.0	25.5513	955.0	3.16	Outcome1	10.01	11.7	2.7295	Yes	n/a	-1.68903359758399	n/a	n/a	n/a	ISIRate	Loss
434.434	3.0	0.025	1492.754	80.0	3	1.65	2.0	25.7575	955.0	0.66	Outcome2	3.3	1.65	0.0	No	2.0	-1.65081162702907	1.545	435.979	n/a	GetAnswer	Mixed
436.005	4.0	0.026	1494.325	80.0	3	1.65	2.0	25.7575	955.0	0.66	Outcome2	3.3	1.65	0.0	No	n/a	-1.65081162702907	n/a	n/a	n/a	ShowChoice	Mixed
440.017	1.0	0.012	1498.337	80.0	3	1.65	2.0	25.7575	955.0	0.66	Outcome2	3.3	1.65	0.0	No	n/a	-1.65081162702907	n/a	n/a	n/a	ShowResult	Mixed
441.037	3.336	0.02	1499.357	80.0	3	1.65	2.0	25.7575	955.0	0.66	Outcome2	3.3	1.65	0.0	No	n/a	-1.65081162702907	n/a	n/a	n/a	ISITrial	Mixed
444.397	3.0	0.024	1502.717	81.0	3	-2.0	-2.0	25.5075	955.0	0.52	Certain	3.1	-8.55	3.92375	Yes	4.0	11.6455266138165	2.125	446.522	n/a	GetAnswer	Mixed
446.537	4.0	0.015	1504.857	81.0	3	-2.0	-2.0	25.5075	955.0	0.52	Certain	3.1	-8.55	3.92375	Yes	n/a	11.6455266138165	n/a	n/a	n/a	ShowChoice	Mixed
450.549	1.0	0.012	1508.869	81.0	3	-2.0	-2.0	25.5075	955.0	0.52	Certain	3.1	-8.55	3.92375	Yes	n/a	11.6455266138165	n/a	n/a	n/a	ShowResult	Mixed
451.568	3.919	0.019	1509.888	81.0	3	-2.0	-2.0	25.5075	955.0	0.52	Certain	3.1	-8.55	3.92375	Yes	n/a	11.6455266138165	n/a	n/a	n/a	ISITrial	Mixed
455.513	3.924	0.026	1513.833	81.0	3	-2.0	-2.0	25.5075	955.0	0.52	Certain	3.1	-8.55	3.92375	Yes	n/a	11.6455266138165	n/a	n/a	n/a	TrialHappPreview	Mixed
459.459	4.012	0.022	1517.779	81.0	3	-2.0	-2.0	25.5075	955.0	0.52	Certain	3.1	-8.55	3.92375	Yes	n/a	11.6455266138165	n/a	n/a	712.0	TrialHappiness	Mixed
459.459	1.44	n/a	1518.403	81.0	3	-2.0	-2.0	25.5075	955.0	0.52	Certain	3.1	-8.55	3.92375	Yes	n/a	11.6455266138165	n/a	n/a	712.0	TrialHappinessSliderResponse	Mixed
463.471	7.695	4.012	1521.791	81.0	3	-2.0	-2.0	25.5075	955.0	0.52	Certain	3.1	-8.55	3.92375	Yes	n/a	11.6455266138165	n/a	n/a	n/a	ISIRate	Mixed
471.194	3.0	0.028	1529.514	n/a	3	n/a	n/a	n/a	n/a	n/a	n/a	n/a	n/a	n/a	n/a	n/a	n/a	n/a	n/a	n/a	CurrentEarnings	n/a
474.219	-0.001	0.025	1532.539	n/a	3	n/a	n/a	n/a	n/a	n/a	n/a	n/a	n/a	n/a	n/a	{SPACE}	n/a	4.534	478.753	n/a	Goodbye	n/a
