onset	duration	onset_delay	onset_unadjusted	trial_number	block	amount_change	certain_amount	current_amount	mood_target	multiplier	outcome	outcome1_amount	outcome2_amount	question_duration	rating	response	rpe	rt	rt_time	slider_response	trial_phase	trial_type
-40.906	-0.001	0.021	26.255	n/a	0	n/a	n/a	n/a	n/a	n/a	n/a	n/a	n/a	n/a	n/a	{SPACE}	n/a	2.526	-38.38	n/a	Welcome	n/a
-38.348	5.0	0.032	28.813	n/a	0	n/a	n/a	n/a	n/a	n/a	n/a	n/a	n/a	n/a	n/a	n/a	n/a	n/a	n/a	n/a	LifeHappyPreview	n/a
-33.316	3.727	0.032	33.845	n/a	0	n/a	n/a	n/a	n/a	n/a	n/a	n/a	n/a	n/a	n/a	n/a	n/a	n/a	n/a	624.0	LifeHappiness	n/a
-33.316	3.216	n/a	34.356	n/a	0	n/a	n/a	n/a	n/a	n/a	n/a	n/a	n/a	n/a	n/a	n/a	n/a	n/a	n/a	624.0	LifeHappinessSliderResponse	n/a
-15.546	4.0	0.018	51.615	n/a	0	n/a	n/a	n/a	n/a	n/a	n/a	n/a	n/a	n/a	n/a	n/a	n/a	n/a	n/a	n/a	BlockHappyPreview	n/a
-11.534	1.989	0.012	55.627	n/a	0	n/a	n/a	n/a	n/a	n/a	n/a	n/a	n/a	n/a	n/a	n/a	n/a	n/a	n/a	352.0	BlockStartHappiness	n/a
-11.534	1.418	n/a	56.198	n/a	0	n/a	n/a	n/a	n/a	n/a	n/a	n/a	n/a	n/a	n/a	n/a	n/a	n/a	n/a	352.0	BlockStartHappinessSliderResponse	n/a
-3.945	-0.001	0.019	63.216	n/a	0	n/a	n/a	n/a	n/a	n/a	n/a	n/a	n/a	n/a	n/a	5.0	n/a	3.932	-0.013	n/a	ScanWait	n/a
0.0	10.0	0.013	67.161	n/a	1	n/a	n/a	n/a	n/a	n/a	n/a	n/a	n/a	n/a	n/a	n/a	n/a	n/a	n/a	n/a	GetReady	n/a
10.03	3.0	0.03	77.191	1.0	1	5.85	2.92	10.7313	955.0	5.0	Outcome1	5.85	8.3	0.0	No	2.0	-2.44705549263873	1.18	11.21	n/a	GetAnswer	Gain
11.234	4.0	0.024	78.395	1.0	1	5.85	2.92	10.7313	955.0	5.0	Outcome1	5.85	8.3	0.0	No	n/a	-2.44705549263873	n/a	n/a	n/a	ShowChoice	Gain
15.246	1.0	0.012	82.407	1.0	1	5.85	2.92	10.7313	955.0	5.0	Outcome1	5.85	8.3	0.0	No	n/a	-2.44705549263873	n/a	n/a	n/a	ShowResult	Gain
16.266	2.431	0.02	83.427	1.0	1	5.85	2.92	10.7313	955.0	5.0	Outcome1	5.85	8.3	0.0	No	n/a	-2.44705549263873	n/a	n/a	n/a	ISITrial	Gain
18.723	3.0	0.026	85.884	2.0	1	9.0	4.5	11.8563	955.0	2.8	Outcome1	9.0	11.5	0.0	No	2.0	-2.5039637599094	0.92	19.643	n/a	GetAnswer	Loss
19.659	4.0	0.016	86.82	2.0	1	9.0	4.5	11.8563	955.0	2.8	Outcome1	9.0	11.5	0.0	No	n/a	-2.5039637599094	n/a	n/a	n/a	ShowChoice	Loss
23.671	1.0	0.012	90.832	2.0	1	9.0	4.5	11.8563	955.0	2.8	Outcome1	9.0	11.5	0.0	No	n/a	-2.5039637599094	n/a	n/a	n/a	ShowResult	Loss
24.691	4.568	0.02	91.852	2.0	1	9.0	4.5	11.8563	955.0	2.8	Outcome1	9.0	11.5	0.0	No	n/a	-2.5039637599094	n/a	n/a	n/a	ISITrial	Loss
29.288	3.0	0.029	96.449	3.0	1	-1.0	-1.0	11.7313	955.0	2.0	Certain	0.3	-2.26	2.868	Yes	4.0	-2.5608720271800696	1.849	31.137	n/a	GetAnswer	Mixed
31.16	4.0	0.023	98.321	3.0	1	-1.0	-1.0	11.7313	955.0	2.0	Certain	0.3	-2.26	2.868	Yes	n/a	-2.5608720271800696	n/a	n/a	n/a	ShowChoice	Mixed
35.172	1.0	0.012	102.333	3.0	1	-1.0	-1.0	11.7313	955.0	2.0	Certain	0.3	-2.26	2.868	Yes	n/a	-2.5608720271800696	n/a	n/a	n/a	ShowResult	Mixed
36.192	3.243	0.02	103.353	3.0	1	-1.0	-1.0	11.7313	955.0	2.0	Certain	0.3	-2.26	2.868	Yes	n/a	-2.5608720271800696	n/a	n/a	n/a	ISITrial	Mixed
39.452	2.868	0.017	106.613	3.0	1	-1.0	-1.0	11.7313	955.0	2.0	Certain	0.3	-2.26	2.868	Yes	n/a	-2.5608720271800696	n/a	n/a	n/a	TrialHappPreview	Mixed
42.344	4.012	0.024	109.505	3.0	1	-1.0	-1.0	11.7313	955.0	2.0	Certain	0.3	-2.26	2.868	Yes	n/a	-2.5608720271800696	n/a	n/a	348.0	TrialHappiness	Mixed
42.344	1.556	n/a	110.447	3.0	1	-1.0	-1.0	11.7313	955.0	2.0	Certain	0.3	-2.26	2.868	Yes	n/a	-2.5608720271800696	n/a	n/a	348.0	TrialHappinessSliderResponse	Mixed
46.356	3.472	4.012	113.517	3.0	1	-1.0	-1.0	11.7313	955.0	2.0	Certain	0.3	-2.26	2.868	Yes	n/a	-2.5608720271800696	n/a	n/a	n/a	ISIRate	Mixed
49.85	3.0	0.022	117.011	4.0	1	11.1	-0.63	13.1188	955.0	2.22	Outcome2	-1.26	11.1	0.0	No	2.0	12.3601359003397	1.554	51.404	n/a	GetAnswer	Loss
51.421	4.0	0.017	118.582	4.0	1	11.1	-0.63	13.1188	955.0	2.22	Outcome2	-1.26	11.1	0.0	No	n/a	12.3601359003397	n/a	n/a	n/a	ShowChoice	Loss
55.433	1.0	0.012	122.594	4.0	1	11.1	-0.63	13.1188	955.0	2.22	Outcome2	-1.26	11.1	0.0	No	n/a	12.3601359003397	n/a	n/a	n/a	ShowResult	Loss
56.453	2.011	0.02	123.614	4.0	1	11.1	-0.63	13.1188	955.0	2.22	Outcome2	-1.26	11.1	0.0	No	n/a	12.3601359003397	n/a	n/a	n/a	ISITrial	Loss
58.492	3.0	0.028	125.653	5.0	1	13.7	0.32	14.8313	955.0	3.16	Outcome1	13.7	0.65	2.5825	Yes	2.0	13.047565118912802	0.954	59.446	n/a	GetAnswer	Loss
59.462	4.0	0.016	126.623	5.0	1	13.7	0.32	14.8313	955.0	3.16	Outcome1	13.7	0.65	2.5825	Yes	n/a	13.047565118912802	n/a	n/a	n/a	ShowChoice	Loss
63.474	1.0	0.012	130.635	5.0	1	13.7	0.32	14.8313	955.0	3.16	Outcome1	13.7	0.65	2.5825	Yes	n/a	13.047565118912802	n/a	n/a	n/a	ShowResult	Loss
64.493	5.129	0.019	131.654	5.0	1	13.7	0.32	14.8313	955.0	3.16	Outcome1	13.7	0.65	2.5825	Yes	n/a	13.047565118912802	n/a	n/a	n/a	ISITrial	Loss
69.642	2.582	0.02	136.803	5.0	1	13.7	0.32	14.8313	955.0	3.16	Outcome1	13.7	0.65	2.5825	Yes	n/a	13.047565118912802	n/a	n/a	n/a	TrialHappPreview	Loss
72.25	4.012	0.026	139.411	5.0	1	13.7	0.32	14.8313	955.0	3.16	Outcome1	13.7	0.65	2.5825	Yes	n/a	13.047565118912802	n/a	n/a	632.0	TrialHappiness	Loss
72.251	0.885	n/a	140.856	5.0	1	13.7	0.32	14.8313	955.0	3.16	Outcome1	13.7	0.65	2.5825	Yes	n/a	13.047565118912802	n/a	n/a	632.0	TrialHappinessSliderResponse	Loss
76.262	2.33	4.012	143.423	5.0	1	13.7	0.32	14.8313	955.0	3.16	Outcome1	13.7	0.65	2.5825	Yes	n/a	13.047565118912802	n/a	n/a	n/a	ISIRate	Loss
78.619	3.0	0.027	145.78	6.0	1	10.3	0.7	16.1188	955.0	5.0	Outcome2	1.39	10.3	0.0	No	2.0	8.91053227633069	0.884	79.503	n/a	GetAnswer	Gain
79.522	4.0	0.019	146.683	6.0	1	10.3	0.7	16.1188	955.0	5.0	Outcome2	1.39	10.3	0.0	No	n/a	8.91053227633069	n/a	n/a	n/a	ShowChoice	Gain
83.534	1.0	0.012	150.695	6.0	1	10.3	0.7	16.1188	955.0	5.0	Outcome2	1.39	10.3	0.0	No	n/a	8.91053227633069	n/a	n/a	n/a	ShowResult	Gain
84.554	6.232	0.02	151.715	6.0	1	10.3	0.7	16.1188	955.0	5.0	Outcome2	1.39	10.3	0.0	No	n/a	8.91053227633069	n/a	n/a	n/a	ISITrial	Gain
90.806	3.0	0.02	157.967	7.0	1	13.1	1.91	17.7563	955.0	2.22	Outcome2	3.82	13.1	0.0	No	2.0	9.27633069082673	0.74	91.546	n/a	GetAnswer	Loss
91.558	4.0	0.012	158.719	7.0	1	13.1	1.91	17.7563	955.0	2.22	Outcome2	3.82	13.1	0.0	No	n/a	9.27633069082673	n/a	n/a	n/a	ShowChoice	Loss
95.57	1.0	0.012	162.731	7.0	1	13.1	1.91	17.7563	955.0	2.22	Outcome2	3.82	13.1	0.0	No	n/a	9.27633069082673	n/a	n/a	n/a	ShowResult	Loss
96.59	2.305	0.02	163.751	7.0	1	13.1	1.91	17.7563	955.0	2.22	Outcome2	3.82	13.1	0.0	No	n/a	9.27633069082673	n/a	n/a	n/a	ISITrial	Loss
98.913	3.0	0.018	166.074	8.0	1	-0.3	-5.0	17.7188	955.0	1.0	Outcome2	-9.94	-0.3	3.1125	Yes	2.0	9.64212910532276	1.31	100.223	n/a	GetAnswer	Mixed
100.251	4.0	0.028	167.412	8.0	1	-0.3	-5.0	17.7188	955.0	1.0	Outcome2	-9.94	-0.3	3.1125	Yes	n/a	9.64212910532276	n/a	n/a	n/a	ShowChoice	Mixed
104.263	1.0	0.012	171.424	8.0	1	-0.3	-5.0	17.7188	955.0	1.0	Outcome2	-9.94	-0.3	3.1125	Yes	n/a	9.64212910532276	n/a	n/a	n/a	ShowResult	Mixed
105.282	3.506	0.019	172.443	8.0	1	-0.3	-5.0	17.7188	955.0	1.0	Outcome2	-9.94	-0.3	3.1125	Yes	n/a	9.64212910532276	n/a	n/a	n/a	ISITrial	Mixed
108.81	3.112	0.022	175.971	8.0	1	-0.3	-5.0	17.7188	955.0	1.0	Outcome2	-9.94	-0.3	3.1125	Yes	n/a	9.64212910532276	n/a	n/a	n/a	TrialHappPreview	Mixed
111.952	4.012	0.03	179.113	8.0	1	-0.3	-5.0	17.7188	955.0	1.0	Outcome2	-9.94	-0.3	3.1125	Yes	n/a	9.64212910532276	n/a	n/a	412.0	TrialHappiness	Mixed
111.953	1.243	n/a	180.482	8.0	1	-0.3	-5.0	17.7188	955.0	1.0	Outcome2	-9.94	-0.3	3.1125	Yes	n/a	9.64212910532276	n/a	n/a	412.0	TrialHappinessSliderResponse	Mixed
115.964	4.45	4.012	183.125	8.0	1	-0.3	-5.0	17.7188	955.0	1.0	Outcome2	-9.94	-0.3	3.1125	Yes	n/a	9.64212910532276	n/a	n/a	n/a	ISIRate	Mixed
120.444	3.0	0.03	187.605	9.0	1	2.7	-4.0	18.0563	955.0	0.3	Outcome1	2.7	-11.05	0.0	No	2.0	13.7451868629672	1.371	121.815	n/a	GetAnswer	Mixed
121.832	4.0	0.017	188.993	9.0	1	2.7	-4.0	18.0563	955.0	0.3	Outcome1	2.7	-11.05	0.0	No	n/a	13.7451868629672	n/a	n/a	n/a	ShowChoice	Mixed
125.844	1.0	0.012	193.005	9.0	1	2.7	-4.0	18.0563	955.0	0.3	Outcome1	2.7	-11.05	0.0	No	n/a	13.7451868629672	n/a	n/a	n/a	ShowResult	Mixed
126.864	2.0	0.02	194.025	9.0	1	2.7	-4.0	18.0563	955.0	0.3	Outcome1	2.7	-11.05	0.0	No	n/a	13.7451868629672	n/a	n/a	n/a	ISITrial	Mixed
128.886	3.0	0.022	196.047	10.0	1	2.0	2.0	18.3063	955.0	2.48	Certain	-5.06	9.3	4.0	Yes	4.0	14.3601359003398	1.426	130.312	n/a	GetAnswer	Gain
130.324	4.0	0.012	197.485	10.0	1	2.0	2.0	18.3063	955.0	2.48	Certain	-5.06	9.3	4.0	Yes	n/a	14.3601359003398	n/a	n/a	n/a	ShowChoice	Gain
134.336	1.0	0.012	201.497	10.0	1	2.0	2.0	18.3063	955.0	2.48	Certain	-5.06	9.3	4.0	Yes	n/a	14.3601359003398	n/a	n/a	n/a	ShowResult	Gain
135.356	2.0	0.02	202.517	10.0	1	2.0	2.0	18.3063	955.0	2.48	Certain	-5.06	9.3	4.0	Yes	n/a	14.3601359003398	n/a	n/a	n/a	ISITrial	Gain
137.379	4.0	0.023	204.54	10.0	1	2.0	2.0	18.3063	955.0	2.48	Certain	-5.06	9.3	4.0	Yes	n/a	14.3601359003398	n/a	n/a	n/a	TrialHappPreview	Gain
141.407	4.012	0.028	208.568	10.0	1	2.0	2.0	18.3063	955.0	2.48	Certain	-5.06	9.3	4.0	Yes	n/a	14.3601359003398	n/a	n/a	396.0	TrialHappiness	Gain
141.408	1.999	n/a	208.846	10.0	1	2.0	2.0	18.3063	955.0	2.48	Certain	-5.06	9.3	4.0	Yes	n/a	14.3601359003398	n/a	n/a	396.0	TrialHappinessSliderResponse	Gain
145.419	8.0	4.012	212.58	10.0	1	2.0	2.0	18.3063	955.0	2.48	Certain	-5.06	9.3	4.0	Yes	n/a	14.3601359003398	n/a	n/a	n/a	ISIRate	Gain
153.443	3.0	0.024	220.604	11.0	1	-1.0	-1.0	18.1813	955.0	1.68	Certain	6.5	-8.75	0.0	No	4.0	15.246885617214	1.272	154.715	n/a	GetAnswer	Gain
154.731	4.0	0.016	221.892	11.0	1	-1.0	-1.0	18.1813	955.0	1.68	Certain	6.5	-8.75	0.0	No	n/a	15.246885617214	n/a	n/a	n/a	ShowChoice	Gain
158.743	1.0	0.012	225.904	11.0	1	-1.0	-1.0	18.1813	955.0	1.68	Certain	6.5	-8.75	0.0	No	n/a	15.246885617214	n/a	n/a	n/a	ShowResult	Gain
159.762	3.324	0.019	226.923	11.0	1	-1.0	-1.0	18.1813	955.0	1.68	Certain	6.5	-8.75	0.0	No	n/a	15.246885617214	n/a	n/a	n/a	ISITrial	Gain
163.106	3.0	0.02	230.267	12.0	1	-2.09	-2.09	17.92	955.0	3.16	Certain	-4.18	11.7	2.61875	Yes	4.0	15.8799546998867	0.946	164.052	n/a	GetAnswer	Loss
164.075	4.0	0.023	231.236	12.0	1	-2.09	-2.09	17.92	955.0	3.16	Certain	-4.18	11.7	2.61875	Yes	n/a	15.8799546998867	n/a	n/a	n/a	ShowChoice	Loss
168.087	1.0	0.012	235.248	12.0	1	-2.09	-2.09	17.92	955.0	3.16	Certain	-4.18	11.7	2.61875	Yes	n/a	15.8799546998867	n/a	n/a	n/a	ShowResult	Loss
169.107	6.642	0.02	236.268	12.0	1	-2.09	-2.09	17.92	955.0	3.16	Certain	-4.18	11.7	2.61875	Yes	n/a	15.8799546998867	n/a	n/a	n/a	ISITrial	Loss
175.76	2.619	0.011	242.921	12.0	1	-2.09	-2.09	17.92	955.0	3.16	Certain	-4.18	11.7	2.61875	Yes	n/a	15.8799546998867	n/a	n/a	n/a	TrialHappPreview	Loss
178.401	4.012	0.022	245.562	12.0	1	-2.09	-2.09	17.92	955.0	3.16	Certain	-4.18	11.7	2.61875	Yes	n/a	15.8799546998867	n/a	n/a	408.0	TrialHappiness	Loss
178.402	0.358	n/a	246.315	12.0	1	-2.09	-2.09	17.92	955.0	3.16	Certain	-4.18	11.7	2.61875	Yes	n/a	15.8799546998867	n/a	n/a	408.0	TrialHappinessSliderResponse	Loss
182.413	2.475	4.012	249.574	12.0	1	-2.09	-2.09	17.92	955.0	3.16	Certain	-4.18	11.7	2.61875	Yes	n/a	15.8799546998867	n/a	n/a	n/a	ISIRate	Loss
184.904	3.0	0.016	252.065	13.0	1	-4.0	-4.0	17.42	955.0	1.2	Certain	3.9	-12.41	0.0	No	4.0	16.3091732729332	1.572	186.476	n/a	GetAnswer	Mixed
186.492	4.0	0.016	253.653	13.0	1	-4.0	-4.0	17.42	955.0	1.2	Certain	3.9	-12.41	0.0	No	n/a	16.3091732729332	n/a	n/a	n/a	ShowChoice	Mixed
190.504	1.0	0.012	257.665	13.0	1	-4.0	-4.0	17.42	955.0	1.2	Certain	3.9	-12.41	0.0	No	n/a	16.3091732729332	n/a	n/a	n/a	ShowResult	Mixed
191.524	3.48	0.02	258.685	13.0	1	-4.0	-4.0	17.42	955.0	1.2	Certain	3.9	-12.41	0.0	No	n/a	16.3091732729332	n/a	n/a	n/a	ISITrial	Mixed
195.035	3.0	0.031	262.196	14.0	1	-5.0	-5.0	16.795	955.0	1.0	Certain	-13.23	3.7	0.0	No	4.0	16.9286523216308	1.404	196.439	n/a	GetAnswer	Mixed
196.456	4.0	0.017	263.617	14.0	1	-5.0	-5.0	16.795	955.0	1.0	Certain	-13.23	3.7	0.0	No	n/a	16.9286523216308	n/a	n/a	n/a	ShowChoice	Mixed
200.468	1.0	0.012	267.629	14.0	1	-5.0	-5.0	16.795	955.0	1.0	Certain	-13.23	3.7	0.0	No	n/a	16.9286523216308	n/a	n/a	n/a	ShowResult	Mixed
201.487	5.019	0.019	268.648	14.0	1	-5.0	-5.0	16.795	955.0	1.0	Certain	-13.23	3.7	0.0	No	n/a	16.9286523216308	n/a	n/a	n/a	ISITrial	Mixed
206.536	3.0	0.03	273.697	15.0	1	8.39	4.2	17.8438	955.0	2.48	Outcome2	11.3	8.39	3.3485	Yes	2.0	-2.90779539448849	1.628	208.164	n/a	GetAnswer	Loss
208.191	4.0	0.027	275.352	15.0	1	8.39	4.2	17.8438	955.0	2.48	Outcome2	11.3	8.39	3.3485	Yes	n/a	-2.90779539448849	n/a	n/a	n/a	ShowChoice	Loss
212.203	1.0	0.012	279.364	15.0	1	8.39	4.2	17.8438	955.0	2.48	Outcome2	11.3	8.39	3.3485	Yes	n/a	-2.90779539448849	n/a	n/a	n/a	ShowResult	Loss
213.222	7.614	0.019	280.383	15.0	1	8.39	4.2	17.8438	955.0	2.48	Outcome2	11.3	8.39	3.3485	Yes	n/a	-2.90779539448849	n/a	n/a	n/a	ISITrial	Loss
220.862	3.348	0.026	288.023	15.0	1	8.39	4.2	17.8438	955.0	2.48	Outcome2	11.3	8.39	3.3485	Yes	n/a	-2.90779539448849	n/a	n/a	n/a	TrialHappPreview	Loss
224.239	4.012	0.029	291.4	15.0	1	8.39	4.2	17.8438	955.0	2.48	Outcome2	11.3	8.39	3.3485	Yes	n/a	-2.90779539448849	n/a	n/a	320.0	TrialHappiness	Loss
224.239	0.542	n/a	291.766	15.0	1	8.39	4.2	17.8438	955.0	2.48	Outcome2	11.3	8.39	3.3485	Yes	n/a	-2.90779539448849	n/a	n/a	320.0	TrialHappinessSliderResponse	Loss
228.251	5.394	4.012	295.412	15.0	1	8.39	4.2	17.8438	955.0	2.48	Outcome2	11.3	8.39	3.3485	Yes	n/a	-2.90779539448849	n/a	n/a	n/a	ISIRate	Loss
233.667	3.0	0.022	300.828	16.0	1	-11.0	-11.0	16.4688	955.0	0.3	Certain	-1.3	-20.96	0.0	No	4.0	19.6625141562854	1.536	235.203	n/a	GetAnswer	Mixed
235.222	4.0	0.019	302.383	16.0	1	-11.0	-11.0	16.4688	955.0	0.3	Certain	-1.3	-20.96	0.0	No	n/a	19.6625141562854	n/a	n/a	n/a	ShowChoice	Mixed
239.234	1.0	0.012	306.395	16.0	1	-11.0	-11.0	16.4688	955.0	0.3	Certain	-1.3	-20.96	0.0	No	n/a	19.6625141562854	n/a	n/a	n/a	ShowResult	Mixed
240.253	3.008	0.019	307.414	16.0	1	-11.0	-11.0	16.4688	955.0	0.3	Certain	-1.3	-20.96	0.0	No	n/a	19.6625141562854	n/a	n/a	n/a	ISITrial	Mixed
243.279	3.0	0.018	310.44	17.0	1	-7.0	-7.0	15.5938	955.0	0.52	Certain	3.1	-17.28	3.0415	Yes	4.0	20.3816534541336	1.416	244.695	n/a	GetAnswer	Mixed
244.717	4.0	0.022	311.878	17.0	1	-7.0	-7.0	15.5938	955.0	0.52	Certain	3.1	-17.28	3.0415	Yes	n/a	20.3816534541336	n/a	n/a	n/a	ShowChoice	Mixed
248.729	1.0	0.012	315.89	17.0	1	-7.0	-7.0	15.5938	955.0	0.52	Certain	3.1	-17.28	3.0415	Yes	n/a	20.3816534541336	n/a	n/a	n/a	ShowResult	Mixed
249.749	3.566	0.02	316.91	17.0	1	-7.0	-7.0	15.5938	955.0	0.52	Certain	3.1	-17.28	3.0415	Yes	n/a	20.3816534541336	n/a	n/a	n/a	ISITrial	Mixed
253.343	3.042	0.028	320.504	17.0	1	-7.0	-7.0	15.5938	955.0	0.52	Certain	3.1	-17.28	3.0415	Yes	n/a	20.3816534541336	n/a	n/a	n/a	TrialHappPreview	Mixed
256.402	4.012	0.017	323.563	17.0	1	-7.0	-7.0	15.5938	955.0	0.52	Certain	3.1	-17.28	3.0415	Yes	n/a	20.3816534541336	n/a	n/a	324.0	TrialHappiness	Mixed
256.402	1.936	n/a	324.141	17.0	1	-7.0	-7.0	15.5938	955.0	0.52	Certain	3.1	-17.28	3.0415	Yes	n/a	20.3816534541336	n/a	n/a	324.0	TrialHappinessSliderResponse	Mixed
260.414	4.166	4.012	327.575	17.0	1	-7.0	-7.0	15.5938	955.0	0.52	Certain	3.1	-17.28	3.0415	Yes	n/a	20.3816534541336	n/a	n/a	n/a	ISIRate	Mixed
264.61	3.0	0.03	331.771	18.0	1	12.1	1.0	17.1063	955.0	4.2	Outcome1	12.1	-8.93	0.0	No	2.0	21.0328425821065	1.3	265.91	n/a	GetAnswer	Loss
265.93	4.0	0.02	333.091	18.0	1	12.1	1.0	17.1063	955.0	4.2	Outcome1	12.1	-8.93	0.0	No	n/a	21.0328425821065	n/a	n/a	n/a	ShowChoice	Loss
269.942	1.0	0.012	337.103	18.0	1	12.1	1.0	17.1063	955.0	4.2	Outcome1	12.1	-8.93	0.0	No	n/a	21.0328425821065	n/a	n/a	n/a	ShowResult	Loss
270.962	6.787	0.02	338.123	18.0	1	12.1	1.0	17.1063	955.0	4.2	Outcome1	12.1	-8.93	0.0	No	n/a	21.0328425821065	n/a	n/a	n/a	ISITrial	Loss
277.783	3.0	0.034	344.944	19.0	1	-5.0	-5.0	16.4813	955.0	3.16	Certain	-16.05	5.7	0.0	No	4.0	21.7474518686297	0.788	278.571	n/a	GetAnswer	Gain
278.585	4.0	0.014	345.746	19.0	1	-5.0	-5.0	16.4813	955.0	3.16	Certain	-16.05	5.7	0.0	No	n/a	21.7474518686297	n/a	n/a	n/a	ShowChoice	Gain
282.597	1.0	0.012	349.758	19.0	1	-5.0	-5.0	16.4813	955.0	3.16	Certain	-16.05	5.7	0.0	No	n/a	21.7474518686297	n/a	n/a	n/a	ShowResult	Gain
283.617	2.0	0.02	350.778	19.0	1	-5.0	-5.0	16.4813	955.0	3.16	Certain	-16.05	5.7	0.0	No	n/a	21.7474518686297	n/a	n/a	n/a	ISITrial	Gain
285.639	3.0	0.022	352.8	20.0	1	-7.0	-7.0	15.6063	955.0	1.5	Certain	4.1	-18.36	2.92125	Yes	4.0	22.4620611551529	1.412	287.051	n/a	GetAnswer	Mixed
287.077	4.0	0.026	354.238	20.0	1	-7.0	-7.0	15.6063	955.0	1.5	Certain	4.1	-18.36	2.92125	Yes	n/a	22.4620611551529	n/a	n/a	n/a	ShowChoice	Mixed
291.089	1.0	0.012	358.25	20.0	1	-7.0	-7.0	15.6063	955.0	1.5	Certain	4.1	-18.36	2.92125	Yes	n/a	22.4620611551529	n/a	n/a	n/a	ShowResult	Mixed
292.109	8.0	0.02	359.27	20.0	1	-7.0	-7.0	15.6063	955.0	1.5	Certain	4.1	-18.36	2.92125	Yes	n/a	22.4620611551529	n/a	n/a	n/a	ISITrial	Mixed
300.133	2.921	0.024	367.294	20.0	1	-7.0	-7.0	15.6063	955.0	1.5	Certain	4.1	-18.36	2.92125	Yes	n/a	22.4620611551529	n/a	n/a	n/a	TrialHappPreview	Mixed
303.075	4.029	0.021	370.236	20.0	1	-7.0	-7.0	15.6063	955.0	1.5	Certain	4.1	-18.36	2.92125	Yes	n/a	22.4620611551529	n/a	n/a	272.0	TrialHappiness	Mixed
303.076	0.643	n/a	370.453	20.0	1	-7.0	-7.0	15.6063	955.0	1.5	Certain	4.1	-18.36	2.92125	Yes	n/a	22.4620611551529	n/a	n/a	272.0	TrialHappinessSliderResponse	Mixed
307.104	3.685	4.029	374.265	20.0	1	-7.0	-7.0	15.6063	955.0	1.5	Certain	4.1	-18.36	2.92125	Yes	n/a	22.4620611551529	n/a	n/a	n/a	ISIRate	Mixed
310.815	3.0	0.026	377.976	21.0	1	-2.0	-2.0	15.3563	955.0	4.2	Certain	10.1	-13.96	0.0	No	4.0	24.0600226500566	1.431	312.246	n/a	GetAnswer	Gain
312.269	4.0	0.023	379.43	21.0	1	-2.0	-2.0	15.3563	955.0	4.2	Certain	10.1	-13.96	0.0	No	n/a	24.0600226500566	n/a	n/a	n/a	ShowChoice	Gain
316.281	1.0	0.012	383.442	21.0	1	-2.0	-2.0	15.3563	955.0	4.2	Certain	10.1	-13.96	0.0	No	n/a	24.0600226500566	n/a	n/a	n/a	ShowResult	Gain
317.301	3.555	0.02	384.462	21.0	1	-2.0	-2.0	15.3563	955.0	4.2	Certain	10.1	-13.96	0.0	No	n/a	24.0600226500566	n/a	n/a	n/a	ISITrial	Gain
320.878	3.0	0.022	388.039	22.0	1	-4.0	-4.0	14.8563	955.0	1.68	Certain	-16.33	8.5	3.2195	Yes	4.0	24.8335220838052	0.89	321.768	n/a	GetAnswer	Gain
321.781	4.0	0.013	388.942	22.0	1	-4.0	-4.0	14.8563	955.0	1.68	Certain	-16.33	8.5	3.2195	Yes	n/a	24.8335220838052	n/a	n/a	n/a	ShowChoice	Gain
325.81	1.0	0.029	392.971	22.0	1	-4.0	-4.0	14.8563	955.0	1.68	Certain	-16.33	8.5	3.2195	Yes	n/a	24.8335220838052	n/a	n/a	n/a	ShowResult	Gain
326.83	6.793	0.02	393.991	22.0	1	-4.0	-4.0	14.8563	955.0	1.68	Certain	-16.33	8.5	3.2195	Yes	n/a	24.8335220838052	n/a	n/a	n/a	ISITrial	Gain
333.65	3.22	0.027	400.811	22.0	1	-4.0	-4.0	14.8563	955.0	1.68	Certain	-16.33	8.5	3.2195	Yes	n/a	24.8335220838052	n/a	n/a	n/a	TrialHappPreview	Gain
336.893	4.029	0.023	404.054	22.0	1	-4.0	-4.0	14.8563	955.0	1.68	Certain	-16.33	8.5	3.2195	Yes	4{-4}2{-2}2{-2}	24.8335220838052	2.219	339.112	276.0	TrialHappiness	Gain
336.894	1.692	n/a	404.582	22.0	1	-4.0	-4.0	14.8563	955.0	1.68	Certain	-16.33	8.5	3.2195	Yes	n/a	24.8335220838052	n/a	n/a	276.0	TrialHappinessSliderResponse	Gain
340.922	4.878	4.029	408.083	22.0	1	-4.0	-4.0	14.8563	955.0	1.68	Certain	-16.33	8.5	3.2195	Yes	n/a	24.8335220838052	n/a	n/a	n/a	ISIRate	Gain
345.82	3.0	0.02	412.981	23.0	1	-5.0	-5.0	14.2313	955.0	3.16	Certain	-17.84	7.7	0.0	No	4.0	25.5390713476784	2.048	347.868	n/a	GetAnswer	Gain
347.893	4.0	0.025	415.054	23.0	1	-5.0	-5.0	14.2313	955.0	3.16	Certain	-17.84	7.7	0.0	No	n/a	25.5390713476784	n/a	n/a	n/a	ShowChoice	Gain
351.921	1.0	0.028	419.082	23.0	1	-5.0	-5.0	14.2313	955.0	3.16	Certain	-17.84	7.7	0.0	No	n/a	25.5390713476784	n/a	n/a	n/a	ShowResult	Gain
352.941	8.0	0.02	420.102	23.0	1	-5.0	-5.0	14.2313	955.0	3.16	Certain	-17.84	7.7	0.0	No	n/a	25.5390713476784	n/a	n/a	n/a	ISITrial	Gain
360.965	3.0	0.024	428.126	24.0	1	-2.89	-1.0	13.8701	955.0	0.52	Outcome1	-2.89	1.1	3.255	Yes	2.0	-3.98659871649679	1.218	362.183	n/a	GetAnswer	Mixed
362.202	4.0	0.019	429.363	24.0	1	-2.89	-1.0	13.8701	955.0	0.52	Outcome1	-2.89	1.1	3.255	Yes	n/a	-3.98659871649679	n/a	n/a	n/a	ShowChoice	Mixed
366.231	1.0	0.029	433.392	24.0	1	-2.89	-1.0	13.8701	955.0	0.52	Outcome1	-2.89	1.1	3.255	Yes	n/a	-3.98659871649679	n/a	n/a	n/a	ShowResult	Mixed
367.251	2.0	0.02	434.412	24.0	1	-2.89	-1.0	13.8701	955.0	0.52	Outcome1	-2.89	1.1	3.255	Yes	n/a	-3.98659871649679	n/a	n/a	n/a	ISITrial	Mixed
369.273	3.255	0.022	436.434	24.0	1	-2.89	-1.0	13.8701	955.0	0.52	Outcome1	-2.89	1.1	3.255	Yes	n/a	-3.98659871649679	n/a	n/a	n/a	TrialHappPreview	Mixed
372.55	4.012	0.022	439.711	24.0	1	-2.89	-1.0	13.8701	955.0	0.52	Outcome1	-2.89	1.1	3.255	Yes	n/a	-3.98659871649679	n/a	n/a	280.0	TrialHappiness	Mixed
372.55	1.182	n/a	440.19	24.0	1	-2.89	-1.0	13.8701	955.0	0.52	Outcome1	-2.89	1.1	3.255	Yes	n/a	-3.98659871649679	n/a	n/a	280.0	TrialHappinessSliderResponse	Mixed
376.562	5.02	4.012	443.723	24.0	1	-2.89	-1.0	13.8701	955.0	0.52	Outcome1	-2.89	1.1	3.255	Yes	n/a	-3.98659871649679	n/a	n/a	n/a	ISIRate	Mixed
381.61	3.0	0.028	448.771	25.0	1	2.07	1.03	14.1289	955.0	4.2	Outcome2	6.1	2.07	0.0	No	2.0	-4.0344469611174	0.894	382.504	n/a	GetAnswer	Gain
382.53	4.0	0.026	449.691	25.0	1	2.07	1.03	14.1289	955.0	4.2	Outcome2	6.1	2.07	0.0	No	n/a	-4.0344469611174	n/a	n/a	n/a	ShowChoice	Gain
386.542	1.0	0.012	453.703	25.0	1	2.07	1.03	14.1289	955.0	4.2	Outcome2	6.1	2.07	0.0	No	n/a	-4.0344469611174	n/a	n/a	n/a	ShowResult	Gain
387.561	3.749	0.019	454.722	25.0	1	2.07	1.03	14.1289	955.0	4.2	Outcome2	6.1	2.07	0.0	No	n/a	-4.0344469611174	n/a	n/a	n/a	ISITrial	Gain
391.339	3.0	0.029	458.5	26.0	1	-13.0	-13.0	12.5039	955.0	0.3	Certain	-27.07	0.7	0.0	No	4.0	27.773499433748604	1.326	392.665	n/a	GetAnswer	Mixed
392.677	4.0	0.012	459.838	26.0	1	-13.0	-13.0	12.5039	955.0	0.3	Certain	-27.07	0.7	0.0	No	n/a	27.773499433748604	n/a	n/a	n/a	ShowChoice	Mixed
396.689	1.0	0.012	463.85	26.0	1	-13.0	-13.0	12.5039	955.0	0.3	Certain	-27.07	0.7	0.0	No	n/a	27.773499433748604	n/a	n/a	n/a	ShowResult	Mixed
397.709	7.834	0.02	464.87	26.0	1	-13.0	-13.0	12.5039	955.0	0.3	Certain	-27.07	0.7	0.0	No	n/a	27.773499433748604	n/a	n/a	n/a	ISITrial	Mixed
405.565	3.0	0.022	472.726	27.0	1	-10.0	-10.0	11.2539	955.0	2.0	Certain	-24.24	4.3	2.54975	Yes	4.0	28.5379388448471	0.733	406.298	n/a	GetAnswer	Mixed
406.318	4.0	0.02	473.479	27.0	1	-10.0	-10.0	11.2539	955.0	2.0	Certain	-24.24	4.3	2.54975	Yes	n/a	28.5379388448471	n/a	n/a	n/a	ShowChoice	Mixed
410.33	1.0	0.012	477.491	27.0	1	-10.0	-10.0	11.2539	955.0	2.0	Certain	-24.24	4.3	2.54975	Yes	n/a	28.5379388448471	n/a	n/a	n/a	ShowResult	Mixed
411.349	4.225	0.019	478.51	27.0	1	-10.0	-10.0	11.2539	955.0	2.0	Certain	-24.24	4.3	2.54975	Yes	n/a	28.5379388448471	n/a	n/a	n/a	ISITrial	Mixed
415.595	2.55	0.021	482.756	27.0	1	-10.0	-10.0	11.2539	955.0	2.0	Certain	-24.24	4.3	2.54975	Yes	n/a	28.5379388448471	n/a	n/a	n/a	TrialHappPreview	Mixed
418.17	4.012	0.025	485.331	27.0	1	-10.0	-10.0	11.2539	955.0	2.0	Certain	-24.24	4.3	2.54975	Yes	n/a	28.5379388448471	n/a	n/a	284.0	TrialHappiness	Mixed
418.17	1.208	n/a	485.625	27.0	1	-10.0	-10.0	11.2539	955.0	2.0	Certain	-24.24	4.3	2.54975	Yes	n/a	28.5379388448471	n/a	n/a	284.0	TrialHappinessSliderResponse	Mixed
422.182	2.199	4.012	489.343	27.0	1	-10.0	-10.0	11.2539	955.0	2.0	Certain	-24.24	4.3	2.54975	Yes	n/a	28.5379388448471	n/a	n/a	n/a	ISIRate	Mixed
468.154	1.747	n/a	535.666	n/a	1	n/a	n/a	n/a	n/a	n/a	n/a	n/a	n/a	n/a	n/a	n/a	n/a	n/a	n/a	268.0	BlockStartHappinessSliderResponse	n/a
-55.216	-0.001	0.024	491.566	n/a	2	n/a	n/a	n/a	n/a	n/a	n/a	n/a	n/a	n/a	n/a	{SPACE}	n/a	39.719	-15.497	n/a	Rest	n/a
-15.48	4.0	0.017	531.302	n/a	2	n/a	n/a	n/a	n/a	n/a	n/a	n/a	n/a	n/a	n/a	n/a	n/a	n/a	n/a	n/a	BlockHappyPreview	n/a
-11.468	2.098	0.012	535.314	n/a	2	n/a	n/a	n/a	n/a	n/a	n/a	n/a	n/a	n/a	n/a	n/a	n/a	n/a	n/a	268.0	BlockStartHappiness	n/a
-4.915	-0.001	0.022	541.867	n/a	2	n/a	n/a	n/a	n/a	n/a	n/a	n/a	n/a	n/a	n/a	5.0	n/a	4.898	-0.017	n/a	ScanWait	n/a
0.0	10.0	0.017	546.782	n/a	2	n/a	n/a	n/a	n/a	n/a	n/a	n/a	n/a	n/a	n/a	n/a	n/a	n/a	n/a	n/a	GetReady	n/a
10.013	3.0	0.013	556.795	28.0	2	0.0	0.0	11.2539	70.0	1.0	Certain	1.7	-1.67	0.0	No	4.0	-3.3673469387755097	1.273	11.286	n/a	GetAnswer	Mixed
11.3	4.0	0.014	558.082	28.0	2	0.0	0.0	11.2539	70.0	1.0	Certain	1.7	-1.67	0.0	No	n/a	-3.3673469387755097	n/a	n/a	n/a	ShowChoice	Mixed
15.312	1.0	0.012	562.094	28.0	2	0.0	0.0	11.2539	70.0	1.0	Certain	1.7	-1.67	0.0	No	n/a	-3.3673469387755097	n/a	n/a	n/a	ShowResult	Mixed
16.332	3.575	0.02	563.114	28.0	2	0.0	0.0	11.2539	70.0	1.0	Certain	1.7	-1.67	0.0	No	n/a	-3.3673469387755097	n/a	n/a	n/a	ISITrial	Mixed
19.926	3.0	0.019	566.708	29.0	2	4.31	2.15	11.7927	70.0	3.6	Outcome2	7.9	4.31	3.529	Yes	2.0	-3.59183673469388	1.063	20.989	n/a	GetAnswer	Gain
21.013	4.0	0.024	567.795	29.0	2	4.31	2.15	11.7927	70.0	3.6	Outcome2	7.9	4.31	3.529	Yes	n/a	-3.59183673469388	n/a	n/a	n/a	ShowChoice	Gain
25.025	1.0	0.012	571.807	29.0	2	4.31	2.15	11.7927	70.0	3.6	Outcome2	7.9	4.31	3.529	Yes	n/a	-3.59183673469388	n/a	n/a	n/a	ShowResult	Gain
26.044	3.955	0.019	572.826	29.0	2	4.31	2.15	11.7927	70.0	3.6	Outcome2	7.9	4.31	3.529	Yes	n/a	-3.59183673469388	n/a	n/a	n/a	ISITrial	Gain
30.023	3.529	0.024	576.805	29.0	2	4.31	2.15	11.7927	70.0	3.6	Outcome2	7.9	4.31	3.529	Yes	n/a	-3.59183673469388	n/a	n/a	n/a	TrialHappPreview	Gain
33.567	4.012	0.015	580.349	29.0	2	4.31	2.15	11.7927	70.0	3.6	Outcome2	7.9	4.31	3.529	Yes	n/a	-3.59183673469388	n/a	n/a	272.0	TrialHappiness	Gain
33.568	0.95	n/a	580.961	29.0	2	4.31	2.15	11.7927	70.0	3.6	Outcome2	7.9	4.31	3.529	Yes	n/a	-3.59183673469388	n/a	n/a	272.0	TrialHappinessSliderResponse	Gain
37.579	6.116	4.012	584.361	29.0	2	4.31	2.15	11.7927	70.0	3.6	Outcome2	7.9	4.31	3.529	Yes	n/a	-3.59183673469388	n/a	n/a	n/a	ISIRate	Gain
43.714	3.0	0.019	590.496	30.0	2	3.02	1.51	12.1702	70.0	2.0	Outcome2	6.9	3.02	0.0	No	2.0	-3.8843537414966	0.859	44.573	n/a	GetAnswer	Gain
44.6	4.0	0.027	591.382	30.0	2	3.02	1.51	12.1702	70.0	2.0	Outcome2	6.9	3.02	0.0	No	n/a	-3.8843537414966	n/a	n/a	n/a	ShowChoice	Gain
48.612	1.0	0.012	595.394	30.0	2	3.02	1.51	12.1702	70.0	2.0	Outcome2	6.9	3.02	0.0	No	n/a	-3.8843537414966	n/a	n/a	n/a	ShowResult	Gain
49.632	4.453	0.02	596.414	30.0	2	3.02	1.51	12.1702	70.0	2.0	Outcome2	6.9	3.02	0.0	No	n/a	-3.8843537414966	n/a	n/a	n/a	ISITrial	Gain
54.112	3.0	0.027	600.894	31.0	2	1.39	0.7	12.344	70.0	2.8	Outcome2	5.5	1.39	2.50325	Yes	2.0	-4.11337868480726	1.572	55.684	n/a	GetAnswer	Gain
55.7	4.0	0.016	602.482	31.0	2	1.39	0.7	12.344	70.0	2.8	Outcome2	5.5	1.39	2.50325	Yes	n/a	-4.11337868480726	n/a	n/a	n/a	ShowChoice	Gain
59.712	1.0	0.012	606.494	31.0	2	1.39	0.7	12.344	70.0	2.8	Outcome2	5.5	1.39	2.50325	Yes	n/a	-4.11337868480726	n/a	n/a	n/a	ShowResult	Gain
60.732	4.786	0.02	607.514	31.0	2	1.39	0.7	12.344	70.0	2.8	Outcome2	5.5	1.39	2.50325	Yes	n/a	-4.11337868480726	n/a	n/a	n/a	ISITrial	Gain
65.529	2.503	0.011	612.311	31.0	2	1.39	0.7	12.344	70.0	2.8	Outcome2	5.5	1.39	2.50325	Yes	n/a	-4.11337868480726	n/a	n/a	n/a	TrialHappPreview	Gain
68.054	4.012	0.022	614.836	31.0	2	1.39	0.7	12.344	70.0	2.8	Outcome2	5.5	1.39	2.50325	Yes	n/a	-4.11337868480726	n/a	n/a	264.0	TrialHappiness	Gain
68.054	2.561	n/a	615.425	31.0	2	1.39	0.7	12.344	70.0	2.8	Outcome2	5.5	1.39	2.50325	Yes	n/a	-4.11337868480726	n/a	n/a	264.0	TrialHappinessSliderResponse	Gain
72.066	2.013	4.012	618.848	31.0	2	1.39	0.7	12.344	70.0	2.8	Outcome2	5.5	1.39	2.50325	Yes	n/a	-4.11337868480726	n/a	n/a	n/a	ISIRate	Gain
74.105	3.0	0.026	620.887	32.0	2	7.69	3.84	13.3052	70.0	3.6	Outcome1	7.69	11.9	0.0	No	2.0	-4.20634920634921	1.162	75.267	n/a	GetAnswer	Loss
75.292	4.0	0.025	622.074	32.0	2	7.69	3.84	13.3052	70.0	3.6	Outcome1	7.69	11.9	0.0	No	n/a	-4.20634920634921	n/a	n/a	n/a	ShowChoice	Loss
79.304	1.0	0.012	626.086	32.0	2	7.69	3.84	13.3052	70.0	3.6	Outcome1	7.69	11.9	0.0	No	n/a	-4.20634920634921	n/a	n/a	n/a	ShowResult	Loss
80.324	2.0	0.02	627.106	32.0	2	7.69	3.84	13.3052	70.0	3.6	Outcome1	7.69	11.9	0.0	No	n/a	-4.20634920634921	n/a	n/a	n/a	ISITrial	Loss
82.346	3.0	0.022	629.128	33.0	2	4.47	2.24	13.864	70.0	2.0	Outcome1	4.47	8.9	0.0	No	2.0	-4.426303854875281	1.401	83.747	n/a	GetAnswer	Gain
83.767	4.0	0.02	630.549	33.0	2	4.47	2.24	13.864	70.0	2.0	Outcome1	4.47	8.9	0.0	No	n/a	-4.426303854875281	n/a	n/a	n/a	ShowChoice	Gain
87.779	1.0	0.012	634.561	33.0	2	4.47	2.24	13.864	70.0	2.0	Outcome1	4.47	8.9	0.0	No	n/a	-4.426303854875281	n/a	n/a	n/a	ShowResult	Gain
88.799	5.099	0.02	635.581	33.0	2	4.47	2.24	13.864	70.0	2.0	Outcome1	4.47	8.9	0.0	No	n/a	-4.426303854875281	n/a	n/a	n/a	ISITrial	Gain
93.914	3.0	0.016	640.696	34.0	2	0.0	0.0	13.864	70.0	0.2	Certain	0.12	-0.78	3.2315	Yes	4.0	0.9004157218442931	1.493	95.407	n/a	GetAnswer	Mixed
95.419	4.0	0.012	642.201	34.0	2	0.0	0.0	13.864	70.0	0.2	Certain	0.12	-0.78	3.2315	Yes	n/a	0.9004157218442931	n/a	n/a	n/a	ShowChoice	Mixed
99.431	1.0	0.012	646.213	34.0	2	0.0	0.0	13.864	70.0	0.2	Certain	0.12	-0.78	3.2315	Yes	n/a	0.9004157218442931	n/a	n/a	n/a	ShowResult	Mixed
100.451	4.784	0.02	647.233	34.0	2	0.0	0.0	13.864	70.0	0.2	Certain	0.12	-0.78	3.2315	Yes	n/a	0.9004157218442931	n/a	n/a	n/a	ISITrial	Mixed
105.248	3.232	0.013	652.03	34.0	2	0.0	0.0	13.864	70.0	0.2	Certain	0.12	-0.78	3.2315	Yes	n/a	0.9004157218442931	n/a	n/a	n/a	TrialHappPreview	Mixed
108.508	4.012	0.028	655.29	34.0	2	0.0	0.0	13.864	70.0	0.2	Certain	0.12	-0.78	3.2315	Yes	n/a	0.9004157218442931	n/a	n/a	276.0	TrialHappiness	Mixed
108.509	1.096	n/a	656.153	34.0	2	0.0	0.0	13.864	70.0	0.2	Certain	0.12	-0.78	3.2315	Yes	n/a	0.9004157218442931	n/a	n/a	276.0	TrialHappinessSliderResponse	Mixed
112.52	4.926	4.012	659.302	34.0	2	0.0	0.0	13.864	70.0	0.2	Certain	0.12	-0.78	3.2315	Yes	n/a	0.9004157218442931	n/a	n/a	n/a	ISIRate	Mixed
117.468	3.0	0.022	664.25	35.0	2	3.03	1.52	14.2428	70.0	4.2	Outcome2	8.1	3.03	0.0	No	2.0	-5.0702947845805	1.167	118.635	n/a	GetAnswer	Gain
118.655	4.0	0.02	665.437	35.0	2	3.03	1.52	14.2428	70.0	4.2	Outcome2	8.1	3.03	0.0	No	n/a	-5.0702947845805	n/a	n/a	n/a	ShowChoice	Gain
122.667	1.0	0.012	669.449	35.0	2	3.03	1.52	14.2428	70.0	4.2	Outcome2	8.1	3.03	0.0	No	n/a	-5.0702947845805	n/a	n/a	n/a	ShowResult	Gain
123.687	2.098	0.02	670.469	35.0	2	3.03	1.52	14.2428	70.0	4.2	Outcome2	8.1	3.03	0.0	No	n/a	-5.0702947845805	n/a	n/a	n/a	ISITrial	Gain
125.81	3.0	0.025	672.592	36.0	2	0.0	0.0	14.2428	70.0	0.82	Certain	-0.12	-1.11	3.33575	Yes	4.0	0.986961451247166	1.294	127.104	n/a	GetAnswer	Mixed
127.131	4.0	0.027	673.913	36.0	2	0.0	0.0	14.2428	70.0	0.82	Certain	-0.12	-1.11	3.33575	Yes	n/a	0.986961451247166	n/a	n/a	n/a	ShowChoice	Mixed
131.143	1.0	0.012	677.925	36.0	2	0.0	0.0	14.2428	70.0	0.82	Certain	-0.12	-1.11	3.33575	Yes	n/a	0.986961451247166	n/a	n/a	n/a	ShowResult	Mixed
132.162	5.156	0.019	678.944	36.0	2	0.0	0.0	14.2428	70.0	0.82	Certain	-0.12	-1.11	3.33575	Yes	n/a	0.986961451247166	n/a	n/a	n/a	ISITrial	Mixed
137.345	3.336	0.027	684.127	36.0	2	0.0	0.0	14.2428	70.0	0.82	Certain	-0.12	-1.11	3.33575	Yes	n/a	0.986961451247166	n/a	n/a	n/a	TrialHappPreview	Mixed
140.705	4.012	0.024	687.487	36.0	2	0.0	0.0	14.2428	70.0	0.82	Certain	-0.12	-1.11	3.33575	Yes	n/a	0.986961451247166	n/a	n/a	280.0	TrialHappiness	Mixed
140.705	1.088	n/a	688.111	36.0	2	0.0	0.0	14.2428	70.0	0.82	Certain	-0.12	-1.11	3.33575	Yes	n/a	0.986961451247166	n/a	n/a	280.0	TrialHappinessSliderResponse	Mixed
144.717	5.343	4.012	691.499	36.0	2	0.0	0.0	14.2428	70.0	0.82	Certain	-0.12	-1.11	3.33575	Yes	n/a	0.986961451247166	n/a	n/a	n/a	ISIRate	Mixed
150.083	3.0	0.023	696.865	37.0	2	2.0	2.0	14.4928	70.0	2.48	Certain	-0.31	5.3	0.0	No	4.0	-5.60544217687075	1.202	151.285	n/a	GetAnswer	Gain
151.303	4.0	0.018	698.085	37.0	2	2.0	2.0	14.4928	70.0	2.48	Certain	-0.31	5.3	0.0	No	n/a	-5.60544217687075	n/a	n/a	n/a	ShowChoice	Gain
155.315	1.0	0.012	702.097	37.0	2	2.0	2.0	14.4928	70.0	2.48	Certain	-0.31	5.3	0.0	No	n/a	-5.60544217687075	n/a	n/a	n/a	ShowResult	Gain
156.335	3.598	0.02	703.117	37.0	2	2.0	2.0	14.4928	70.0	2.48	Certain	-0.31	5.3	0.0	No	n/a	-5.60544217687075	n/a	n/a	n/a	ISITrial	Gain
159.962	3.0	0.029	706.744	38.0	2	7.06	3.53	15.3753	70.0	2.0	Outcome1	7.06	12.9	0.0	No	2.0	-5.843537414965991	1.183	161.145	n/a	GetAnswer	Loss
161.166	4.0	0.021	707.948	38.0	2	7.06	3.53	15.3753	70.0	2.0	Outcome1	7.06	12.9	0.0	No	n/a	-5.843537414965991	n/a	n/a	n/a	ShowChoice	Loss
165.178	1.0	0.012	711.96	38.0	2	7.06	3.53	15.3753	70.0	2.0	Outcome1	7.06	12.9	0.0	No	n/a	-5.843537414965991	n/a	n/a	n/a	ShowResult	Loss
166.198	4.787	0.02	712.98	38.0	2	7.06	3.53	15.3753	70.0	2.0	Outcome1	7.06	12.9	0.0	No	n/a	-5.843537414965991	n/a	n/a	n/a	ISITrial	Loss
171.012	3.0	0.027	717.794	39.0	2	3.82	1.91	15.8528	70.0	3.6	Outcome2	9.9	3.82	2.86425	Yes	2.0	-6.081632653061219	1.135	172.147	n/a	GetAnswer	Gain
172.166	4.0	0.019	718.948	39.0	2	3.82	1.91	15.8528	70.0	3.6	Outcome2	9.9	3.82	2.86425	Yes	n/a	-6.081632653061219	n/a	n/a	n/a	ShowChoice	Gain
176.178	1.0	0.012	722.96	39.0	2	3.82	1.91	15.8528	70.0	3.6	Outcome2	9.9	3.82	2.86425	Yes	n/a	-6.081632653061219	n/a	n/a	n/a	ShowResult	Gain
177.197	2.348	0.019	723.979	39.0	2	3.82	1.91	15.8528	70.0	3.6	Outcome2	9.9	3.82	2.86425	Yes	n/a	-6.081632653061219	n/a	n/a	n/a	ISITrial	Gain
179.571	2.864	0.026	726.353	39.0	2	3.82	1.91	15.8528	70.0	3.6	Outcome2	9.9	3.82	2.86425	Yes	n/a	-6.081632653061219	n/a	n/a	n/a	TrialHappPreview	Gain
182.463	4.012	0.028	729.245	39.0	2	3.82	1.91	15.8528	70.0	3.6	Outcome2	9.9	3.82	2.86425	Yes	n/a	-6.081632653061219	n/a	n/a	268.0	TrialHappiness	Gain
182.464	2.058	n/a	729.592	39.0	2	3.82	1.91	15.8528	70.0	3.6	Outcome2	9.9	3.82	2.86425	Yes	n/a	-6.081632653061219	n/a	n/a	268.0	TrialHappinessSliderResponse	Gain
186.475	3.457	4.012	733.257	39.0	2	3.82	1.91	15.8528	70.0	3.6	Outcome2	9.9	3.82	2.86425	Yes	n/a	-6.081632653061219	n/a	n/a	n/a	ISIRate	Gain
189.952	3.0	0.02	736.734	40.0	2	-4.0	-4.0	15.3528	70.0	0.52	Certain	-7.02	-0.9	0.0	No	4.0	-6.1156462585034	1.225	191.177	n/a	GetAnswer	Mixed
191.189	4.0	0.012	737.971	40.0	2	-4.0	-4.0	15.3528	70.0	0.52	Certain	-7.02	-0.9	0.0	No	n/a	-6.1156462585034	n/a	n/a	n/a	ShowChoice	Mixed
195.201	1.0	0.012	741.983	40.0	2	-4.0	-4.0	15.3528	70.0	0.52	Certain	-7.02	-0.9	0.0	No	n/a	-6.1156462585034	n/a	n/a	n/a	ShowResult	Mixed
196.221	3.158	0.02	743.003	40.0	2	-4.0	-4.0	15.3528	70.0	0.52	Certain	-7.02	-0.9	0.0	No	n/a	-6.1156462585034	n/a	n/a	n/a	ISITrial	Mixed
199.397	3.0	0.018	746.179	41.0	2	-1.0	-1.0	15.2278	70.0	0.82	Certain	-4.84	1.5	4.0	Yes	4.0	-6.3401360544217695	1.196	200.593	n/a	GetAnswer	Mixed
200.617	4.0	0.024	747.399	41.0	2	-1.0	-1.0	15.2278	70.0	0.82	Certain	-4.84	1.5	4.0	Yes	n/a	-6.3401360544217695	n/a	n/a	n/a	ShowChoice	Mixed
204.63	1.0	0.013	751.412	41.0	2	-1.0	-1.0	15.2278	70.0	0.82	Certain	-4.84	1.5	4.0	Yes	n/a	-6.3401360544217695	n/a	n/a	n/a	ShowResult	Mixed
205.649	4.506	0.019	752.431	41.0	2	-1.0	-1.0	15.2278	70.0	0.82	Certain	-4.84	1.5	4.0	Yes	n/a	-6.3401360544217695	n/a	n/a	n/a	ISITrial	Mixed
210.179	4.0	0.024	756.961	41.0	2	-1.0	-1.0	15.2278	70.0	0.82	Certain	-4.84	1.5	4.0	Yes	n/a	-6.3401360544217695	n/a	n/a	n/a	TrialHappPreview	Mixed
214.208	4.012	0.029	760.99	41.0	2	-1.0	-1.0	15.2278	70.0	0.82	Certain	-4.84	1.5	4.0	Yes	n/a	-6.3401360544217695	n/a	n/a	276.0	TrialHappiness	Mixed
214.209	2.368	n/a	761.87	41.0	2	-1.0	-1.0	15.2278	70.0	0.82	Certain	-4.84	1.5	4.0	Yes	n/a	-6.3401360544217695	n/a	n/a	276.0	TrialHappinessSliderResponse	Mixed
218.22	8.0	4.012	765.002	41.0	2	-1.0	-1.0	15.2278	70.0	0.82	Certain	-4.84	1.5	4.0	Yes	n/a	-6.3401360544217695	n/a	n/a	n/a	ISIRate	Mixed
226.244	3.0	0.024	773.026	42.0	2	0.0	0.0	15.2278	70.0	0.4	Certain	0.72	-0.38	0.0	No	4.0	1.10336356764928	0.943	227.187	n/a	GetAnswer	Mixed
227.214	4.0	0.027	773.996	42.0	2	0.0	0.0	15.2278	70.0	0.4	Certain	0.72	-0.38	0.0	No	n/a	1.10336356764928	n/a	n/a	n/a	ShowChoice	Mixed
231.226	1.0	0.012	778.008	42.0	2	0.0	0.0	15.2278	70.0	0.4	Certain	0.72	-0.38	0.0	No	n/a	1.10336356764928	n/a	n/a	n/a	ShowResult	Mixed
232.246	6.248	0.02	779.028	42.0	2	0.0	0.0	15.2278	70.0	0.4	Certain	0.72	-0.38	0.0	No	n/a	1.10336356764928	n/a	n/a	n/a	ISITrial	Mixed
238.514	3.0	0.02	785.296	43.0	2	0.37	0.18	15.274	70.0	2.48	Outcome2	7.3	0.37	2.77575	Yes	2.0	-6.9342403628117895	1.146	239.66	n/a	GetAnswer	Gain
239.685	4.0	0.025	786.467	43.0	2	0.37	0.18	15.274	70.0	2.48	Outcome2	7.3	0.37	2.77575	Yes	n/a	-6.9342403628117895	n/a	n/a	n/a	ShowChoice	Gain
243.697	1.0	0.012	790.479	43.0	2	0.37	0.18	15.274	70.0	2.48	Outcome2	7.3	0.37	2.77575	Yes	n/a	-6.9342403628117895	n/a	n/a	n/a	ShowResult	Gain
244.716	4.596	0.019	791.498	43.0	2	0.37	0.18	15.274	70.0	2.48	Outcome2	7.3	0.37	2.77575	Yes	n/a	-6.9342403628117895	n/a	n/a	n/a	ISITrial	Gain
249.33	2.776	0.018	796.112	43.0	2	0.37	0.18	15.274	70.0	2.48	Outcome2	7.3	0.37	2.77575	Yes	n/a	-6.9342403628117895	n/a	n/a	n/a	TrialHappPreview	Gain
252.139	4.012	0.033	798.921	43.0	2	0.37	0.18	15.274	70.0	2.48	Outcome2	7.3	0.37	2.77575	Yes	n/a	-6.9342403628117895	n/a	n/a	292.0	TrialHappiness	Gain
252.139	1.005	n/a	800.2	43.0	2	0.37	0.18	15.274	70.0	2.48	Outcome2	7.3	0.37	2.77575	Yes	n/a	-6.9342403628117895	n/a	n/a	292.0	TrialHappinessSliderResponse	Gain
256.151	3.103	4.012	802.933	43.0	2	0.37	0.18	15.274	70.0	2.48	Outcome2	7.3	0.37	2.77575	Yes	n/a	-6.9342403628117895	n/a	n/a	n/a	ISIRate	Gain
259.277	3.0	0.023	806.059	44.0	2	3.06	1.53	15.6565	70.0	1.68	Outcome1	3.06	10.5	0.0	No	2.0	-7.439909297052151	1.553	260.83	n/a	GetAnswer	Loss
260.848	4.0	0.018	807.63	44.0	2	3.06	1.53	15.6565	70.0	1.68	Outcome1	3.06	10.5	0.0	No	n/a	-7.439909297052151	n/a	n/a	n/a	ShowChoice	Loss
264.86	1.0	0.012	811.642	44.0	2	3.06	1.53	15.6565	70.0	1.68	Outcome1	3.06	10.5	0.0	No	n/a	-7.439909297052151	n/a	n/a	n/a	ShowResult	Loss
265.88	2.42	0.02	812.662	44.0	2	3.06	1.53	15.6565	70.0	1.68	Outcome1	3.06	10.5	0.0	No	n/a	-7.439909297052151	n/a	n/a	n/a	ISITrial	Loss
268.32	3.0	0.02	815.102	45.0	2	-2.0	-2.0	15.4065	70.0	0.66	Certain	1.3	-6.39	0.0	No	4.0	-7.691609977324259	1.381	269.701	n/a	GetAnswer	Mixed
269.725	4.0	0.024	816.507	45.0	2	-2.0	-2.0	15.4065	70.0	0.66	Certain	1.3	-6.39	0.0	No	n/a	-7.691609977324259	n/a	n/a	n/a	ShowChoice	Mixed
273.737	1.0	0.012	820.519	45.0	2	-2.0	-2.0	15.4065	70.0	0.66	Certain	1.3	-6.39	0.0	No	n/a	-7.691609977324259	n/a	n/a	n/a	ShowResult	Mixed
274.756	3.144	0.019	821.538	45.0	2	-2.0	-2.0	15.4065	70.0	0.66	Certain	1.3	-6.39	0.0	No	n/a	-7.691609977324259	n/a	n/a	n/a	ISITrial	Mixed
277.916	3.0	0.016	824.698	46.0	2	5.36	2.68	16.0765	70.0	2.48	Outcome2	13.3	5.36	3.84125	Yes	2.0	-7.94331065759637	1.096	279.012	n/a	GetAnswer	Loss
279.036	4.0	0.024	825.818	46.0	2	5.36	2.68	16.0765	70.0	2.48	Outcome2	13.3	5.36	3.84125	Yes	n/a	-7.94331065759637	n/a	n/a	n/a	ShowChoice	Loss
283.048	1.0	0.012	829.83	46.0	2	5.36	2.68	16.0765	70.0	2.48	Outcome2	13.3	5.36	3.84125	Yes	n/a	-7.94331065759637	n/a	n/a	n/a	ShowResult	Loss
284.068	2.246	0.02	830.85	46.0	2	5.36	2.68	16.0765	70.0	2.48	Outcome2	13.3	5.36	3.84125	Yes	n/a	-7.94331065759637	n/a	n/a	n/a	ISITrial	Loss
286.324	3.841	0.01	833.106	46.0	2	5.36	2.68	16.0765	70.0	2.48	Outcome2	13.3	5.36	3.84125	Yes	n/a	-7.94331065759637	n/a	n/a	n/a	TrialHappPreview	Loss
290.186	4.012	0.021	836.968	46.0	2	5.36	2.68	16.0765	70.0	2.48	Outcome2	13.3	5.36	3.84125	Yes	n/a	-7.94331065759637	n/a	n/a	284.0	TrialHappiness	Loss
290.186	2.327	n/a	837.599	46.0	2	5.36	2.68	16.0765	70.0	2.48	Outcome2	13.3	5.36	3.84125	Yes	n/a	-7.94331065759637	n/a	n/a	284.0	TrialHappinessSliderResponse	Loss
294.198	7.365	4.012	840.98	46.0	2	5.36	2.68	16.0765	70.0	2.48	Outcome2	13.3	5.36	3.84125	Yes	n/a	-7.94331065759637	n/a	n/a	n/a	ISIRate	Loss
301.587	3.0	0.024	848.369	47.0	2	2.17	1.0	16.3477	70.0	1.82	Outcome2	0.93	2.17	0.0	No	2.0	1.23771730914588	1.102	302.689	n/a	GetAnswer	Gain
302.707	4.0	0.018	849.489	47.0	2	2.17	1.0	16.3477	70.0	1.82	Outcome2	0.93	2.17	0.0	No	n/a	1.23771730914588	n/a	n/a	n/a	ShowChoice	Gain
306.719	1.0	0.012	853.501	47.0	2	2.17	1.0	16.3477	70.0	1.82	Outcome2	0.93	2.17	0.0	No	n/a	1.23771730914588	n/a	n/a	n/a	ShowResult	Gain
307.738	2.0	0.019	854.52	47.0	2	2.17	1.0	16.3477	70.0	1.82	Outcome2	0.93	2.17	0.0	No	n/a	1.23771730914588	n/a	n/a	n/a	ISITrial	Gain
309.761	3.0	0.023	856.543	48.0	2	5.6	2.8	17.0477	70.0	3.6	Outcome1	5.6	13.9	2.83175	Yes	2.0	-8.3015873015873	1.889	311.65	n/a	GetAnswer	Loss
311.667	4.0	0.017	858.449	48.0	2	5.6	2.8	17.0477	70.0	3.6	Outcome1	5.6	13.9	2.83175	Yes	n/a	-8.3015873015873	n/a	n/a	n/a	ShowChoice	Loss
315.679	1.0	0.012	862.461	48.0	2	5.6	2.8	17.0477	70.0	3.6	Outcome1	5.6	13.9	2.83175	Yes	n/a	-8.3015873015873	n/a	n/a	n/a	ShowResult	Loss
316.699	3.692	0.02	863.481	48.0	2	5.6	2.8	17.0477	70.0	3.6	Outcome1	5.6	13.9	2.83175	Yes	n/a	-8.3015873015873	n/a	n/a	n/a	ISITrial	Loss
320.41	2.832	0.019	867.192	48.0	2	5.6	2.8	17.0477	70.0	3.6	Outcome1	5.6	13.9	2.83175	Yes	n/a	-8.3015873015873	n/a	n/a	n/a	TrialHappPreview	Loss
323.268	4.012	0.026	870.05	48.0	2	5.6	2.8	17.0477	70.0	3.6	Outcome1	5.6	13.9	2.83175	Yes	n/a	-8.3015873015873	n/a	n/a	276.0	TrialHappiness	Loss
323.269	1.072	n/a	870.359	48.0	2	5.6	2.8	17.0477	70.0	3.6	Outcome1	5.6	13.9	2.83175	Yes	n/a	-8.3015873015873	n/a	n/a	276.0	TrialHappinessSliderResponse	Loss
327.28	3.327	4.012	874.062	48.0	2	5.6	2.8	17.0477	70.0	3.6	Outcome1	5.6	13.9	2.83175	Yes	n/a	-8.3015873015873	n/a	n/a	n/a	ISIRate	Loss
330.624	3.0	0.017	877.406	49.0	2	-1.0	-1.0	16.9227	70.0	0.66	Certain	-1.43	-0.18	0.0	No	4.0	1.24565381708239	1.158	331.782	n/a	GetAnswer	Mixed
331.794	4.0	0.012	878.576	49.0	2	-1.0	-1.0	16.9227	70.0	0.66	Certain	-1.43	-0.18	0.0	No	n/a	1.24565381708239	n/a	n/a	n/a	ShowChoice	Mixed
335.806	1.0	0.012	882.588	49.0	2	-1.0	-1.0	16.9227	70.0	0.66	Certain	-1.43	-0.18	0.0	No	n/a	1.24565381708239	n/a	n/a	n/a	ShowResult	Mixed
336.826	8.0	0.02	883.608	49.0	2	-1.0	-1.0	16.9227	70.0	0.66	Certain	-1.43	-0.18	0.0	No	n/a	1.24565381708239	n/a	n/a	n/a	ISITrial	Mixed
344.85	3.0	0.024	891.632	50.0	2	2.42	2.0	17.2252	70.0	3.16	Outcome1	2.42	1.15	3.54725	Yes	2.0	1.2651171579743	1.246	346.096	n/a	GetAnswer	Gain
346.12	4.0	0.024	892.902	50.0	2	2.42	2.0	17.2252	70.0	3.16	Outcome1	2.42	1.15	3.54725	Yes	n/a	1.2651171579743	n/a	n/a	n/a	ShowChoice	Gain
350.132	1.0	0.012	896.914	50.0	2	2.42	2.0	17.2252	70.0	3.16	Outcome1	2.42	1.15	3.54725	Yes	n/a	1.2651171579743	n/a	n/a	n/a	ShowResult	Gain
351.152	7.537	0.02	897.934	50.0	2	2.42	2.0	17.2252	70.0	3.16	Outcome1	2.42	1.15	3.54725	Yes	n/a	1.2651171579743	n/a	n/a	n/a	ISITrial	Gain
358.708	3.547	0.019	905.49	50.0	2	2.42	2.0	17.2252	70.0	3.16	Outcome1	2.42	1.15	3.54725	Yes	n/a	1.2651171579743	n/a	n/a	n/a	TrialHappPreview	Gain
362.285	4.012	0.03	909.067	50.0	2	2.42	2.0	17.2252	70.0	3.16	Outcome1	2.42	1.15	3.54725	Yes	n/a	1.2651171579743	n/a	n/a	292.0	TrialHappiness	Gain
362.286	1.463	n/a	909.369	50.0	2	2.42	2.0	17.2252	70.0	3.16	Outcome1	2.42	1.15	3.54725	Yes	n/a	1.2651171579743	n/a	n/a	292.0	TrialHappinessSliderResponse	Gain
366.297	6.189	4.012	913.079	50.0	2	2.42	2.0	17.2252	70.0	3.16	Outcome1	2.42	1.15	3.54725	Yes	n/a	1.2651171579743	n/a	n/a	n/a	ISIRate	Gain
372.516	3.0	0.03	919.298	51.0	2	-4.0	-4.0	16.7252	70.0	1.2	Certain	-0.1	-9.25	0.0	No	4.0	-9.14739229024943	1.221	373.737	n/a	GetAnswer	Mixed
373.753	4.0	0.016	920.535	51.0	2	-4.0	-4.0	16.7252	70.0	1.2	Certain	-0.1	-9.25	0.0	No	n/a	-9.14739229024943	n/a	n/a	n/a	ShowChoice	Mixed
377.765	1.0	0.012	924.547	51.0	2	-4.0	-4.0	16.7252	70.0	1.2	Certain	-0.1	-9.25	0.0	No	n/a	-9.14739229024943	n/a	n/a	n/a	ShowResult	Mixed
378.785	5.508	0.02	925.567	51.0	2	-4.0	-4.0	16.7252	70.0	1.2	Certain	-0.1	-9.25	0.0	No	n/a	-9.14739229024943	n/a	n/a	n/a	ISITrial	Mixed
384.318	3.0	0.025	931.1	52.0	2	1.3	0.65	16.8877	70.0	1.82	Outcome1	1.3	10.7	0.0	No	2.0	-9.39909297052154	1.165	385.483	n/a	GetAnswer	Loss
385.505	4.0	0.022	932.287	52.0	2	1.3	0.65	16.8877	70.0	1.82	Outcome1	1.3	10.7	0.0	No	n/a	-9.39909297052154	n/a	n/a	n/a	ShowChoice	Loss
389.517	1.0	0.012	936.299	52.0	2	1.3	0.65	16.8877	70.0	1.82	Outcome1	1.3	10.7	0.0	No	n/a	-9.39909297052154	n/a	n/a	n/a	ShowResult	Loss
390.537	5.913	0.02	937.319	52.0	2	1.3	0.65	16.8877	70.0	1.82	Outcome1	1.3	10.7	0.0	No	n/a	-9.39909297052154	n/a	n/a	n/a	ISITrial	Loss
396.471	3.0	0.021	943.253	53.0	2	-6.0	-6.0	16.1377	70.0	0.2	Certain	-1.5	-11.15	2.99675	Yes	4.0	-9.65079365079365	1.451	397.922	n/a	GetAnswer	Mixed
397.942	4.0	0.02	944.724	53.0	2	-6.0	-6.0	16.1377	70.0	0.2	Certain	-1.5	-11.15	2.99675	Yes	n/a	-9.65079365079365	n/a	n/a	n/a	ShowChoice	Mixed
401.954	1.0	0.012	948.736	53.0	2	-6.0	-6.0	16.1377	70.0	0.2	Certain	-1.5	-11.15	2.99675	Yes	n/a	-9.65079365079365	n/a	n/a	n/a	ShowResult	Mixed
402.974	3.66	0.02	949.756	53.0	2	-6.0	-6.0	16.1377	70.0	0.2	Certain	-1.5	-11.15	2.99675	Yes	n/a	-9.65079365079365	n/a	n/a	n/a	ISITrial	Mixed
406.652	2.997	0.018	953.434	53.0	2	-6.0	-6.0	16.1377	70.0	0.2	Certain	-1.5	-11.15	2.99675	Yes	n/a	-9.65079365079365	n/a	n/a	n/a	TrialHappPreview	Mixed
409.677	4.012	0.028	956.459	53.0	2	-6.0	-6.0	16.1377	70.0	0.2	Certain	-1.5	-11.15	2.99675	Yes	n/a	-9.65079365079365	n/a	n/a	280.0	TrialHappiness	Mixed
409.678	0.92	n/a	956.766	53.0	2	-6.0	-6.0	16.1377	70.0	0.2	Certain	-1.5	-11.15	2.99675	Yes	n/a	-9.65079365079365	n/a	n/a	280.0	TrialHappinessSliderResponse	Mixed
413.689	3.987	4.012	960.471	53.0	2	-6.0	-6.0	16.1377	70.0	0.2	Certain	-1.5	-11.15	2.99675	Yes	n/a	-9.65079365079365	n/a	n/a	n/a	ISIRate	Mixed
417.701	3.0	0.025	964.483	54.0	2	0.0	0.0	16.1377	70.0	1.68	Certain	4.5	-5.2	0.0	No	4.0	-9.6984126984127	1.442	419.143	n/a	GetAnswer	Gain
419.156	4.0	0.013	965.938	54.0	2	0.0	0.0	16.1377	70.0	1.68	Certain	4.5	-5.2	0.0	No	n/a	-9.6984126984127	n/a	n/a	n/a	ShowChoice	Gain
423.168	1.0	0.012	969.95	54.0	2	0.0	0.0	16.1377	70.0	1.68	Certain	4.5	-5.2	0.0	No	n/a	-9.6984126984127	n/a	n/a	n/a	ShowResult	Gain
424.187	8.0	0.019	970.969	54.0	2	0.0	0.0	16.1377	70.0	1.68	Certain	4.5	-5.2	0.0	No	n/a	-9.6984126984127	n/a	n/a	n/a	ISITrial	Gain
487.879	1.628	n/a	1034.927	n/a	2	n/a	n/a	n/a	n/a	n/a	n/a	n/a	n/a	n/a	n/a	n/a	n/a	n/a	n/a	332.0	BlockStartHappinessSliderResponse	n/a
-65.864	-0.001	0.024	978.993	n/a	3	n/a	n/a	n/a	n/a	n/a	n/a	n/a	n/a	n/a	n/a	{SPACE}	n/a	51.628	-14.236	n/a	Rest	n/a
-14.209	4.0	0.027	1030.648	n/a	3	n/a	n/a	n/a	n/a	n/a	n/a	n/a	n/a	n/a	n/a	n/a	n/a	n/a	n/a	n/a	BlockHappyPreview	n/a
-10.197	1.894	0.012	1034.66	n/a	3	n/a	n/a	n/a	n/a	n/a	n/a	n/a	n/a	n/a	n/a	n/a	n/a	n/a	n/a	332.0	BlockStartHappiness	n/a
-3.544	-0.001	0.021	1041.313	n/a	3	n/a	n/a	n/a	n/a	n/a	n/a	n/a	n/a	n/a	n/a	5.0	n/a	3.52	-0.024	n/a	ScanWait	n/a
0.0	10.0	0.024	1044.857	n/a	3	n/a	n/a	n/a	n/a	n/a	n/a	n/a	n/a	n/a	n/a	n/a	n/a	n/a	n/a	n/a	GetReady	n/a
10.014	3.0	0.014	1054.871	55.0	3	2.17	1.08	16.4089	955.0	1.82	Outcome1	2.17	4.7	2.53325	Yes	2.0	-2.52821819554549	0.99	11.004	n/a	GetAnswer	Gain
11.017	4.0	0.013	1055.874	55.0	3	2.17	1.08	16.4089	955.0	1.82	Outcome1	2.17	4.7	2.53325	Yes	n/a	-2.52821819554549	n/a	n/a	n/a	ShowChoice	Gain
15.029	1.0	0.012	1059.886	55.0	3	2.17	1.08	16.4089	955.0	1.82	Outcome1	2.17	4.7	2.53325	Yes	n/a	-2.52821819554549	n/a	n/a	n/a	ShowResult	Gain
16.049	7.709	0.02	1060.906	55.0	3	2.17	1.08	16.4089	955.0	1.82	Outcome1	2.17	4.7	2.53325	Yes	n/a	-2.52821819554549	n/a	n/a	n/a	ISITrial	Gain
23.772	2.533	0.014	1068.629	55.0	3	2.17	1.08	16.4089	955.0	1.82	Outcome1	2.17	4.7	2.53325	Yes	n/a	-2.52821819554549	n/a	n/a	n/a	TrialHappPreview	Gain
26.329	4.012	0.024	1071.186	55.0	3	2.17	1.08	16.4089	955.0	1.82	Outcome1	2.17	4.7	2.53325	Yes	n/a	-2.52821819554549	n/a	n/a	328.0	TrialHappiness	Gain
26.33	2.661	n/a	1071.665	55.0	3	2.17	1.08	16.4089	955.0	1.82	Outcome1	2.17	4.7	2.53325	Yes	n/a	-2.52821819554549	n/a	n/a	328.0	TrialHappinessSliderResponse	Gain
30.341	2.133	4.012	1075.198	55.0	3	2.17	1.08	16.4089	955.0	1.82	Outcome1	2.17	4.7	2.53325	Yes	n/a	-2.52821819554549	n/a	n/a	n/a	ISIRate	Gain
32.498	3.0	0.024	1077.355	56.0	3	4.1	2.05	16.9214	955.0	1.82	Outcome2	6.7	4.1	0.0	No	2.0	-2.60324650811627	1.117	33.615	n/a	GetAnswer	Gain
33.635	4.0	0.02	1078.492	56.0	3	4.1	2.05	16.9214	955.0	1.82	Outcome2	6.7	4.1	0.0	No	n/a	-2.60324650811627	n/a	n/a	n/a	ShowChoice	Gain
37.647	1.0	0.012	1082.504	56.0	3	4.1	2.05	16.9214	955.0	1.82	Outcome2	6.7	4.1	0.0	No	n/a	-2.60324650811627	n/a	n/a	n/a	ShowResult	Gain
38.666	4.697	0.019	1083.523	56.0	3	4.1	2.05	16.9214	955.0	1.82	Outcome2	6.7	4.1	0.0	No	n/a	-2.60324650811627	n/a	n/a	n/a	ISITrial	Gain
43.38	3.0	0.017	1088.237	57.0	3	0.0	0.0	16.9214	955.0	0.4	Certain	0.9	-1.76	0.0	No	4.0	-2.6624197810494503	0.858	44.238	n/a	GetAnswer	Mixed
44.25	4.0	0.012	1089.107	57.0	3	0.0	0.0	16.9214	955.0	0.4	Certain	0.9	-1.76	0.0	No	n/a	-2.6624197810494503	n/a	n/a	n/a	ShowChoice	Mixed
48.262	1.0	0.012	1093.119	57.0	3	0.0	0.0	16.9214	955.0	0.4	Certain	0.9	-1.76	0.0	No	n/a	-2.6624197810494503	n/a	n/a	n/a	ShowResult	Mixed
49.281	4.291	0.019	1094.138	57.0	3	0.0	0.0	16.9214	955.0	0.4	Certain	0.9	-1.76	0.0	No	n/a	-2.6624197810494503	n/a	n/a	n/a	ISITrial	Mixed
53.594	3.0	0.022	1098.451	58.0	3	-6.0	-6.0	16.1714	955.0	1.5	Certain	-12.68	0.1	3.04575	Yes	4.0	12.7768969422424	0.662	54.256	n/a	GetAnswer	Mixed
54.28	4.0	0.024	1099.137	58.0	3	-6.0	-6.0	16.1714	955.0	1.5	Certain	-12.68	0.1	3.04575	Yes	n/a	12.7768969422424	n/a	n/a	n/a	ShowChoice	Mixed
58.292	1.0	0.012	1103.149	58.0	3	-6.0	-6.0	16.1714	955.0	1.5	Certain	-12.68	0.1	3.04575	Yes	n/a	12.7768969422424	n/a	n/a	n/a	ShowResult	Mixed
59.311	2.037	0.019	1104.168	58.0	3	-6.0	-6.0	16.1714	955.0	1.5	Certain	-12.68	0.1	3.04575	Yes	n/a	12.7768969422424	n/a	n/a	n/a	ISITrial	Mixed
61.368	3.046	0.02	1106.225	58.0	3	-6.0	-6.0	16.1714	955.0	1.5	Certain	-12.68	0.1	3.04575	Yes	n/a	12.7768969422424	n/a	n/a	n/a	TrialHappPreview	Mixed
64.444	4.012	0.03	1109.301	58.0	3	-6.0	-6.0	16.1714	955.0	1.5	Certain	-12.68	0.1	3.04575	Yes	n/a	12.7768969422424	n/a	n/a	344.0	TrialHappiness	Mixed
64.444	0.88	n/a	1109.982	58.0	3	-6.0	-6.0	16.1714	955.0	1.5	Certain	-12.68	0.1	3.04575	Yes	n/a	12.7768969422424	n/a	n/a	344.0	TrialHappinessSliderResponse	Mixed
68.456	4.183	4.012	1113.313	58.0	3	-6.0	-6.0	16.1714	955.0	1.5	Certain	-12.68	0.1	3.04575	Yes	n/a	12.7768969422424	n/a	n/a	n/a	ISIRate	Mixed
72.668	3.0	0.029	1117.525	59.0	3	-0.26	-0.26	16.1389	955.0	1.82	Certain	12.7	-0.52	0.0	No	4.0	13.2151755379388	0.787	73.455	n/a	GetAnswer	Loss
73.471	4.0	0.016	1118.328	59.0	3	-0.26	-0.26	16.1389	955.0	1.82	Certain	12.7	-0.52	0.0	No	n/a	13.2151755379388	n/a	n/a	n/a	ShowChoice	Loss
77.483	1.0	0.012	1122.34	59.0	3	-0.26	-0.26	16.1389	955.0	1.82	Certain	12.7	-0.52	0.0	No	n/a	13.2151755379388	n/a	n/a	n/a	ShowResult	Loss
78.502	5.064	0.019	1123.359	59.0	3	-0.26	-0.26	16.1389	955.0	1.82	Certain	12.7	-0.52	0.0	No	n/a	13.2151755379388	n/a	n/a	n/a	ISITrial	Loss
83.584	3.0	0.018	1128.441	60.0	3	10.9	-1.5	17.5014	955.0	2.0	Outcome1	10.9	-3.01	3.5625	Yes	2.0	13.9071347678369	1.354	84.938	n/a	GetAnswer	Loss
84.955	4.0	0.017	1129.812	60.0	3	10.9	-1.5	17.5014	955.0	2.0	Outcome1	10.9	-3.01	3.5625	Yes	n/a	13.9071347678369	n/a	n/a	n/a	ShowChoice	Loss
88.967	1.0	0.012	1133.824	60.0	3	10.9	-1.5	17.5014	955.0	2.0	Outcome1	10.9	-3.01	3.5625	Yes	n/a	13.9071347678369	n/a	n/a	n/a	ShowResult	Loss
89.987	8.0	0.02	1134.844	60.0	3	10.9	-1.5	17.5014	955.0	2.0	Outcome1	10.9	-3.01	3.5625	Yes	n/a	13.9071347678369	n/a	n/a	n/a	ISITrial	Loss
98.011	3.562	0.024	1142.868	60.0	3	10.9	-1.5	17.5014	955.0	2.0	Outcome1	10.9	-3.01	3.5625	Yes	n/a	13.9071347678369	n/a	n/a	n/a	TrialHappPreview	Loss
101.588	4.012	0.015	1146.445	60.0	3	10.9	-1.5	17.5014	955.0	2.0	Outcome1	10.9	-3.01	3.5625	Yes	n/a	13.9071347678369	n/a	n/a	360.0	TrialHappiness	Loss
101.589	1.661	n/a	1147.069	60.0	3	10.9	-1.5	17.5014	955.0	2.0	Outcome1	10.9	-3.01	3.5625	Yes	n/a	13.9071347678369	n/a	n/a	360.0	TrialHappinessSliderResponse	Loss
105.6	6.25	4.012	1150.457	60.0	3	10.9	-1.5	17.5014	955.0	2.0	Outcome1	10.9	-3.01	3.5625	Yes	n/a	13.9071347678369	n/a	n/a	n/a	ISIRate	Loss
111.869	3.0	0.019	1156.726	61.0	3	6.73	3.36	18.3426	955.0	2.8	Outcome1	6.73	9.5	0.0	No	2.0	-2.7662325405813504	1.102	112.971	n/a	GetAnswer	Gain
112.989	4.0	0.018	1157.846	61.0	3	6.73	3.36	18.3426	955.0	2.8	Outcome1	6.73	9.5	0.0	No	n/a	-2.7662325405813504	n/a	n/a	n/a	ShowChoice	Gain
117.001	1.0	0.012	1161.858	61.0	3	6.73	3.36	18.3426	955.0	2.8	Outcome1	6.73	9.5	0.0	No	n/a	-2.7662325405813504	n/a	n/a	n/a	ShowResult	Gain
118.021	4.586	0.02	1162.878	61.0	3	6.73	3.36	18.3426	955.0	2.8	Outcome1	6.73	9.5	0.0	No	n/a	-2.7662325405813504	n/a	n/a	n/a	ISITrial	Gain
122.635	3.0	0.028	1167.492	62.0	3	1.0	1.0	18.4676	955.0	2.0	Certain	2.3	-0.52	3.74875	Yes	4.0	-2.82238580596451	1.599	124.234	n/a	GetAnswer	Mixed
124.256	4.0	0.022	1169.113	62.0	3	1.0	1.0	18.4676	955.0	2.0	Certain	2.3	-0.52	3.74875	Yes	n/a	-2.82238580596451	n/a	n/a	n/a	ShowChoice	Mixed
128.268	1.0	0.012	1173.125	62.0	3	1.0	1.0	18.4676	955.0	2.0	Certain	2.3	-0.52	3.74875	Yes	n/a	-2.82238580596451	n/a	n/a	n/a	ShowResult	Mixed
129.288	5.212	0.02	1174.145	62.0	3	1.0	1.0	18.4676	955.0	2.0	Certain	2.3	-0.52	3.74875	Yes	n/a	-2.82238580596451	n/a	n/a	n/a	ISITrial	Mixed
134.52	3.749	0.02	1179.377	62.0	3	1.0	1.0	18.4676	955.0	2.0	Certain	2.3	-0.52	3.74875	Yes	n/a	-2.82238580596451	n/a	n/a	n/a	TrialHappPreview	Mixed
138.298	4.012	0.029	1183.155	62.0	3	1.0	1.0	18.4676	955.0	2.0	Certain	2.3	-0.52	3.74875	Yes	n/a	-2.82238580596451	n/a	n/a	356.0	TrialHappiness	Mixed
138.299	0.794	n/a	1183.974	62.0	3	1.0	1.0	18.4676	955.0	2.0	Certain	2.3	-0.52	3.74875	Yes	n/a	-2.82238580596451	n/a	n/a	356.0	TrialHappinessSliderResponse	Mixed
142.31	6.995	4.012	1187.167	62.0	3	1.0	1.0	18.4676	955.0	2.0	Certain	2.3	-0.52	3.74875	Yes	n/a	-2.82238580596451	n/a	n/a	n/a	ISIRate	Mixed
149.331	3.0	0.026	1194.188	63.0	3	-4.0	-4.0	17.9676	955.0	0.82	Certain	3.5	-12.24	0.0	No	4.0	15.7429218573046	1.516	150.847	n/a	GetAnswer	Mixed
150.869	4.0	0.022	1195.726	63.0	3	-4.0	-4.0	17.9676	955.0	0.82	Certain	3.5	-12.24	0.0	No	n/a	15.7429218573046	n/a	n/a	n/a	ShowChoice	Mixed
154.881	1.0	0.012	1199.738	63.0	3	-4.0	-4.0	17.9676	955.0	0.82	Certain	3.5	-12.24	0.0	No	n/a	15.7429218573046	n/a	n/a	n/a	ShowResult	Mixed
155.901	5.595	0.02	1200.758	63.0	3	-4.0	-4.0	17.9676	955.0	0.82	Certain	3.5	-12.24	0.0	No	n/a	15.7429218573046	n/a	n/a	n/a	ISITrial	Mixed
161.518	3.0	0.022	1206.375	64.0	3	-1.96	-1.96	17.7226	955.0	1.68	Certain	-3.92	12.5	0.0	No	4.0	16.4212910532276	0.698	162.216	n/a	GetAnswer	Loss
162.237	4.0	0.021	1207.094	64.0	3	-1.96	-1.96	17.7226	955.0	1.68	Certain	-3.92	12.5	0.0	No	n/a	16.4212910532276	n/a	n/a	n/a	ShowChoice	Loss
166.249	1.0	0.012	1211.106	64.0	3	-1.96	-1.96	17.7226	955.0	1.68	Certain	-3.92	12.5	0.0	No	n/a	16.4212910532276	n/a	n/a	n/a	ShowResult	Loss
167.268	5.47	0.019	1212.125	64.0	3	-1.96	-1.96	17.7226	955.0	1.68	Certain	-3.92	12.5	0.0	No	n/a	16.4212910532276	n/a	n/a	n/a	ISITrial	Loss
172.768	3.0	0.03	1217.625	65.0	3	-5.0	-5.0	17.0976	955.0	0.66	Certain	-13.8	3.3	2.99675	Yes	4.0	17.0996602491506	0.902	173.67	n/a	GetAnswer	Mixed
173.688	4.0	0.018	1218.545	65.0	3	-5.0	-5.0	17.0976	955.0	0.66	Certain	-13.8	3.3	2.99675	Yes	n/a	17.0996602491506	n/a	n/a	n/a	ShowChoice	Mixed
177.7	1.0	0.012	1222.557	65.0	3	-5.0	-5.0	17.0976	955.0	0.66	Certain	-13.8	3.3	2.99675	Yes	n/a	17.0996602491506	n/a	n/a	n/a	ShowResult	Mixed
178.719	3.344	0.019	1223.576	65.0	3	-5.0	-5.0	17.0976	955.0	0.66	Certain	-13.8	3.3	2.99675	Yes	n/a	17.0996602491506	n/a	n/a	n/a	ISITrial	Mixed
182.079	2.997	0.016	1226.936	65.0	3	-5.0	-5.0	17.0976	955.0	0.66	Certain	-13.8	3.3	2.99675	Yes	n/a	17.0996602491506	n/a	n/a	n/a	TrialHappPreview	Mixed
185.105	4.012	0.029	1229.962	65.0	3	-5.0	-5.0	17.0976	955.0	0.66	Certain	-13.8	3.3	2.99675	Yes	n/a	17.0996602491506	n/a	n/a	348.0	TrialHappiness	Mixed
185.106	1.048	n/a	1230.428	65.0	3	-5.0	-5.0	17.0976	955.0	0.66	Certain	-13.8	3.3	2.99675	Yes	n/a	17.0996602491506	n/a	n/a	348.0	TrialHappinessSliderResponse	Mixed
189.117	3.987	4.012	1233.974	65.0	3	-5.0	-5.0	17.0976	955.0	0.66	Certain	-13.8	3.3	2.99675	Yes	n/a	17.0996602491506	n/a	n/a	n/a	ISIRate	Mixed
193.129	3.0	0.025	1237.986	66.0	3	-6.0	-6.0	16.3476	955.0	0.2	Certain	2.5	-15.41	0.0	No	4.0	17.9139297848245	1.121	194.25	n/a	GetAnswer	Mixed
194.266	4.0	0.016	1239.123	66.0	3	-6.0	-6.0	16.3476	955.0	0.2	Certain	2.5	-15.41	0.0	No	n/a	17.9139297848245	n/a	n/a	n/a	ShowChoice	Mixed
198.278	1.0	0.012	1243.135	66.0	3	-6.0	-6.0	16.3476	955.0	0.2	Certain	2.5	-15.41	0.0	No	n/a	17.9139297848245	n/a	n/a	n/a	ShowResult	Mixed
199.298	3.959	0.02	1244.155	66.0	3	-6.0	-6.0	16.3476	955.0	0.2	Certain	2.5	-15.41	0.0	No	n/a	17.9139297848245	n/a	n/a	n/a	ISITrial	Mixed
203.276	3.0	0.019	1248.133	67.0	3	-2.0	-2.0	16.0976	955.0	0.4	Certain	-4.25	-1.1	2.9185	Yes	4.0	-3.1541147602869	1.037	204.313	n/a	GetAnswer	Mixed
204.329	4.0	0.016	1249.186	67.0	3	-2.0	-2.0	16.0976	955.0	0.4	Certain	-4.25	-1.1	2.9185	Yes	n/a	-3.1541147602869	n/a	n/a	n/a	ShowChoice	Mixed
208.341	1.0	0.012	1253.198	67.0	3	-2.0	-2.0	16.0976	955.0	0.4	Certain	-4.25	-1.1	2.9185	Yes	n/a	-3.1541147602869	n/a	n/a	n/a	ShowResult	Mixed
209.361	4.199	0.02	1254.218	67.0	3	-2.0	-2.0	16.0976	955.0	0.4	Certain	-4.25	-1.1	2.9185	Yes	n/a	-3.1541147602869	n/a	n/a	n/a	ISITrial	Mixed
213.574	2.918	0.014	1258.431	67.0	3	-2.0	-2.0	16.0976	955.0	0.4	Certain	-4.25	-1.1	2.9185	Yes	n/a	-3.1541147602869	n/a	n/a	n/a	TrialHappPreview	Mixed
216.516	4.012	0.024	1261.373	67.0	3	-2.0	-2.0	16.0976	955.0	0.4	Certain	-4.25	-1.1	2.9185	Yes	n/a	-3.1541147602869	n/a	n/a	352.0	TrialHappiness	Mixed
216.517	1.284	n/a	1261.687	67.0	3	-2.0	-2.0	16.0976	955.0	0.4	Certain	-4.25	-1.1	2.9185	Yes	n/a	-3.1541147602869	n/a	n/a	352.0	TrialHappinessSliderResponse	Mixed
220.528	3.674	4.012	1265.385	67.0	3	-2.0	-2.0	16.0976	955.0	0.4	Certain	-4.25	-1.1	2.9185	Yes	n/a	-3.1541147602869	n/a	n/a	n/a	ISIRate	Mixed
224.222	3.0	0.02	1269.079	68.0	3	-4.0	-4.0	15.5976	955.0	2.22	Certain	-14.12	5.1	0.0	No	4.0	19.2208380520951	0.975	225.197	n/a	GetAnswer	Gain
225.209	4.0	0.012	1270.066	68.0	3	-4.0	-4.0	15.5976	955.0	2.22	Certain	-14.12	5.1	0.0	No	n/a	19.2208380520951	n/a	n/a	n/a	ShowChoice	Gain
229.221	1.0	0.012	1274.078	68.0	3	-4.0	-4.0	15.5976	955.0	2.22	Certain	-14.12	5.1	0.0	No	n/a	19.2208380520951	n/a	n/a	n/a	ShowResult	Gain
230.24	2.185	0.019	1275.097	68.0	3	-4.0	-4.0	15.5976	955.0	2.22	Certain	-14.12	5.1	0.0	No	n/a	19.2208380520951	n/a	n/a	n/a	ISITrial	Gain
232.447	3.0	0.022	1277.304	69.0	3	-1.0	-1.0	15.4726	955.0	2.22	Certain	9.1	-10.8	0.0	No	4.0	19.903737259343103	1.154	233.601	n/a	GetAnswer	Gain
233.617	4.0	0.016	1278.474	69.0	3	-1.0	-1.0	15.4726	955.0	2.22	Certain	9.1	-10.8	0.0	No	n/a	19.903737259343103	n/a	n/a	n/a	ShowChoice	Gain
237.629	1.0	0.012	1282.486	69.0	3	-1.0	-1.0	15.4726	955.0	2.22	Certain	9.1	-10.8	0.0	No	n/a	19.903737259343103	n/a	n/a	n/a	ShowResult	Gain
238.649	2.0	0.02	1283.506	69.0	3	-1.0	-1.0	15.4726	955.0	2.22	Certain	9.1	-10.8	0.0	No	n/a	19.903737259343103	n/a	n/a	n/a	ISITrial	Gain
240.672	3.0	0.023	1285.529	70.0	3	1.59	0.8	15.6714	955.0	2.0	Outcome2	4.9	1.59	3.65125	Yes	2.0	-3.30898452246131	1.363	242.035	n/a	GetAnswer	Gain
242.059	4.0	0.024	1286.916	70.0	3	1.59	0.8	15.6714	955.0	2.0	Outcome2	4.9	1.59	3.65125	Yes	n/a	-3.30898452246131	n/a	n/a	n/a	ShowChoice	Gain
246.071	1.0	0.012	1290.928	70.0	3	1.59	0.8	15.6714	955.0	2.0	Outcome2	4.9	1.59	3.65125	Yes	n/a	-3.30898452246131	n/a	n/a	n/a	ShowResult	Gain
247.091	2.623	0.02	1291.948	70.0	3	1.59	0.8	15.6714	955.0	2.0	Outcome2	4.9	1.59	3.65125	Yes	n/a	-3.30898452246131	n/a	n/a	n/a	ISITrial	Gain
249.732	3.651	0.018	1294.589	70.0	3	1.59	0.8	15.6714	955.0	2.0	Outcome2	4.9	1.59	3.65125	Yes	n/a	-3.30898452246131	n/a	n/a	n/a	TrialHappPreview	Gain
253.41	4.012	0.027	1298.267	70.0	3	1.59	0.8	15.6714	955.0	2.0	Outcome2	4.9	1.59	3.65125	Yes	n/a	-3.30898452246131	n/a	n/a	364.0	TrialHappiness	Gain
253.41	2.605	n/a	1298.561	70.0	3	1.59	0.8	15.6714	955.0	2.0	Outcome2	4.9	1.59	3.65125	Yes	n/a	-3.30898452246131	n/a	n/a	364.0	TrialHappinessSliderResponse	Gain
257.422	6.605	4.012	1302.279	70.0	3	1.59	0.8	15.6714	955.0	2.0	Outcome2	4.9	1.59	3.65125	Yes	n/a	-3.30898452246131	n/a	n/a	n/a	ISIRate	Gain
264.058	3.0	0.031	1308.915	71.0	3	2.58	1.29	15.9939	955.0	3.6	Outcome1	2.58	5.9	0.0	No	2.0	-3.31719516798792	0.913	264.971	n/a	GetAnswer	Gain
264.994	4.0	0.023	1309.851	71.0	3	2.58	1.29	15.9939	955.0	3.6	Outcome1	2.58	5.9	0.0	No	n/a	-3.31719516798792	n/a	n/a	n/a	ShowChoice	Gain
269.006	1.0	0.012	1313.863	71.0	3	2.58	1.29	15.9939	955.0	3.6	Outcome1	2.58	5.9	0.0	No	n/a	-3.31719516798792	n/a	n/a	n/a	ShowResult	Gain
270.026	5.499	0.02	1314.883	71.0	3	2.58	1.29	15.9939	955.0	3.6	Outcome1	2.58	5.9	0.0	No	n/a	-3.31719516798792	n/a	n/a	n/a	ISITrial	Gain
275.543	3.0	0.018	1320.4	72.0	3	0.0	0.0	15.9939	955.0	1.2	Certain	1.9	-1.47	3.0805	Yes	4.0	-3.37297093242733	0.976	276.519	n/a	GetAnswer	Mixed
276.529	4.0	0.01	1321.386	72.0	3	0.0	0.0	15.9939	955.0	1.2	Certain	1.9	-1.47	3.0805	Yes	n/a	-3.37297093242733	n/a	n/a	n/a	ShowChoice	Mixed
280.541	1.0	0.012	1325.398	72.0	3	0.0	0.0	15.9939	955.0	1.2	Certain	1.9	-1.47	3.0805	Yes	n/a	-3.37297093242733	n/a	n/a	n/a	ShowResult	Mixed
281.561	5.672	0.02	1326.418	72.0	3	0.0	0.0	15.9939	955.0	1.2	Certain	1.9	-1.47	3.0805	Yes	n/a	-3.37297093242733	n/a	n/a	n/a	ISITrial	Mixed
287.244	3.08	0.011	1332.101	72.0	3	0.0	0.0	15.9939	955.0	1.2	Certain	1.9	-1.47	3.0805	Yes	n/a	-3.37297093242733	n/a	n/a	n/a	TrialHappPreview	Mixed
290.354	4.012	0.03	1335.211	72.0	3	0.0	0.0	15.9939	955.0	1.2	Certain	1.9	-1.47	3.0805	Yes	n/a	-3.37297093242733	n/a	n/a	340.0	TrialHappiness	Mixed
290.354	1.329	n/a	1335.97	72.0	3	0.0	0.0	15.9939	955.0	1.2	Certain	1.9	-1.47	3.0805	Yes	n/a	-3.37297093242733	n/a	n/a	340.0	TrialHappinessSliderResponse	Mixed
294.366	4.322	4.012	1339.223	72.0	3	0.0	0.0	15.9939	955.0	1.2	Certain	1.9	-1.47	3.0805	Yes	n/a	-3.37297093242733	n/a	n/a	n/a	ISIRate	Mixed
298.712	3.0	0.024	1343.569	73.0	3	-4.0	-4.0	15.4939	955.0	2.22	Certain	7.1	-15.71	0.0	No	4.0	22.8120045300113	0.897	299.609	n/a	GetAnswer	Gain
299.632	4.0	0.023	1344.489	73.0	3	-4.0	-4.0	15.4939	955.0	2.22	Certain	7.1	-15.71	0.0	No	n/a	22.8120045300113	n/a	n/a	n/a	ShowChoice	Gain
303.644	1.0	0.012	1348.501	73.0	3	-4.0	-4.0	15.4939	955.0	2.22	Certain	7.1	-15.71	0.0	No	n/a	22.8120045300113	n/a	n/a	n/a	ShowResult	Gain
304.663	4.616	0.019	1349.52	73.0	3	-4.0	-4.0	15.4939	955.0	2.22	Certain	7.1	-15.71	0.0	No	n/a	22.8120045300113	n/a	n/a	n/a	ISITrial	Gain
309.311	3.0	0.032	1354.168	74.0	3	1.0	1.0	15.6189	955.0	2.8	Certain	13.5	-10.01	3.05625	Yes	4.0	23.5084937712344	0.841	310.152	n/a	GetAnswer	Loss
310.18	4.0	0.028	1355.037	74.0	3	1.0	1.0	15.6189	955.0	2.8	Certain	13.5	-10.01	3.05625	Yes	n/a	23.5084937712344	n/a	n/a	n/a	ShowChoice	Loss
314.192	1.0	0.012	1359.049	74.0	3	1.0	1.0	15.6189	955.0	2.8	Certain	13.5	-10.01	3.05625	Yes	n/a	23.5084937712344	n/a	n/a	n/a	ShowResult	Loss
315.212	3.909	0.02	1360.069	74.0	3	1.0	1.0	15.6189	955.0	2.8	Certain	13.5	-10.01	3.05625	Yes	n/a	23.5084937712344	n/a	n/a	n/a	ISITrial	Loss
319.14	3.056	0.019	1363.997	74.0	3	1.0	1.0	15.6189	955.0	2.8	Certain	13.5	-10.01	3.05625	Yes	n/a	23.5084937712344	n/a	n/a	n/a	TrialHappPreview	Loss
322.216	4.012	0.02	1367.073	74.0	3	1.0	1.0	15.6189	955.0	2.8	Certain	13.5	-10.01	3.05625	Yes	n/a	23.5084937712344	n/a	n/a	352.0	TrialHappiness	Loss
322.217	1.015	n/a	1367.614	74.0	3	1.0	1.0	15.6189	955.0	2.8	Certain	13.5	-10.01	3.05625	Yes	n/a	23.5084937712344	n/a	n/a	352.0	TrialHappinessSliderResponse	Loss
326.228	4.225	4.012	1371.085	74.0	3	1.0	1.0	15.6189	955.0	2.8	Certain	13.5	-10.01	3.05625	Yes	n/a	23.5084937712344	n/a	n/a	n/a	ISIRate	Loss
330.474	3.0	0.021	1375.331	75.0	3	3.91	1.96	16.1077	955.0	2.8	Outcome1	3.91	7.5	0.0	No	2.0	-3.59352585881465	1.003	331.477	n/a	GetAnswer	Gain
331.494	4.0	0.017	1376.351	75.0	3	3.91	1.96	16.1077	955.0	2.8	Outcome1	3.91	7.5	0.0	No	n/a	-3.59352585881465	n/a	n/a	n/a	ShowChoice	Gain
335.506	1.0	0.012	1380.363	75.0	3	3.91	1.96	16.1077	955.0	2.8	Outcome1	3.91	7.5	0.0	No	n/a	-3.59352585881465	n/a	n/a	n/a	ShowResult	Gain
336.525	4.979	0.019	1381.382	75.0	3	3.91	1.96	16.1077	955.0	2.8	Outcome1	3.91	7.5	0.0	No	n/a	-3.59352585881465	n/a	n/a	n/a	ISITrial	Gain
341.524	3.0	0.02	1386.381	76.0	3	-6.0	-6.0	15.3577	955.0	5.0	Certain	-18.38	6.3	0.0	No	4.0	24.684031710079303	1.082	342.606	n/a	GetAnswer	Gain
342.627	4.0	0.021	1387.484	76.0	3	-6.0	-6.0	15.3577	955.0	5.0	Certain	-18.38	6.3	0.0	No	n/a	24.684031710079303	n/a	n/a	n/a	ShowChoice	Gain
346.639	1.0	0.012	1391.496	76.0	3	-6.0	-6.0	15.3577	955.0	5.0	Certain	-18.38	6.3	0.0	No	n/a	24.684031710079303	n/a	n/a	n/a	ShowResult	Gain
347.659	3.931	0.02	1392.516	76.0	3	-6.0	-6.0	15.3577	955.0	5.0	Certain	-18.38	6.3	0.0	No	n/a	24.684031710079303	n/a	n/a	n/a	ISITrial	Gain
351.621	3.0	0.031	1396.478	77.0	3	0.0	0.0	15.3577	955.0	5.0	Certain	12.3	-13.07	4.0	Yes	4.0	25.3669309173273	1.234	352.855	n/a	GetAnswer	Loss
352.874	4.0	0.019	1397.731	77.0	3	0.0	0.0	15.3577	955.0	5.0	Certain	12.3	-13.07	4.0	Yes	n/a	25.3669309173273	n/a	n/a	n/a	ShowChoice	Loss
356.886	1.0	0.012	1401.743	77.0	3	0.0	0.0	15.3577	955.0	5.0	Certain	12.3	-13.07	4.0	Yes	n/a	25.3669309173273	n/a	n/a	n/a	ShowResult	Loss
357.906	7.022	0.02	1402.763	77.0	3	0.0	0.0	15.3577	955.0	5.0	Certain	12.3	-13.07	4.0	Yes	n/a	25.3669309173273	n/a	n/a	n/a	ISITrial	Loss
364.944	4.0	0.016	1409.801	77.0	3	0.0	0.0	15.3577	955.0	5.0	Certain	12.3	-13.07	4.0	Yes	n/a	25.3669309173273	n/a	n/a	n/a	TrialHappPreview	Loss
368.973	4.012	0.029	1413.83	77.0	3	0.0	0.0	15.3577	955.0	5.0	Certain	12.3	-13.07	4.0	Yes	n/a	25.3669309173273	n/a	n/a	344.0	TrialHappiness	Loss
368.973	1.494	n/a	1414.238	77.0	3	0.0	0.0	15.3577	955.0	5.0	Certain	12.3	-13.07	4.0	Yes	n/a	25.3669309173273	n/a	n/a	344.0	TrialHappinessSliderResponse	Loss
372.985	8.0	4.012	1417.842	77.0	3	0.0	0.0	15.3577	955.0	5.0	Certain	12.3	-13.07	4.0	Yes	n/a	25.3669309173273	n/a	n/a	n/a	ISIRate	Loss
381.009	3.0	0.024	1425.866	78.0	3	-11.0	-11.0	13.9827	955.0	1.5	Certain	2.1	-24.09	0.0	No	4.0	26.1857304643262	0.914	381.923	n/a	GetAnswer	Mixed
381.945	4.0	0.022	1426.802	78.0	3	-11.0	-11.0	13.9827	955.0	1.5	Certain	2.1	-24.09	0.0	No	n/a	26.1857304643262	n/a	n/a	n/a	ShowChoice	Mixed
385.957	1.0	0.012	1430.814	78.0	3	-11.0	-11.0	13.9827	955.0	1.5	Certain	2.1	-24.09	0.0	No	n/a	26.1857304643262	n/a	n/a	n/a	ShowResult	Mixed
386.977	2.078	0.02	1431.834	78.0	3	-11.0	-11.0	13.9827	955.0	1.5	Certain	2.1	-24.09	0.0	No	n/a	26.1857304643262	n/a	n/a	n/a	ISITrial	Mixed
389.083	3.0	0.028	1433.94	79.0	3	0.0	0.0	13.9827	955.0	1.82	Certain	-14.18	12.7	2.7295	Yes	4.0	26.8776896942242	1.23	390.313	n/a	GetAnswer	Loss
390.337	4.0	0.024	1435.194	79.0	3	0.0	0.0	13.9827	955.0	1.82	Certain	-14.18	12.7	2.7295	Yes	n/a	26.8776896942242	n/a	n/a	n/a	ShowChoice	Loss
394.349	1.0	0.012	1439.206	79.0	3	0.0	0.0	13.9827	955.0	1.82	Certain	-14.18	12.7	2.7295	Yes	n/a	26.8776896942242	n/a	n/a	n/a	ShowResult	Loss
395.368	3.829	0.019	1440.225	79.0	3	0.0	0.0	13.9827	955.0	1.82	Certain	-14.18	12.7	2.7295	Yes	n/a	26.8776896942242	n/a	n/a	n/a	ISITrial	Loss
399.213	2.73	0.016	1444.07	79.0	3	0.0	0.0	13.9827	955.0	1.82	Certain	-14.18	12.7	2.7295	Yes	n/a	26.8776896942242	n/a	n/a	n/a	TrialHappPreview	Loss
401.972	4.012	0.029	1446.829	79.0	3	0.0	0.0	13.9827	955.0	1.82	Certain	-14.18	12.7	2.7295	Yes	n/a	26.8776896942242	n/a	n/a	348.0	TrialHappiness	Loss
401.972	1.239	n/a	1447.553	79.0	3	0.0	0.0	13.9827	955.0	1.82	Certain	-14.18	12.7	2.7295	Yes	n/a	26.8776896942242	n/a	n/a	348.0	TrialHappinessSliderResponse	Loss
405.984	2.918	4.012	1450.841	79.0	3	0.0	0.0	13.9827	955.0	1.82	Certain	-14.18	12.7	2.7295	Yes	n/a	26.8776896942242	n/a	n/a	n/a	ISIRate	Loss
408.926	3.0	0.024	1453.783	80.0	3	-14.0	-14.0	12.2327	955.0	1.0	Certain	-27.8	-0.3	0.0	No	4.0	27.5016987542469	1.465	410.391	n/a	GetAnswer	Mixed
410.414	4.0	0.023	1455.271	80.0	3	-14.0	-14.0	12.2327	955.0	1.0	Certain	-27.8	-0.3	0.0	No	n/a	27.5016987542469	n/a	n/a	n/a	ShowChoice	Mixed
414.426	1.0	0.012	1459.283	80.0	3	-14.0	-14.0	12.2327	955.0	1.0	Certain	-27.8	-0.3	0.0	No	n/a	27.5016987542469	n/a	n/a	n/a	ShowResult	Mixed
415.445	3.336	0.019	1460.302	80.0	3	-14.0	-14.0	12.2327	955.0	1.0	Certain	-27.8	-0.3	0.0	No	n/a	27.5016987542469	n/a	n/a	n/a	ISITrial	Mixed
418.805	3.0	0.024	1463.662	81.0	3	-6.0	-6.0	11.4827	955.0	5.0	Certain	-19.89	8.3	3.92375	Yes	4.0	28.1891279728199	0.731	419.536	n/a	GetAnswer	Gain
419.558	4.0	0.022	1464.415	81.0	3	-6.0	-6.0	11.4827	955.0	5.0	Certain	-19.89	8.3	3.92375	Yes	n/a	28.1891279728199	n/a	n/a	n/a	ShowChoice	Gain
423.57	1.0	0.012	1468.427	81.0	3	-6.0	-6.0	11.4827	955.0	5.0	Certain	-19.89	8.3	3.92375	Yes	n/a	28.1891279728199	n/a	n/a	n/a	ShowResult	Gain
424.589	3.919	0.019	1469.446	81.0	3	-6.0	-6.0	11.4827	955.0	5.0	Certain	-19.89	8.3	3.92375	Yes	n/a	28.1891279728199	n/a	n/a	n/a	ISITrial	Gain
428.534	3.924	0.026	1473.391	81.0	3	-6.0	-6.0	11.4827	955.0	5.0	Certain	-19.89	8.3	3.92375	Yes	n/a	28.1891279728199	n/a	n/a	n/a	TrialHappPreview	Gain
432.48	4.012	0.022	1477.337	81.0	3	-6.0	-6.0	11.4827	955.0	5.0	Certain	-19.89	8.3	3.92375	Yes	n/a	28.1891279728199	n/a	n/a	360.0	TrialHappiness	Gain
432.48	2.284	n/a	1477.918	81.0	3	-6.0	-6.0	11.4827	955.0	5.0	Certain	-19.89	8.3	3.92375	Yes	n/a	28.1891279728199	n/a	n/a	360.0	TrialHappinessSliderResponse	Gain
436.492	7.695	4.012	1481.349	81.0	3	-6.0	-6.0	11.4827	955.0	5.0	Certain	-19.89	8.3	3.92375	Yes	n/a	28.1891279728199	n/a	n/a	n/a	ISIRate	Gain
444.215	3.0	0.028	1489.072	n/a	3	n/a	n/a	n/a	n/a	n/a	n/a	n/a	n/a	n/a	n/a	n/a	n/a	n/a	n/a	n/a	CurrentEarnings	n/a
447.241	-0.001	0.026	1492.098	n/a	3	n/a	n/a	n/a	n/a	n/a	n/a	n/a	n/a	n/a	n/a	{SPACE}	n/a	11.155	458.396	n/a	Goodbye	n/a
