onset	duration	onset_delay	onset_unadjusted	trial_number	block	amount_change	certain_amount	current_amount	mood_target	multiplier	outcome	outcome1_amount	outcome2_amount	question_duration	rating	response	rpe	rt	rt_time	slider_response	trial_phase	trial_type
-61.579	-0.001	0.022	13.009	n/a	0	n/a	n/a	n/a	n/a	n/a	n/a	n/a	n/a	n/a	n/a	{SPACE}	n/a	2.135	-59.444	n/a	Welcome	n/a
-59.413	5.0	0.031	15.175	n/a	0	n/a	n/a	n/a	n/a	n/a	n/a	n/a	n/a	n/a	n/a	n/a	n/a	n/a	n/a	n/a	LifeHappyPreview	n/a
-54.381	4.94	0.032	20.207	n/a	0	n/a	n/a	n/a	n/a	n/a	n/a	n/a	n/a	n/a	n/a	2{-2}2{-2}4{-4}2{-2}	n/a	4.94	-49.441	568.0	LifeHappiness	n/a
-54.381	4.077	n/a	21.07	n/a	0	n/a	n/a	n/a	n/a	n/a	n/a	n/a	n/a	n/a	n/a	n/a	n/a	n/a	n/a	568.0	LifeHappinessSliderResponse	n/a
-23.226	4.0	0.016	51.362	n/a	0	n/a	n/a	n/a	n/a	n/a	n/a	n/a	n/a	n/a	n/a	n/a	n/a	n/a	n/a	n/a	BlockHappyPreview	n/a
-19.21	0.0	0.016	55.378	n/a	0	n/a	n/a	n/a	n/a	n/a	n/a	n/a	n/a	n/a	n/a	n/a	n/a	n/a	n/a	512.0	BlockStartHappiness	n/a
-19.21	0.0	n/a	55.378	n/a	0	n/a	n/a	n/a	n/a	n/a	n/a	n/a	n/a	n/a	n/a	n/a	n/a	n/a	n/a	512.0	BlockStartHappinessSliderResponse	n/a
-9.564	-0.001	0.025	65.024	n/a	0	n/a	n/a	n/a	n/a	n/a	n/a	n/a	n/a	n/a	n/a	5.0	n/a	9.543	-0.021	n/a	ScanWait	n/a
0.0	10.0	0.021	74.588	n/a	1	n/a	n/a	n/a	n/a	n/a	n/a	n/a	n/a	n/a	n/a	n/a	n/a	n/a	n/a	n/a	GetReady	n/a
10.03	3.0	0.03	84.618	1.0	1	5.3	2.65	10.6625	955.0	2.22	Outcome2	7.1	5.3	0.0	No	2.0	-1.79775386938467	1.467	11.497	n/a	GetAnswer	Gain
11.512	4.0	0.015	86.1	1.0	1	5.3	2.65	10.6625	955.0	2.22	Outcome2	7.1	5.3	0.0	No	n/a	-1.79775386938467	n/a	n/a	n/a	ShowChoice	Gain
15.528	1.0	0.016	90.116	1.0	1	5.3	2.65	10.6625	955.0	2.22	Outcome2	7.1	5.3	0.0	No	n/a	-1.79775386938467	n/a	n/a	n/a	ShowResult	Gain
16.544	2.431	0.016	91.132	1.0	1	5.3	2.65	10.6625	955.0	2.22	Outcome2	7.1	5.3	0.0	No	n/a	-1.79775386938467	n/a	n/a	n/a	ISITrial	Gain
19.01	3.0	0.035	93.598	2.0	1	2.0	2.0	10.9125	955.0	1.68	Certain	-1.53	6.5	0.0	No	4.0	8.02718006795017	1.169	20.179	n/a	GetAnswer	Gain
20.193	4.0	0.014	94.781	2.0	1	2.0	2.0	10.9125	955.0	1.68	Certain	-1.53	6.5	0.0	No	n/a	8.02718006795017	n/a	n/a	n/a	ShowChoice	Gain
24.208	1.0	0.015	98.796	2.0	1	2.0	2.0	10.9125	955.0	1.68	Certain	-1.53	6.5	0.0	No	n/a	8.02718006795017	n/a	n/a	n/a	ShowResult	Gain
25.224	4.568	0.016	99.812	2.0	1	2.0	2.0	10.9125	955.0	1.68	Certain	-1.53	6.5	0.0	No	n/a	8.02718006795017	n/a	n/a	n/a	ISITrial	Gain
29.823	3.0	0.031	104.411	3.0	1	0.0	0.0	10.9125	955.0	1.2	Certain	3.9	-4.63	2.868	Yes	4.0	8.52887882219705	1.218	31.041	n/a	GetAnswer	Mixed
31.056	4.0	0.015	105.644	3.0	1	0.0	0.0	10.9125	955.0	1.2	Certain	3.9	-4.63	2.868	Yes	n/a	8.52887882219705	n/a	n/a	n/a	ShowChoice	Mixed
35.071	1.0	0.015	109.659	3.0	1	0.0	0.0	10.9125	955.0	1.2	Certain	3.9	-4.63	2.868	Yes	n/a	8.52887882219705	n/a	n/a	n/a	ShowResult	Mixed
36.087	3.243	0.016	110.675	3.0	1	0.0	0.0	10.9125	955.0	1.2	Certain	3.9	-4.63	2.868	Yes	n/a	8.52887882219705	n/a	n/a	n/a	ISITrial	Mixed
39.353	2.868	0.023	113.941	3.0	1	0.0	0.0	10.9125	955.0	1.2	Certain	3.9	-4.63	2.868	Yes	n/a	8.52887882219705	n/a	n/a	n/a	TrialHappPreview	Mixed
42.252	4.015	0.031	116.84	3.0	1	0.0	0.0	10.9125	955.0	1.2	Certain	3.9	-4.63	2.868	Yes	n/a	8.52887882219705	n/a	n/a	560.0	TrialHappiness	Mixed
42.252	1.062	n/a	117.618	3.0	1	0.0	0.0	10.9125	955.0	1.2	Certain	3.9	-4.63	2.868	Yes	n/a	8.52887882219705	n/a	n/a	560.0	TrialHappinessSliderResponse	Mixed
46.267	3.472	4.015	120.855	3.0	1	0.0	0.0	10.9125	955.0	1.2	Certain	3.9	-4.63	2.868	Yes	n/a	8.52887882219705	n/a	n/a	n/a	ISIRate	Mixed
49.766	3.0	0.027	124.354	4.0	1	9.1	0.44	12.05	955.0	2.22	Outcome2	0.88	9.1	0.0	No	2.0	8.21517553793884	1.306	51.072	n/a	GetAnswer	Gain
51.099	4.0	0.027	125.687	4.0	1	9.1	0.44	12.05	955.0	2.22	Outcome2	0.88	9.1	0.0	No	n/a	8.21517553793884	n/a	n/a	n/a	ShowChoice	Gain
55.114	1.0	0.015	129.702	4.0	1	9.1	0.44	12.05	955.0	2.22	Outcome2	0.88	9.1	0.0	No	n/a	8.21517553793884	n/a	n/a	n/a	ShowResult	Gain
56.13	2.011	0.016	130.718	4.0	1	9.1	0.44	12.05	955.0	2.22	Outcome2	0.88	9.1	0.0	No	n/a	8.21517553793884	n/a	n/a	n/a	ISITrial	Gain
58.163	3.0	0.022	132.751	5.0	1	2.7	-1.0	12.3875	955.0	0.3	Outcome1	2.7	-5.96	2.5825	Yes	2.0	8.66251415628539	1.072	59.235	n/a	GetAnswer	Mixed
59.263	4.0	0.028	133.851	5.0	1	2.7	-1.0	12.3875	955.0	0.3	Outcome1	2.7	-5.96	2.5825	Yes	n/a	8.66251415628539	n/a	n/a	n/a	ShowChoice	Mixed
63.278	1.0	0.015	137.866	5.0	1	2.7	-1.0	12.3875	955.0	0.3	Outcome1	2.7	-5.96	2.5825	Yes	n/a	8.66251415628539	n/a	n/a	n/a	ShowResult	Mixed
64.294	5.129	0.016	138.882	5.0	1	2.7	-1.0	12.3875	955.0	0.3	Outcome1	2.7	-5.96	2.5825	Yes	n/a	8.66251415628539	n/a	n/a	n/a	ISITrial	Mixed
69.442	2.582	0.019	144.03	5.0	1	2.7	-1.0	12.3875	955.0	0.3	Outcome1	2.7	-5.96	2.5825	Yes	n/a	8.66251415628539	n/a	n/a	n/a	TrialHappPreview	Mixed
72.041	4.016	0.017	146.629	5.0	1	2.7	-1.0	12.3875	955.0	0.3	Outcome1	2.7	-5.96	2.5825	Yes	n/a	8.66251415628539	n/a	n/a	624.0	TrialHappiness	Mixed
72.042	0.378	n/a	147.624	5.0	1	2.7	-1.0	12.3875	955.0	0.3	Outcome1	2.7	-5.96	2.5825	Yes	n/a	8.66251415628539	n/a	n/a	624.0	TrialHappinessSliderResponse	Mixed
76.057	2.33	4.016	150.645	5.0	1	2.7	-1.0	12.3875	955.0	0.3	Outcome1	2.7	-5.96	2.5825	Yes	n/a	8.66251415628539	n/a	n/a	n/a	ISIRate	Mixed
78.406	3.0	0.019	152.994	6.0	1	12.5	2.24	13.95	955.0	1.68	Outcome2	4.48	12.5	0.0	No	2.0	8.022650056625139	1.347	79.753	n/a	GetAnswer	Loss
79.772	4.0	0.019	154.36	6.0	1	12.5	2.24	13.95	955.0	1.68	Outcome2	4.48	12.5	0.0	No	n/a	8.022650056625139	n/a	n/a	n/a	ShowChoice	Loss
83.787	1.0	0.015	158.375	6.0	1	12.5	2.24	13.95	955.0	1.68	Outcome2	4.48	12.5	0.0	No	n/a	8.022650056625139	n/a	n/a	n/a	ShowResult	Loss
84.804	6.232	0.017	159.392	6.0	1	12.5	2.24	13.95	955.0	1.68	Outcome2	4.48	12.5	0.0	No	n/a	8.022650056625139	n/a	n/a	n/a	ISITrial	Loss
91.068	3.0	0.032	165.656	7.0	1	6.93	3.46	14.8162	955.0	1.68	Outcome1	6.93	8.5	0.0	No	2.0	-1.57446206115515	1.019	92.087	n/a	GetAnswer	Gain
92.101	4.0	0.014	166.689	7.0	1	6.93	3.46	14.8162	955.0	1.68	Outcome1	6.93	8.5	0.0	No	n/a	-1.57446206115515	n/a	n/a	n/a	ShowChoice	Gain
96.116	1.0	0.015	170.704	7.0	1	6.93	3.46	14.8162	955.0	1.68	Outcome1	6.93	8.5	0.0	No	n/a	-1.57446206115515	n/a	n/a	n/a	ShowResult	Gain
97.133	2.305	0.017	171.721	7.0	1	6.93	3.46	14.8162	955.0	1.68	Outcome1	6.93	8.5	0.0	No	n/a	-1.57446206115515	n/a	n/a	n/a	ISITrial	Gain
99.465	3.0	0.027	174.053	8.0	1	5.29	2.64	15.4774	955.0	2.0	Outcome2	6.9	5.29	3.1125	Yes	2.0	-1.60570026425066	1.053	100.518	n/a	GetAnswer	Gain
100.548	4.0	0.029	175.136	8.0	1	5.29	2.64	15.4774	955.0	2.0	Outcome2	6.9	5.29	3.1125	Yes	n/a	-1.60570026425066	n/a	n/a	n/a	ShowChoice	Gain
104.564	1.0	0.016	179.152	8.0	1	5.29	2.64	15.4774	955.0	2.0	Outcome2	6.9	5.29	3.1125	Yes	n/a	-1.60570026425066	n/a	n/a	n/a	ShowResult	Gain
105.58	3.506	0.016	180.168	8.0	1	5.29	2.64	15.4774	955.0	2.0	Outcome2	6.9	5.29	3.1125	Yes	n/a	-1.60570026425066	n/a	n/a	n/a	ISITrial	Gain
109.112	3.112	0.026	183.7	8.0	1	5.29	2.64	15.4774	955.0	2.0	Outcome2	6.9	5.29	3.1125	Yes	n/a	-1.60570026425066	n/a	n/a	n/a	TrialHappPreview	Gain
112.244	4.016	0.02	186.832	8.0	1	5.29	2.64	15.4774	955.0	2.0	Outcome2	6.9	5.29	3.1125	Yes	n/a	-1.60570026425066	n/a	n/a	648.0	TrialHappiness	Gain
112.245	0.899	n/a	187.489	8.0	1	5.29	2.64	15.4774	955.0	2.0	Outcome2	6.9	5.29	3.1125	Yes	n/a	-1.60570026425066	n/a	n/a	648.0	TrialHappinessSliderResponse	Gain
116.26	4.45	4.016	190.848	8.0	1	5.29	2.64	15.4774	955.0	2.0	Outcome2	6.9	5.29	3.1125	Yes	n/a	-1.60570026425066	n/a	n/a	n/a	ISIRate	Gain
120.741	3.0	0.031	195.329	9.0	1	-6.0	-6.0	14.7274	955.0	0.2	Certain	-1.5	-10.24	0.0	No	4.0	8.739524348810871	1.988	122.729	n/a	GetAnswer	Mixed
122.757	4.0	0.028	197.345	9.0	1	-6.0	-6.0	14.7274	955.0	0.2	Certain	-1.5	-10.24	0.0	No	n/a	8.739524348810871	n/a	n/a	n/a	ShowChoice	Mixed
126.773	1.0	0.016	201.361	9.0	1	-6.0	-6.0	14.7274	955.0	0.2	Certain	-1.5	-10.24	0.0	No	n/a	8.739524348810871	n/a	n/a	n/a	ShowResult	Mixed
127.789	2.0	0.016	202.377	9.0	1	-6.0	-6.0	14.7274	955.0	0.2	Certain	-1.5	-10.24	0.0	No	n/a	8.739524348810871	n/a	n/a	n/a	ISITrial	Mixed
129.822	3.0	0.033	204.41	10.0	1	-1.0	-1.0	14.6024	955.0	0.82	Certain	-5.59	3.5	4.0	Yes	4.0	9.087202718006788	0.994	130.816	n/a	GetAnswer	Mixed
130.838	4.0	0.022	205.426	10.0	1	-1.0	-1.0	14.6024	955.0	0.82	Certain	-5.59	3.5	4.0	Yes	n/a	9.087202718006788	n/a	n/a	n/a	ShowChoice	Mixed
134.853	1.0	0.015	209.441	10.0	1	-1.0	-1.0	14.6024	955.0	0.82	Certain	-5.59	3.5	4.0	Yes	n/a	9.087202718006788	n/a	n/a	n/a	ShowResult	Mixed
135.869	2.0	0.016	210.457	10.0	1	-1.0	-1.0	14.6024	955.0	0.82	Certain	-5.59	3.5	4.0	Yes	n/a	9.087202718006788	n/a	n/a	n/a	ISITrial	Mixed
137.885	4.0	0.016	212.473	10.0	1	-1.0	-1.0	14.6024	955.0	0.82	Certain	-5.59	3.5	4.0	Yes	n/a	9.087202718006788	n/a	n/a	n/a	TrialHappPreview	Mixed
141.917	4.016	0.032	216.505	10.0	1	-1.0	-1.0	14.6024	955.0	0.82	Certain	-5.59	3.5	4.0	Yes	n/a	9.087202718006788	n/a	n/a	536.0	TrialHappiness	Mixed
141.918	3.068	n/a	217.386	10.0	1	-1.0	-1.0	14.6024	955.0	0.82	Certain	-5.59	3.5	4.0	Yes	n/a	9.087202718006788	n/a	n/a	536.0	TrialHappinessSliderResponse	Mixed
145.933	8.0	4.016	220.521	10.0	1	-1.0	-1.0	14.6024	955.0	0.82	Certain	-5.59	3.5	4.0	Yes	n/a	9.087202718006788	n/a	n/a	n/a	ISIRate	Mixed
153.963	3.0	0.03	228.551	11.0	1	8.45	4.22	15.6587	955.0	1.68	Outcome1	8.45	10.5	0.0	No	2.0	-2.05200075500189	0.863	154.826	n/a	GetAnswer	Loss
154.846	4.0	0.02	229.434	11.0	1	8.45	4.22	15.6587	955.0	1.68	Outcome1	8.45	10.5	0.0	No	n/a	-2.05200075500189	n/a	n/a	n/a	ShowChoice	Loss
158.861	1.0	0.015	233.449	11.0	1	8.45	4.22	15.6587	955.0	1.68	Outcome1	8.45	10.5	0.0	No	n/a	-2.05200075500189	n/a	n/a	n/a	ShowResult	Loss
159.878	3.324	0.017	234.466	11.0	1	8.45	4.22	15.6587	955.0	1.68	Outcome1	8.45	10.5	0.0	No	n/a	-2.05200075500189	n/a	n/a	n/a	ISITrial	Loss
163.227	3.0	0.025	237.815	12.0	1	-1.19	0.0	15.5099	955.0	0.4	Outcome1	-1.19	0.9	2.61875	Yes	2.0	-2.09154397885995	1.51	164.737	n/a	GetAnswer	Mixed
164.759	4.0	0.022	239.347	12.0	1	-1.19	0.0	15.5099	955.0	0.4	Outcome1	-1.19	0.9	2.61875	Yes	n/a	-2.09154397885995	n/a	n/a	n/a	ShowChoice	Mixed
168.775	1.0	0.016	243.363	12.0	1	-1.19	0.0	15.5099	955.0	0.4	Outcome1	-1.19	0.9	2.61875	Yes	n/a	-2.09154397885995	n/a	n/a	n/a	ShowResult	Mixed
169.791	6.642	0.016	244.379	12.0	1	-1.19	0.0	15.5099	955.0	0.4	Outcome1	-1.19	0.9	2.61875	Yes	n/a	-2.09154397885995	n/a	n/a	n/a	ISITrial	Mixed
176.455	2.619	0.022	251.043	12.0	1	-1.19	0.0	15.5099	955.0	0.4	Outcome1	-1.19	0.9	2.61875	Yes	n/a	-2.09154397885995	n/a	n/a	n/a	TrialHappPreview	Mixed
179.104	4.016	0.03	253.692	12.0	1	-1.19	0.0	15.5099	955.0	0.4	Outcome1	-1.19	0.9	2.61875	Yes	n/a	-2.09154397885995	n/a	n/a	560.0	TrialHappiness	Mixed
179.105	1.052	n/a	254.115	12.0	1	-1.19	0.0	15.5099	955.0	0.4	Outcome1	-1.19	0.9	2.61875	Yes	n/a	-2.09154397885995	n/a	n/a	560.0	TrialHappinessSliderResponse	Mixed
183.12	2.475	4.016	257.708	12.0	1	-1.19	0.0	15.5099	955.0	0.4	Outcome1	-1.19	0.9	2.61875	Yes	n/a	-2.09154397885995	n/a	n/a	n/a	ISIRate	Mixed
185.619	3.0	0.024	260.207	13.0	1	6.7	1.0	16.3474	955.0	1.82	Outcome2	-5.18	6.7	0.0	No	2.0	11.8788221970555	2.693	188.312	n/a	GetAnswer	Gain
188.335	4.0	0.023	262.923	13.0	1	6.7	1.0	16.3474	955.0	1.82	Outcome2	-5.18	6.7	0.0	No	n/a	11.8788221970555	n/a	n/a	n/a	ShowChoice	Gain
192.35	1.0	0.015	266.938	13.0	1	6.7	1.0	16.3474	955.0	1.82	Outcome2	-5.18	6.7	0.0	No	n/a	11.8788221970555	n/a	n/a	n/a	ShowResult	Gain
193.366	3.48	0.016	267.954	13.0	1	6.7	1.0	16.3474	955.0	1.82	Outcome2	-5.18	6.7	0.0	No	n/a	11.8788221970555	n/a	n/a	n/a	ISITrial	Gain
196.865	3.0	0.019	271.453	14.0	1	10.83	5.42	17.7012	955.0	2.0	Outcome2	12.9	10.83	0.0	No	2.0	-2.07097017742544	1.082	197.947	n/a	GetAnswer	Loss
197.965	4.0	0.018	272.553	14.0	1	10.83	5.42	17.7012	955.0	2.0	Outcome2	12.9	10.83	0.0	No	n/a	-2.07097017742544	n/a	n/a	n/a	ShowChoice	Loss
201.98	1.0	0.015	276.568	14.0	1	10.83	5.42	17.7012	955.0	2.0	Outcome2	12.9	10.83	0.0	No	n/a	-2.07097017742544	n/a	n/a	n/a	ShowResult	Loss
202.996	5.019	0.016	277.584	14.0	1	10.83	5.42	17.7012	955.0	2.0	Outcome2	12.9	10.83	0.0	No	n/a	-2.07097017742544	n/a	n/a	n/a	ISITrial	Loss
208.044	3.0	0.029	282.632	15.0	1	-0.61	0.0	17.625	955.0	0.82	Outcome1	-0.61	1.5	3.3485	Yes	2.0	-2.1082483956209903	2.674	210.718	n/a	GetAnswer	Mixed
210.744	4.0	0.026	285.332	15.0	1	-0.61	0.0	17.625	955.0	0.82	Outcome1	-0.61	1.5	3.3485	Yes	n/a	-2.1082483956209903	n/a	n/a	n/a	ShowChoice	Mixed
214.759	1.0	0.015	289.347	15.0	1	-0.61	0.0	17.625	955.0	0.82	Outcome1	-0.61	1.5	3.3485	Yes	n/a	-2.1082483956209903	n/a	n/a	n/a	ShowResult	Mixed
215.775	7.614	0.016	290.363	15.0	1	-0.61	0.0	17.625	955.0	0.82	Outcome1	-0.61	1.5	3.3485	Yes	n/a	-2.1082483956209903	n/a	n/a	n/a	ISITrial	Mixed
223.406	3.348	0.017	297.994	15.0	1	-0.61	0.0	17.625	955.0	0.82	Outcome1	-0.61	1.5	3.3485	Yes	n/a	-2.1082483956209903	n/a	n/a	n/a	TrialHappPreview	Mixed
226.771	4.016	0.017	301.359	15.0	1	-0.61	0.0	17.625	955.0	0.82	Outcome1	-0.61	1.5	3.3485	Yes	n/a	-2.1082483956209903	n/a	n/a	604.0	TrialHappiness	Mixed
226.772	1.118	n/a	302.196	15.0	1	-0.61	0.0	17.625	955.0	0.82	Outcome1	-0.61	1.5	3.3485	Yes	n/a	-2.1082483956209903	n/a	n/a	604.0	TrialHappinessSliderResponse	Mixed
230.787	5.394	4.016	305.375	15.0	1	-0.61	0.0	17.625	955.0	0.82	Outcome1	-0.61	1.5	3.3485	Yes	n/a	-2.1082483956209903	n/a	n/a	n/a	ISIRate	Mixed
236.201	3.0	0.02	310.789	16.0	1	1.13	2.0	17.7663	955.0	0.52	Outcome1	1.13	3.1	0.0	No	2.0	-1.96696866742167	1.324	237.525	n/a	GetAnswer	Mixed
237.551	4.0	0.026	312.139	16.0	1	1.13	2.0	17.7663	955.0	0.52	Outcome1	1.13	3.1	0.0	No	n/a	-1.96696866742167	n/a	n/a	n/a	ShowChoice	Mixed
241.566	1.0	0.015	316.154	16.0	1	1.13	2.0	17.7663	955.0	0.52	Outcome1	1.13	3.1	0.0	No	n/a	-1.96696866742167	n/a	n/a	n/a	ShowResult	Mixed
242.583	3.008	0.017	317.171	16.0	1	1.13	2.0	17.7663	955.0	0.52	Outcome1	1.13	3.1	0.0	No	n/a	-1.96696866742167	n/a	n/a	n/a	ISITrial	Mixed
245.615	3.0	0.024	320.203	17.0	1	9.9	-1.48	19.0038	955.0	3.6	Outcome2	-2.97	9.9	3.0415	Yes	2.0	12.8708946772367	1.769	247.384	n/a	GetAnswer	Gain
247.398	4.0	0.014	321.986	17.0	1	9.9	-1.48	19.0038	955.0	3.6	Outcome2	-2.97	9.9	3.0415	Yes	n/a	12.8708946772367	n/a	n/a	n/a	ShowChoice	Gain
251.413	1.0	0.015	326.001	17.0	1	9.9	-1.48	19.0038	955.0	3.6	Outcome2	-2.97	9.9	3.0415	Yes	n/a	12.8708946772367	n/a	n/a	n/a	ShowResult	Gain
252.429	3.566	0.016	327.017	17.0	1	9.9	-1.48	19.0038	955.0	3.6	Outcome2	-2.97	9.9	3.0415	Yes	n/a	12.8708946772367	n/a	n/a	n/a	ISITrial	Gain
256.011	3.042	0.016	330.599	17.0	1	9.9	-1.48	19.0038	955.0	3.6	Outcome2	-2.97	9.9	3.0415	Yes	n/a	12.8708946772367	n/a	n/a	n/a	TrialHappPreview	Gain
259.077	4.015	0.024	333.665	17.0	1	9.9	-1.48	19.0038	955.0	3.6	Outcome2	-2.97	9.9	3.0415	Yes	n/a	12.8708946772367	n/a	n/a	628.0	TrialHappiness	Gain
259.077	1.09	n/a	334.064	17.0	1	9.9	-1.48	19.0038	955.0	3.6	Outcome2	-2.97	9.9	3.0415	Yes	n/a	12.8708946772367	n/a	n/a	628.0	TrialHappinessSliderResponse	Gain
263.092	4.166	4.015	337.68	17.0	1	9.9	-1.48	19.0038	955.0	3.6	Outcome2	-2.97	9.9	3.0415	Yes	n/a	12.8708946772367	n/a	n/a	n/a	ISIRate	Gain
267.274	3.0	0.016	341.862	18.0	1	2.9	-3.0	19.3663	955.0	0.4	Outcome1	2.9	-9.96	0.0	No	2.0	12.8607021517554	2.229	269.503	n/a	GetAnswer	Mixed
269.523	4.0	0.02	344.111	18.0	1	2.9	-3.0	19.3663	955.0	0.4	Outcome1	2.9	-9.96	0.0	No	n/a	12.8607021517554	n/a	n/a	n/a	ShowChoice	Mixed
273.538	1.0	0.015	348.126	18.0	1	2.9	-3.0	19.3663	955.0	0.4	Outcome1	2.9	-9.96	0.0	No	n/a	12.8607021517554	n/a	n/a	n/a	ShowResult	Mixed
274.555	6.787	0.017	349.143	18.0	1	2.9	-3.0	19.3663	955.0	0.4	Outcome1	2.9	-9.96	0.0	No	n/a	12.8607021517554	n/a	n/a	n/a	ISITrial	Mixed
281.369	3.0	0.027	355.957	19.0	1	1.0	1.0	19.4913	955.0	2.8	Certain	-5.73	7.5	0.0	No	4.0	13.2310305775764	1.497	282.866	n/a	GetAnswer	Gain
282.885	4.0	0.019	357.473	19.0	1	1.0	1.0	19.4913	955.0	2.8	Certain	-5.73	7.5	0.0	No	n/a	13.2310305775764	n/a	n/a	n/a	ShowChoice	Gain
286.901	1.0	0.016	361.489	19.0	1	1.0	1.0	19.4913	955.0	2.8	Certain	-5.73	7.5	0.0	No	n/a	13.2310305775764	n/a	n/a	n/a	ShowResult	Gain
287.917	2.0	0.016	362.505	19.0	1	1.0	1.0	19.4913	955.0	2.8	Certain	-5.73	7.5	0.0	No	n/a	13.2310305775764	n/a	n/a	n/a	ISITrial	Gain
289.933	3.0	0.016	364.521	20.0	1	11.3	5.65	20.9038	955.0	2.48	Outcome2	13.3	11.3	2.92125	Yes	2.0	-1.99754624386561	1.146	291.079	n/a	GetAnswer	Loss
291.099	4.0	0.02	365.687	20.0	1	11.3	5.65	20.9038	955.0	2.48	Outcome2	13.3	11.3	2.92125	Yes	n/a	-1.99754624386561	n/a	n/a	n/a	ShowChoice	Loss
295.114	1.0	0.015	369.702	20.0	1	11.3	5.65	20.9038	955.0	2.48	Outcome2	13.3	11.3	2.92125	Yes	n/a	-1.99754624386561	n/a	n/a	n/a	ShowResult	Loss
296.131	8.0	0.017	370.719	20.0	1	11.3	5.65	20.9038	955.0	2.48	Outcome2	13.3	11.3	2.92125	Yes	n/a	-1.99754624386561	n/a	n/a	n/a	ISITrial	Loss
304.145	2.921	0.014	378.733	20.0	1	11.3	5.65	20.9038	955.0	2.48	Outcome2	13.3	11.3	2.92125	Yes	n/a	-1.99754624386561	n/a	n/a	n/a	TrialHappPreview	Loss
307.094	4.015	0.028	381.682	20.0	1	11.3	5.65	20.9038	955.0	2.48	Outcome2	13.3	11.3	2.92125	Yes	n/a	-1.99754624386561	n/a	n/a	580.0	TrialHappiness	Loss
307.094	0.684	n/a	382.382	20.0	1	11.3	5.65	20.9038	955.0	2.48	Outcome2	13.3	11.3	2.92125	Yes	n/a	-1.99754624386561	n/a	n/a	580.0	TrialHappinessSliderResponse	Loss
311.109	3.685	4.015	385.697	20.0	1	11.3	5.65	20.9038	955.0	2.48	Outcome2	13.3	11.3	2.92125	Yes	n/a	-1.99754624386561	n/a	n/a	n/a	ISIRate	Loss
314.824	3.0	0.03	389.412	21.0	1	-3.0	-3.0	20.5288	955.0	2.0	Certain	4.3	-10.49	0.0	No	4.0	14.787089467723698	1.44	316.264	n/a	GetAnswer	Mixed
316.29	4.0	0.026	390.878	21.0	1	-3.0	-3.0	20.5288	955.0	2.0	Certain	4.3	-10.49	0.0	No	n/a	14.787089467723698	n/a	n/a	n/a	ShowChoice	Mixed
320.306	1.0	0.016	394.894	21.0	1	-3.0	-3.0	20.5288	955.0	2.0	Certain	4.3	-10.49	0.0	No	n/a	14.787089467723698	n/a	n/a	n/a	ShowResult	Mixed
321.322	3.555	0.016	395.91	21.0	1	-3.0	-3.0	20.5288	955.0	2.0	Certain	4.3	-10.49	0.0	No	n/a	14.787089467723698	n/a	n/a	n/a	ISITrial	Mixed
324.904	3.0	0.027	399.492	22.0	1	-1.0	-1.0	20.4038	955.0	1.5	Certain	-2.16	0.1	3.2195	Yes	4.0	-2.25858814647037	2.029	326.933	n/a	GetAnswer	Mixed
326.953	4.0	0.02	401.541	22.0	1	-1.0	-1.0	20.4038	955.0	1.5	Certain	-2.16	0.1	3.2195	Yes	n/a	-2.25858814647037	n/a	n/a	n/a	ShowChoice	Mixed
330.969	1.0	0.016	405.557	22.0	1	-1.0	-1.0	20.4038	955.0	1.5	Certain	-2.16	0.1	3.2195	Yes	n/a	-2.25858814647037	n/a	n/a	n/a	ShowResult	Mixed
331.985	6.793	0.016	406.573	22.0	1	-1.0	-1.0	20.4038	955.0	1.5	Certain	-2.16	0.1	3.2195	Yes	n/a	-2.25858814647037	n/a	n/a	n/a	ISITrial	Mixed
338.799	3.22	0.021	413.387	22.0	1	-1.0	-1.0	20.4038	955.0	1.5	Certain	-2.16	0.1	3.2195	Yes	n/a	-2.25858814647037	n/a	n/a	n/a	TrialHappPreview	Mixed
342.048	4.015	0.029	416.636	22.0	1	-1.0	-1.0	20.4038	955.0	1.5	Certain	-2.16	0.1	3.2195	Yes	n/a	-2.25858814647037	n/a	n/a	560.0	TrialHappiness	Mixed
342.049	0.244	n/a	417.216	22.0	1	-1.0	-1.0	20.4038	955.0	1.5	Certain	-2.16	0.1	3.2195	Yes	n/a	-2.25858814647037	n/a	n/a	560.0	TrialHappinessSliderResponse	Mixed
346.063	4.878	4.015	420.651	22.0	1	-1.0	-1.0	20.4038	955.0	1.5	Certain	-2.16	0.1	3.2195	Yes	n/a	-2.25858814647037	n/a	n/a	n/a	ISIRate	Mixed
350.962	3.0	0.021	425.55	23.0	1	0.0	0.0	20.4038	955.0	1.2	Certain	-0.48	1.9	0.0	No	4.0	-2.37514156285391	1.854	352.816	n/a	GetAnswer	Mixed
352.828	4.0	0.012	427.416	23.0	1	0.0	0.0	20.4038	955.0	1.2	Certain	-0.48	1.9	0.0	No	n/a	-2.37514156285391	n/a	n/a	n/a	ShowChoice	Mixed
356.843	1.0	0.015	431.431	23.0	1	0.0	0.0	20.4038	955.0	1.2	Certain	-0.48	1.9	0.0	No	n/a	-2.37514156285391	n/a	n/a	n/a	ShowResult	Mixed
357.859	8.0	0.016	432.447	23.0	1	0.0	0.0	20.4038	955.0	1.2	Certain	-0.48	1.9	0.0	No	n/a	-2.37514156285391	n/a	n/a	n/a	ISITrial	Mixed
365.89	3.0	0.031	440.478	24.0	1	2.09	1.04	20.6651	955.0	1.68	Outcome2	4.5	2.09	3.255	Yes	2.0	-2.4124197810494503	1.198	367.088	n/a	GetAnswer	Gain
367.106	4.0	0.018	441.694	24.0	1	2.09	1.04	20.6651	955.0	1.68	Outcome2	4.5	2.09	3.255	Yes	n/a	-2.4124197810494503	n/a	n/a	n/a	ShowChoice	Gain
371.121	1.0	0.015	445.709	24.0	1	2.09	1.04	20.6651	955.0	1.68	Outcome2	4.5	2.09	3.255	Yes	n/a	-2.4124197810494503	n/a	n/a	n/a	ShowResult	Gain
372.138	2.0	0.017	446.726	24.0	1	2.09	1.04	20.6651	955.0	1.68	Outcome2	4.5	2.09	3.255	Yes	n/a	-2.4124197810494503	n/a	n/a	n/a	ISITrial	Gain
374.154	3.255	0.016	448.742	24.0	1	2.09	1.04	20.6651	955.0	1.68	Outcome2	4.5	2.09	3.255	Yes	n/a	-2.4124197810494503	n/a	n/a	n/a	TrialHappPreview	Gain
377.436	4.015	0.027	452.024	24.0	1	2.09	1.04	20.6651	955.0	1.68	Outcome2	4.5	2.09	3.255	Yes	n/a	-2.4124197810494503	n/a	n/a	640.0	TrialHappiness	Gain
377.436	3.01	n/a	452.635	24.0	1	2.09	1.04	20.6651	955.0	1.68	Outcome2	4.5	2.09	3.255	Yes	n/a	-2.4124197810494503	n/a	n/a	640.0	TrialHappinessSliderResponse	Gain
381.451	5.02	4.015	456.039	24.0	1	2.09	1.04	20.6651	955.0	1.68	Outcome2	4.5	2.09	3.255	Yes	n/a	-2.4124197810494503	n/a	n/a	n/a	ISIRate	Gain
386.499	3.0	0.028	461.087	25.0	1	10.3	2.0	21.9526	955.0	5.0	Outcome2	-5.21	10.3	0.0	No	2.0	15.511891279728198	2.794	389.293	n/a	GetAnswer	Gain
389.315	4.0	0.022	463.903	25.0	1	10.3	2.0	21.9526	955.0	5.0	Outcome2	-5.21	10.3	0.0	No	n/a	15.511891279728198	n/a	n/a	n/a	ShowChoice	Gain
393.33	1.0	0.015	467.918	25.0	1	10.3	2.0	21.9526	955.0	5.0	Outcome2	-5.21	10.3	0.0	No	n/a	15.511891279728198	n/a	n/a	n/a	ShowResult	Gain
394.347	3.749	0.017	468.935	25.0	1	10.3	2.0	21.9526	955.0	5.0	Outcome2	-5.21	10.3	0.0	No	n/a	15.511891279728198	n/a	n/a	n/a	ISITrial	Gain
398.129	3.0	0.033	472.717	26.0	1	-2.0	-2.0	21.7026	955.0	0.3	Certain	-1.3	-3.45	0.0	No	4.0	-2.15477538693847	1.468	399.597	n/a	GetAnswer	Mixed
399.612	4.0	0.015	474.2	26.0	1	-2.0	-2.0	21.7026	955.0	0.3	Certain	-1.3	-3.45	0.0	No	n/a	-2.15477538693847	n/a	n/a	n/a	ShowChoice	Mixed
403.627	1.0	0.015	478.215	26.0	1	-2.0	-2.0	21.7026	955.0	0.3	Certain	-1.3	-3.45	0.0	No	n/a	-2.15477538693847	n/a	n/a	n/a	ShowResult	Mixed
404.643	7.834	0.016	479.231	26.0	1	-2.0	-2.0	21.7026	955.0	0.3	Certain	-1.3	-3.45	0.0	No	n/a	-2.15477538693847	n/a	n/a	n/a	ISITrial	Mixed
412.507	3.0	0.03	487.095	27.0	1	5.72	2.86	22.4176	955.0	3.6	Outcome2	7.9	5.72	2.54975	Yes	2.0	-2.18450358625897	0.964	413.471	n/a	GetAnswer	Gain
413.49	4.0	0.019	488.078	27.0	1	5.72	2.86	22.4176	955.0	3.6	Outcome2	7.9	5.72	2.54975	Yes	n/a	-2.18450358625897	n/a	n/a	n/a	ShowChoice	Gain
417.505	1.0	0.015	492.093	27.0	1	5.72	2.86	22.4176	955.0	3.6	Outcome2	7.9	5.72	2.54975	Yes	n/a	-2.18450358625897	n/a	n/a	n/a	ShowResult	Gain
418.522	4.225	0.017	493.11	27.0	1	5.72	2.86	22.4176	955.0	3.6	Outcome2	7.9	5.72	2.54975	Yes	n/a	-2.18450358625897	n/a	n/a	n/a	ISITrial	Gain
422.77	2.55	0.023	497.358	27.0	1	5.72	2.86	22.4176	955.0	3.6	Outcome2	7.9	5.72	2.54975	Yes	n/a	-2.18450358625897	n/a	n/a	n/a	TrialHappPreview	Gain
425.336	4.015	0.016	499.924	27.0	1	5.72	2.86	22.4176	955.0	3.6	Outcome2	7.9	5.72	2.54975	Yes	n/a	-2.18450358625897	n/a	n/a	612.0	TrialHappiness	Gain
425.337	1.79	n/a	500.513	27.0	1	5.72	2.86	22.4176	955.0	3.6	Outcome2	7.9	5.72	2.54975	Yes	n/a	-2.18450358625897	n/a	n/a	612.0	TrialHappinessSliderResponse	Gain
429.351	2.199	4.015	503.939	27.0	1	5.72	2.86	22.4176	955.0	3.6	Outcome2	7.9	5.72	2.54975	Yes	n/a	-2.18450358625897	n/a	n/a	n/a	ISIRate	Gain
469.488	3.225	n/a	544.524	n/a	1	n/a	n/a	n/a	n/a	n/a	n/a	n/a	n/a	n/a	n/a	n/a	n/a	n/a	n/a	516.0	BlockStartHappinessSliderResponse	n/a
-47.117	-0.001	0.017	506.155	n/a	2	n/a	n/a	n/a	n/a	n/a	n/a	n/a	n/a	n/a	n/a	{SPACE}	n/a	33.892	-13.225	n/a	Rest	n/a
-13.212	4.0	0.013	540.06	n/a	2	n/a	n/a	n/a	n/a	n/a	n/a	n/a	n/a	n/a	n/a	n/a	n/a	n/a	n/a	n/a	BlockHappyPreview	n/a
-9.197	3.673	0.015	544.075	n/a	2	n/a	n/a	n/a	n/a	n/a	n/a	n/a	n/a	n/a	n/a	2{-2}2{-2}2{-2}4{-4}	n/a	3.673	-5.524	516.0	BlockStartHappiness	n/a
-0.966	-0.001	0.019	552.306	n/a	2	n/a	n/a	n/a	n/a	n/a	n/a	n/a	n/a	n/a	n/a	5.0	n/a	0.955	-0.011	n/a	ScanWait	n/a
0.0	10.0	0.011	553.272	n/a	2	n/a	n/a	n/a	n/a	n/a	n/a	n/a	n/a	n/a	n/a	n/a	n/a	n/a	n/a	n/a	GetReady	n/a
10.013	3.0	0.013	563.285	28.0	2	-8.28	-4.0	21.3826	70.0	0.66	Outcome1	-8.28	-0.7	0.0	No	n/a	-7.585034013605441	n/a	n/a	n/a	GetAnswer	Mixed
13.029	4.0	0.016	566.301	28.0	2	-8.28	-4.0	21.3826	70.0	0.66	Outcome1	-8.28	-0.7	0.0	No	n/a	-7.585034013605441	n/a	n/a	n/a	ShowChoice	Mixed
17.044	1.0	0.015	570.316	28.0	2	-8.28	-4.0	21.3826	70.0	0.66	Outcome1	-8.28	-0.7	0.0	No	n/a	-7.585034013605441	n/a	n/a	n/a	ShowResult	Mixed
18.061	3.575	0.017	571.333	28.0	2	-8.28	-4.0	21.3826	70.0	0.66	Outcome1	-8.28	-0.7	0.0	No	n/a	-7.585034013605441	n/a	n/a	n/a	ISITrial	Mixed
21.659	3.0	0.023	574.931	29.0	2	-7.79	-3.0	20.4088	70.0	2.0	Outcome2	0.3	-7.79	3.529	Yes	2.0	-8.09070294784581	1.038	22.697	n/a	GetAnswer	Mixed
22.709	4.0	0.012	575.981	29.0	2	-7.79	-3.0	20.4088	70.0	2.0	Outcome2	0.3	-7.79	3.529	Yes	n/a	-8.09070294784581	n/a	n/a	n/a	ShowChoice	Mixed
26.724	1.0	0.015	579.996	29.0	2	-7.79	-3.0	20.4088	70.0	2.0	Outcome2	0.3	-7.79	3.529	Yes	n/a	-8.09070294784581	n/a	n/a	n/a	ShowResult	Mixed
27.741	3.955	0.017	581.013	29.0	2	-7.79	-3.0	20.4088	70.0	2.0	Outcome2	0.3	-7.79	3.529	Yes	n/a	-8.09070294784581	n/a	n/a	n/a	ISITrial	Mixed
31.723	3.529	0.027	584.995	29.0	2	-7.79	-3.0	20.4088	70.0	2.0	Outcome2	0.3	-7.79	3.529	Yes	n/a	-8.09070294784581	n/a	n/a	n/a	TrialHappPreview	Mixed
35.271	4.016	0.019	588.543	29.0	2	-7.79	-3.0	20.4088	70.0	2.0	Outcome2	0.3	-7.79	3.529	Yes	n/a	-8.09070294784581	n/a	n/a	512.0	TrialHappiness	Mixed
35.272	0.0	n/a	588.544	29.0	2	-7.79	-3.0	20.4088	70.0	2.0	Outcome2	0.3	-7.79	3.529	Yes	n/a	-8.09070294784581	n/a	n/a	512.0	TrialHappinessSliderResponse	Mixed
39.287	6.116	4.016	592.559	29.0	2	-7.79	-3.0	20.4088	70.0	2.0	Outcome2	0.3	-7.79	3.529	Yes	n/a	-8.09070294784581	n/a	n/a	n/a	ISIRate	Mixed
45.435	3.0	0.032	598.707	30.0	2	4.97	2.48	21.0301	70.0	2.8	Outcome1	4.97	13.5	0.0	No	2.0	-8.52834467120181	0.92	46.355	n/a	GetAnswer	Loss
46.368	4.0	0.013	599.64	30.0	2	4.97	2.48	21.0301	70.0	2.8	Outcome1	4.97	13.5	0.0	No	n/a	-8.52834467120181	n/a	n/a	n/a	ShowChoice	Loss
50.383	1.0	0.015	603.655	30.0	2	4.97	2.48	21.0301	70.0	2.8	Outcome1	4.97	13.5	0.0	No	n/a	-8.52834467120181	n/a	n/a	n/a	ShowResult	Loss
51.399	4.453	0.016	604.671	30.0	2	4.97	2.48	21.0301	70.0	2.8	Outcome1	4.97	13.5	0.0	No	n/a	-8.52834467120181	n/a	n/a	n/a	ISITrial	Loss
55.881	3.0	0.029	609.153	31.0	2	2.82	2.0	21.3826	70.0	2.48	Outcome1	2.82	0.9	2.50325	Yes	2.0	1.92176870748299	0.9	56.781	n/a	GetAnswer	Loss
56.797	4.0	0.016	610.069	31.0	2	2.82	2.0	21.3826	70.0	2.48	Outcome1	2.82	0.9	2.50325	Yes	n/a	1.92176870748299	n/a	n/a	n/a	ShowChoice	Loss
60.813	1.0	0.016	614.085	31.0	2	2.82	2.0	21.3826	70.0	2.48	Outcome1	2.82	0.9	2.50325	Yes	n/a	1.92176870748299	n/a	n/a	n/a	ShowResult	Loss
61.829	4.786	0.016	615.101	31.0	2	2.82	2.0	21.3826	70.0	2.48	Outcome1	2.82	0.9	2.50325	Yes	n/a	1.92176870748299	n/a	n/a	n/a	ISITrial	Loss
66.627	2.503	0.012	619.899	31.0	2	2.82	2.0	21.3826	70.0	2.48	Outcome1	2.82	0.9	2.50325	Yes	n/a	1.92176870748299	n/a	n/a	n/a	TrialHappPreview	Loss
69.16	4.015	0.03	622.432	31.0	2	2.82	2.0	21.3826	70.0	2.48	Outcome1	2.82	0.9	2.50325	Yes	2{-2}2{-2}2{-2}	1.92176870748299	1.456	70.616	544.0	TrialHappiness	Loss
69.16	1.016	n/a	622.872	31.0	2	2.82	2.0	21.3826	70.0	2.48	Outcome1	2.82	0.9	2.50325	Yes	n/a	1.92176870748299	n/a	n/a	544.0	TrialHappinessSliderResponse	Loss
73.175	2.013	4.015	626.447	31.0	2	2.82	2.0	21.3826	70.0	2.48	Outcome1	2.82	0.9	2.50325	Yes	n/a	1.92176870748299	n/a	n/a	n/a	ISIRate	Loss
75.208	3.0	0.02	628.48	32.0	2	-1.17	-0.58	21.2363	70.0	2.0	Outcome1	-1.17	8.9	0.0	No	2.0	-10.0748299319728	2.591	77.799	n/a	GetAnswer	Gain
77.823	4.0	0.024	631.095	32.0	2	-1.17	-0.58	21.2363	70.0	2.0	Outcome1	-1.17	8.9	0.0	No	n/a	-10.0748299319728	n/a	n/a	n/a	ShowChoice	Gain
81.839	1.0	0.016	635.111	32.0	2	-1.17	-0.58	21.2363	70.0	2.0	Outcome1	-1.17	8.9	0.0	No	n/a	-10.0748299319728	n/a	n/a	n/a	ShowResult	Gain
82.855	2.0	0.016	636.127	32.0	2	-1.17	-0.58	21.2363	70.0	2.0	Outcome1	-1.17	8.9	0.0	No	n/a	-10.0748299319728	n/a	n/a	n/a	ISITrial	Gain
84.871	3.0	0.016	638.143	33.0	2	-6.51	-1.0	20.4225	70.0	1.5	Outcome2	4.1	-6.51	0.0	No	2.0	-10.6122448979592	1.504	86.375	n/a	GetAnswer	Mixed
86.387	4.0	0.012	639.659	33.0	2	-6.51	-1.0	20.4225	70.0	1.5	Outcome2	4.1	-6.51	0.0	No	n/a	-10.6122448979592	n/a	n/a	n/a	ShowChoice	Mixed
90.402	1.0	0.015	643.674	33.0	2	-6.51	-1.0	20.4225	70.0	1.5	Outcome2	4.1	-6.51	0.0	No	n/a	-10.6122448979592	n/a	n/a	n/a	ShowResult	Mixed
91.419	5.099	0.017	644.691	33.0	2	-6.51	-1.0	20.4225	70.0	1.5	Outcome2	4.1	-6.51	0.0	No	n/a	-10.6122448979592	n/a	n/a	n/a	ISITrial	Mixed
96.534	3.0	0.016	649.806	34.0	2	1.48	0.0	20.6075	70.0	3.6	Outcome1	1.48	-0.7	3.2315	Yes	2.0	2.1831065759637203	1.608	98.142	n/a	GetAnswer	Gain
98.166	4.0	0.023	651.438	34.0	2	1.48	0.0	20.6075	70.0	3.6	Outcome1	1.48	-0.7	3.2315	Yes	n/a	2.1831065759637203	n/a	n/a	n/a	ShowChoice	Gain
102.182	1.0	0.016	655.454	34.0	2	1.48	0.0	20.6075	70.0	3.6	Outcome1	1.48	-0.7	3.2315	Yes	n/a	2.1831065759637203	n/a	n/a	n/a	ShowResult	Gain
103.198	4.784	0.016	656.47	34.0	2	1.48	0.0	20.6075	70.0	3.6	Outcome1	1.48	-0.7	3.2315	Yes	n/a	2.1831065759637203	n/a	n/a	n/a	ISITrial	Gain
107.996	3.232	0.014	661.268	34.0	2	1.48	0.0	20.6075	70.0	3.6	Outcome1	1.48	-0.7	3.2315	Yes	n/a	2.1831065759637203	n/a	n/a	n/a	TrialHappPreview	Gain
111.245	4.015	0.017	664.517	34.0	2	1.48	0.0	20.6075	70.0	3.6	Outcome1	1.48	-0.7	3.2315	Yes	n/a	2.1831065759637203	n/a	n/a	536.0	TrialHappiness	Gain
111.246	0.196	n/a	664.929	34.0	2	1.48	0.0	20.6075	70.0	3.6	Outcome1	1.48	-0.7	3.2315	Yes	n/a	2.1831065759637203	n/a	n/a	536.0	TrialHappinessSliderResponse	Gain
115.26	4.926	4.015	668.532	34.0	2	1.48	0.0	20.6075	70.0	3.6	Outcome1	1.48	-0.7	3.2315	Yes	n/a	2.1831065759637203	n/a	n/a	n/a	ISIRate	Gain
120.209	3.0	0.023	673.481	35.0	2	-4.25	1.0	20.0763	70.0	2.48	Outcome2	7.3	-4.25	0.0	No	2.0	-11.551020408163302	1.869	122.078	n/a	GetAnswer	Gain
122.091	4.0	0.013	675.363	35.0	2	-4.25	1.0	20.0763	70.0	2.48	Outcome2	7.3	-4.25	0.0	No	n/a	-11.551020408163302	n/a	n/a	n/a	ShowChoice	Gain
126.107	1.0	0.016	679.379	35.0	2	-4.25	1.0	20.0763	70.0	2.48	Outcome2	7.3	-4.25	0.0	No	n/a	-11.551020408163302	n/a	n/a	n/a	ShowResult	Gain
127.123	2.098	0.016	680.395	35.0	2	-4.25	1.0	20.0763	70.0	2.48	Outcome2	7.3	-4.25	0.0	No	n/a	-11.551020408163302	n/a	n/a	n/a	ISITrial	Gain
129.239	3.0	0.018	682.511	36.0	2	-3.98	2.0	19.5788	70.0	4.2	Outcome1	-3.98	8.1	3.33575	Yes	2.0	-12.0793650793651	2.309	131.548	n/a	GetAnswer	Gain
131.571	4.0	0.023	684.843	36.0	2	-3.98	2.0	19.5788	70.0	4.2	Outcome1	-3.98	8.1	3.33575	Yes	n/a	-12.0793650793651	n/a	n/a	n/a	ShowChoice	Gain
135.587	1.0	0.016	688.859	36.0	2	-3.98	2.0	19.5788	70.0	4.2	Outcome1	-3.98	8.1	3.33575	Yes	n/a	-12.0793650793651	n/a	n/a	n/a	ShowResult	Gain
136.603	5.156	0.016	689.875	36.0	2	-3.98	2.0	19.5788	70.0	4.2	Outcome1	-3.98	8.1	3.33575	Yes	n/a	-12.0793650793651	n/a	n/a	n/a	ISITrial	Gain
141.785	3.336	0.026	695.057	36.0	2	-3.98	2.0	19.5788	70.0	4.2	Outcome1	-3.98	8.1	3.33575	Yes	n/a	-12.0793650793651	n/a	n/a	n/a	TrialHappPreview	Gain
145.15	4.015	0.029	698.422	36.0	2	-3.98	2.0	19.5788	70.0	4.2	Outcome1	-3.98	8.1	3.33575	Yes	n/a	-12.0793650793651	n/a	n/a	512.0	TrialHappiness	Gain
145.151	0.0	n/a	698.423	36.0	2	-3.98	2.0	19.5788	70.0	4.2	Outcome1	-3.98	8.1	3.33575	Yes	n/a	-12.0793650793651	n/a	n/a	512.0	TrialHappinessSliderResponse	Gain
149.165	5.343	4.015	702.437	36.0	2	-3.98	2.0	19.5788	70.0	4.2	Outcome1	-3.98	8.1	3.33575	Yes	n/a	-12.0793650793651	n/a	n/a	n/a	ISIRate	Gain
154.53	3.0	0.022	707.802	37.0	2	2.52	1.0	19.8938	70.0	4.2	Outcome1	2.52	0.33	0.0	No	2.0	2.1859410430839	0.911	155.441	n/a	GetAnswer	Gain
155.463	4.0	0.021	708.735	37.0	2	2.52	1.0	19.8938	70.0	4.2	Outcome1	2.52	0.33	0.0	No	n/a	2.1859410430839	n/a	n/a	n/a	ShowChoice	Gain
159.478	1.0	0.015	712.75	37.0	2	2.52	1.0	19.8938	70.0	4.2	Outcome1	2.52	0.33	0.0	No	n/a	2.1859410430839	n/a	n/a	n/a	ShowResult	Gain
160.495	3.598	0.017	713.767	37.0	2	2.52	1.0	19.8938	70.0	4.2	Outcome1	2.52	0.33	0.0	No	n/a	2.1859410430839	n/a	n/a	n/a	ISITrial	Gain
164.11	3.0	0.017	717.382	38.0	2	2.42	1.0	20.1963	70.0	3.16	Outcome1	2.42	0.19	0.0	No	2.0	2.2277021919879103	0.68	164.79	n/a	GetAnswer	Gain
164.81	4.0	0.02	718.082	38.0	2	2.42	1.0	20.1963	70.0	3.16	Outcome1	2.42	0.19	0.0	No	n/a	2.2277021919879103	n/a	n/a	n/a	ShowChoice	Gain
168.825	1.0	0.015	722.097	38.0	2	2.42	1.0	20.1963	70.0	3.16	Outcome1	2.42	0.19	0.0	No	n/a	2.2277021919879103	n/a	n/a	n/a	ShowResult	Gain
169.841	4.787	0.016	723.113	38.0	2	2.42	1.0	20.1963	70.0	3.16	Outcome1	2.42	0.19	0.0	No	n/a	2.2277021919879103	n/a	n/a	n/a	ISITrial	Gain
174.657	3.0	0.029	727.929	39.0	2	2.98	2.0	20.5688	70.0	3.6	Outcome2	0.71	2.98	2.86425	Yes	2.0	2.2694633408919103	1.015	175.672	n/a	GetAnswer	Loss
175.689	4.0	0.017	728.961	39.0	2	2.98	2.0	20.5688	70.0	3.6	Outcome2	0.71	2.98	2.86425	Yes	n/a	2.2694633408919103	n/a	n/a	n/a	ShowChoice	Loss
179.705	1.0	0.016	732.977	39.0	2	2.98	2.0	20.5688	70.0	3.6	Outcome2	0.71	2.98	2.86425	Yes	n/a	2.2694633408919103	n/a	n/a	n/a	ShowResult	Loss
180.721	2.348	0.016	733.993	39.0	2	2.98	2.0	20.5688	70.0	3.6	Outcome2	0.71	2.98	2.86425	Yes	n/a	2.2694633408919103	n/a	n/a	n/a	ISITrial	Loss
183.087	2.864	0.018	736.359	39.0	2	2.98	2.0	20.5688	70.0	3.6	Outcome2	0.71	2.98	2.86425	Yes	n/a	2.2694633408919103	n/a	n/a	n/a	TrialHappPreview	Loss
185.969	4.016	0.018	739.241	39.0	2	2.98	2.0	20.5688	70.0	3.6	Outcome2	0.71	2.98	2.86425	Yes	n/a	2.2694633408919103	n/a	n/a	540.0	TrialHappiness	Loss
185.97	0.643	n/a	739.69	39.0	2	2.98	2.0	20.5688	70.0	3.6	Outcome2	0.71	2.98	2.86425	Yes	n/a	2.2694633408919103	n/a	n/a	540.0	TrialHappinessSliderResponse	Loss
189.985	3.457	4.016	743.257	39.0	2	2.98	2.0	20.5688	70.0	3.6	Outcome2	0.71	2.98	2.86425	Yes	n/a	2.2694633408919103	n/a	n/a	n/a	ISIRate	Loss
193.467	3.0	0.025	746.739	40.0	2	-8.0	-8.0	19.5688	70.0	0.52	Certain	-15.08	-0.9	0.0	No	4.0	-14.1791383219955	1.242	194.709	n/a	GetAnswer	Mixed
194.733	4.0	0.024	748.005	40.0	2	-8.0	-8.0	19.5688	70.0	0.52	Certain	-15.08	-0.9	0.0	No	n/a	-14.1791383219955	n/a	n/a	n/a	ShowChoice	Mixed
198.748	1.0	0.015	752.02	40.0	2	-8.0	-8.0	19.5688	70.0	0.52	Certain	-15.08	-0.9	0.0	No	n/a	-14.1791383219955	n/a	n/a	n/a	ShowResult	Mixed
199.764	3.158	0.016	753.036	40.0	2	-8.0	-8.0	19.5688	70.0	0.52	Certain	-15.08	-0.9	0.0	No	n/a	-14.1791383219955	n/a	n/a	n/a	ISITrial	Mixed
202.947	3.0	0.025	756.219	41.0	2	0.0	0.0	19.5688	70.0	2.0	Certain	0.57	-1.9	4.0	Yes	4.0	2.46938775510204	1.832	204.779	n/a	GetAnswer	Mixed
204.796	4.0	0.017	758.068	41.0	2	0.0	0.0	19.5688	70.0	2.0	Certain	0.57	-1.9	4.0	Yes	n/a	2.46938775510204	n/a	n/a	n/a	ShowChoice	Mixed
208.811	1.0	0.015	762.083	41.0	2	0.0	0.0	19.5688	70.0	2.0	Certain	0.57	-1.9	4.0	Yes	n/a	2.46938775510204	n/a	n/a	n/a	ShowResult	Mixed
209.828	4.506	0.017	763.1	41.0	2	0.0	0.0	19.5688	70.0	2.0	Certain	0.57	-1.9	4.0	Yes	n/a	2.46938775510204	n/a	n/a	n/a	ISITrial	Mixed
214.359	4.0	0.025	767.631	41.0	2	0.0	0.0	19.5688	70.0	2.0	Certain	0.57	-1.9	4.0	Yes	n/a	2.46938775510204	n/a	n/a	n/a	TrialHappPreview	Mixed
218.375	4.015	0.016	771.647	41.0	2	0.0	0.0	19.5688	70.0	2.0	Certain	0.57	-1.9	4.0	Yes	n/a	2.46938775510204	n/a	n/a	512.0	TrialHappiness	Mixed
218.375	0.0	n/a	771.647	41.0	2	0.0	0.0	19.5688	70.0	2.0	Certain	0.57	-1.9	4.0	Yes	n/a	2.46938775510204	n/a	n/a	512.0	TrialHappinessSliderResponse	Mixed
222.39	8.0	4.015	775.662	41.0	2	0.0	0.0	19.5688	70.0	2.0	Certain	0.57	-1.9	4.0	Yes	n/a	2.46938775510204	n/a	n/a	n/a	ISIRate	Mixed
230.421	3.0	0.031	783.693	42.0	2	-2.0	-2.0	19.3188	70.0	2.22	Certain	-9.67	5.1	0.0	No	4.0	-14.7687074829932	2.195	232.616	n/a	GetAnswer	Gain
232.636	4.0	0.02	785.908	42.0	2	-2.0	-2.0	19.3188	70.0	2.22	Certain	-9.67	5.1	0.0	No	n/a	-14.7687074829932	n/a	n/a	n/a	ShowChoice	Gain
236.652	1.0	0.016	789.924	42.0	2	-2.0	-2.0	19.3188	70.0	2.22	Certain	-9.67	5.1	0.0	No	n/a	-14.7687074829932	n/a	n/a	n/a	ShowResult	Gain
237.668	6.248	0.016	790.94	42.0	2	-2.0	-2.0	19.3188	70.0	2.22	Certain	-9.67	5.1	0.0	No	n/a	-14.7687074829932	n/a	n/a	n/a	ISITrial	Gain
243.933	3.0	0.017	797.205	43.0	2	-7.0	-7.0	18.4438	70.0	0.2	Certain	-14.77	0.5	2.77575	Yes	4.0	-15.2698412698413	1.658	245.591	n/a	GetAnswer	Mixed
245.615	4.0	0.024	798.887	43.0	2	-7.0	-7.0	18.4438	70.0	0.2	Certain	-14.77	0.5	2.77575	Yes	n/a	-15.2698412698413	n/a	n/a	n/a	ShowChoice	Mixed
249.631	1.0	0.016	802.903	43.0	2	-7.0	-7.0	18.4438	70.0	0.2	Certain	-14.77	0.5	2.77575	Yes	n/a	-15.2698412698413	n/a	n/a	n/a	ShowResult	Mixed
250.647	4.596	0.016	803.919	43.0	2	-7.0	-7.0	18.4438	70.0	0.2	Certain	-14.77	0.5	2.77575	Yes	n/a	-15.2698412698413	n/a	n/a	n/a	ISITrial	Mixed
255.262	2.776	0.019	808.534	43.0	2	-7.0	-7.0	18.4438	70.0	0.2	Certain	-14.77	0.5	2.77575	Yes	n/a	-15.2698412698413	n/a	n/a	n/a	TrialHappPreview	Mixed
258.061	4.015	0.023	811.333	43.0	2	-7.0	-7.0	18.4438	70.0	0.2	Certain	-14.77	0.5	2.77575	Yes	n/a	-15.2698412698413	n/a	n/a	512.0	TrialHappiness	Mixed
258.062	0.0	n/a	811.334	43.0	2	-7.0	-7.0	18.4438	70.0	0.2	Certain	-14.77	0.5	2.77575	Yes	n/a	-15.2698412698413	n/a	n/a	512.0	TrialHappinessSliderResponse	Mixed
262.076	3.103	4.015	815.348	43.0	2	-7.0	-7.0	18.4438	70.0	0.2	Certain	-14.77	0.5	2.77575	Yes	n/a	-15.2698412698413	n/a	n/a	n/a	ISIRate	Mixed
265.209	3.0	0.03	818.481	44.0	2	-9.0	-9.0	17.3188	70.0	0.4	Certain	-1.1	-16.87	0.0	No	4.0	-15.7709750566893	1.654	266.863	n/a	GetAnswer	Mixed
266.875	4.0	0.012	820.147	44.0	2	-9.0	-9.0	17.3188	70.0	0.4	Certain	-1.1	-16.87	0.0	No	n/a	-15.7709750566893	n/a	n/a	n/a	ShowChoice	Mixed
270.89	1.0	0.015	824.162	44.0	2	-9.0	-9.0	17.3188	70.0	0.4	Certain	-1.1	-16.87	0.0	No	n/a	-15.7709750566893	n/a	n/a	n/a	ShowResult	Mixed
271.906	2.42	0.016	825.178	44.0	2	-9.0	-9.0	17.3188	70.0	0.4	Certain	-1.1	-16.87	0.0	No	n/a	-15.7709750566893	n/a	n/a	n/a	ISITrial	Mixed
274.355	3.0	0.029	827.627	45.0	2	0.0	0.0	17.3188	70.0	5.0	Certain	-0.95	1.58	0.0	No	4.0	2.52532123960695	1.695	276.05	n/a	GetAnswer	Gain
276.071	4.0	0.021	829.343	45.0	2	0.0	0.0	17.3188	70.0	5.0	Certain	-0.95	1.58	0.0	No	n/a	2.52532123960695	n/a	n/a	n/a	ShowChoice	Gain
280.087	1.0	0.016	833.359	45.0	2	0.0	0.0	17.3188	70.0	5.0	Certain	-0.95	1.58	0.0	No	n/a	2.52532123960695	n/a	n/a	n/a	ShowResult	Gain
281.103	3.144	0.016	834.375	45.0	2	0.0	0.0	17.3188	70.0	5.0	Certain	-0.95	1.58	0.0	No	n/a	2.52532123960695	n/a	n/a	n/a	ISITrial	Gain
284.269	3.0	0.022	837.541	46.0	2	-4.07	-2.04	16.81	70.0	1.82	Outcome1	-4.07	12.7	3.84125	Yes	2.0	-16.7732426303855	2.033	286.302	n/a	GetAnswer	Loss
286.318	4.0	0.016	839.59	46.0	2	-4.07	-2.04	16.81	70.0	1.82	Outcome1	-4.07	12.7	3.84125	Yes	n/a	-16.7732426303855	n/a	n/a	n/a	ShowChoice	Loss
290.333	1.0	0.015	843.605	46.0	2	-4.07	-2.04	16.81	70.0	1.82	Outcome1	-4.07	12.7	3.84125	Yes	n/a	-16.7732426303855	n/a	n/a	n/a	ShowResult	Loss
291.349	2.246	0.016	844.621	46.0	2	-4.07	-2.04	16.81	70.0	1.82	Outcome1	-4.07	12.7	3.84125	Yes	n/a	-16.7732426303855	n/a	n/a	n/a	ISITrial	Loss
293.615	3.841	0.02	846.887	46.0	2	-4.07	-2.04	16.81	70.0	1.82	Outcome1	-4.07	12.7	3.84125	Yes	n/a	-16.7732426303855	n/a	n/a	n/a	TrialHappPreview	Loss
297.481	4.015	0.025	850.753	46.0	2	-4.07	-2.04	16.81	70.0	1.82	Outcome1	-4.07	12.7	3.84125	Yes	n/a	-16.7732426303855	n/a	n/a	452.0	TrialHappiness	Loss
297.481	1.925	n/a	851.334	46.0	2	-4.07	-2.04	16.81	70.0	1.82	Outcome1	-4.07	12.7	3.84125	Yes	n/a	-16.7732426303855	n/a	n/a	452.0	TrialHappinessSliderResponse	Loss
301.496	7.365	4.015	854.768	46.0	2	-4.07	-2.04	16.81	70.0	1.82	Outcome1	-4.07	12.7	3.84125	Yes	n/a	-16.7732426303855	n/a	n/a	n/a	ISIRate	Loss
308.877	3.0	0.016	862.149	47.0	2	3.02	2.0	17.1875	70.0	4.2	Outcome1	3.02	0.65	0.0	No	2.0	2.36507936507936	0.987	309.864	n/a	GetAnswer	Loss
309.876	4.0	0.012	863.148	47.0	2	3.02	2.0	17.1875	70.0	4.2	Outcome1	3.02	0.65	0.0	No	n/a	2.36507936507936	n/a	n/a	n/a	ShowChoice	Loss
313.892	1.0	0.016	867.164	47.0	2	3.02	2.0	17.1875	70.0	4.2	Outcome1	3.02	0.65	0.0	No	n/a	2.36507936507936	n/a	n/a	n/a	ShowResult	Loss
314.908	2.0	0.016	868.18	47.0	2	3.02	2.0	17.1875	70.0	4.2	Outcome1	3.02	0.65	0.0	No	n/a	2.36507936507936	n/a	n/a	n/a	ISITrial	Loss
316.924	3.0	0.016	870.196	48.0	2	0.32	-1.0	17.2275	70.0	0.66	Outcome2	-2.08	0.32	2.83175	Yes	2.0	2.4011715797430098	1.457	318.381	n/a	GetAnswer	Mixed
318.407	4.0	0.026	871.679	48.0	2	0.32	-1.0	17.2275	70.0	0.66	Outcome2	-2.08	0.32	2.83175	Yes	n/a	2.4011715797430098	n/a	n/a	n/a	ShowChoice	Mixed
322.422	1.0	0.015	875.694	48.0	2	0.32	-1.0	17.2275	70.0	0.66	Outcome2	-2.08	0.32	2.83175	Yes	n/a	2.4011715797430098	n/a	n/a	n/a	ShowResult	Mixed
323.438	3.692	0.016	876.71	48.0	2	0.32	-1.0	17.2275	70.0	0.66	Outcome2	-2.08	0.32	2.83175	Yes	n/a	2.4011715797430098	n/a	n/a	n/a	ISITrial	Mixed
327.154	2.832	0.024	880.426	48.0	2	0.32	-1.0	17.2275	70.0	0.66	Outcome2	-2.08	0.32	2.83175	Yes	n/a	2.4011715797430098	n/a	n/a	n/a	TrialHappPreview	Mixed
330.003	4.015	0.017	883.275	48.0	2	0.32	-1.0	17.2275	70.0	0.66	Outcome2	-2.08	0.32	2.83175	Yes	n/a	2.4011715797430098	n/a	n/a	512.0	TrialHappiness	Mixed
330.003	0.0	n/a	883.275	48.0	2	0.32	-1.0	17.2275	70.0	0.66	Outcome2	-2.08	0.32	2.83175	Yes	n/a	2.4011715797430098	n/a	n/a	512.0	TrialHappinessSliderResponse	Mixed
334.018	3.327	4.015	887.29	48.0	2	0.32	-1.0	17.2275	70.0	0.66	Outcome2	-2.08	0.32	2.83175	Yes	n/a	2.4011715797430098	n/a	n/a	n/a	ISIRate	Mixed
337.367	3.0	0.022	890.639	49.0	2	-4.24	-2.12	16.6975	70.0	3.6	Outcome1	-4.24	13.9	0.0	No	2.0	-18.140589569161	1.142	338.509	n/a	GetAnswer	Loss
338.533	4.0	0.024	891.805	49.0	2	-4.24	-2.12	16.6975	70.0	3.6	Outcome1	-4.24	13.9	0.0	No	n/a	-18.140589569161	n/a	n/a	n/a	ShowChoice	Loss
342.548	1.0	0.015	895.82	49.0	2	-4.24	-2.12	16.6975	70.0	3.6	Outcome1	-4.24	13.9	0.0	No	n/a	-18.140589569161	n/a	n/a	n/a	ShowResult	Loss
343.565	8.0	0.017	896.837	49.0	2	-4.24	-2.12	16.6975	70.0	3.6	Outcome1	-4.24	13.9	0.0	No	n/a	-18.140589569161	n/a	n/a	n/a	ISITrial	Loss
351.595	3.0	0.03	904.867	50.0	2	1.23	0.0	16.8513	70.0	2.0	Outcome1	1.23	-1.49	3.54725	Yes	2.0	2.72278911564626	1.558	353.153	n/a	GetAnswer	Gain
353.178	4.0	0.025	906.45	50.0	2	1.23	0.0	16.8513	70.0	2.0	Outcome1	1.23	-1.49	3.54725	Yes	n/a	2.72278911564626	n/a	n/a	n/a	ShowChoice	Gain
357.193	1.0	0.015	910.465	50.0	2	1.23	0.0	16.8513	70.0	2.0	Outcome1	1.23	-1.49	3.54725	Yes	n/a	2.72278911564626	n/a	n/a	n/a	ShowResult	Gain
358.21	7.537	0.017	911.482	50.0	2	1.23	0.0	16.8513	70.0	2.0	Outcome1	1.23	-1.49	3.54725	Yes	n/a	2.72278911564626	n/a	n/a	n/a	ISITrial	Gain
365.774	3.547	0.027	919.046	50.0	2	1.23	0.0	16.8513	70.0	2.0	Outcome1	1.23	-1.49	3.54725	Yes	n/a	2.72278911564626	n/a	n/a	n/a	TrialHappPreview	Gain
369.339	4.015	0.018	922.611	50.0	2	1.23	0.0	16.8513	70.0	2.0	Outcome1	1.23	-1.49	3.54725	Yes	n/a	2.72278911564626	n/a	n/a	512.0	TrialHappiness	Gain
369.34	0.0	n/a	922.612	50.0	2	1.23	0.0	16.8513	70.0	2.0	Outcome1	1.23	-1.49	3.54725	Yes	n/a	2.72278911564626	n/a	n/a	512.0	TrialHappinessSliderResponse	Gain
373.354	6.189	4.015	926.626	50.0	2	1.23	0.0	16.8513	70.0	2.0	Outcome1	1.23	-1.49	3.54725	Yes	n/a	2.72278911564626	n/a	n/a	n/a	ISIRate	Gain
379.569	3.0	0.026	932.841	51.0	2	-8.44	1.0	15.7963	70.0	1.82	Outcome1	-8.44	10.7	0.0	No	2.0	-19.1428571428571	1.362	380.931	n/a	GetAnswer	Loss
380.952	4.0	0.021	934.224	51.0	2	-8.44	1.0	15.7963	70.0	1.82	Outcome1	-8.44	10.7	0.0	No	n/a	-19.1428571428571	n/a	n/a	n/a	ShowChoice	Loss
384.967	1.0	0.015	938.239	51.0	2	-8.44	1.0	15.7963	70.0	1.82	Outcome1	-8.44	10.7	0.0	No	n/a	-19.1428571428571	n/a	n/a	n/a	ShowResult	Loss
385.983	5.508	0.016	939.255	51.0	2	-8.44	1.0	15.7963	70.0	1.82	Outcome1	-8.44	10.7	0.0	No	n/a	-19.1428571428571	n/a	n/a	n/a	ISITrial	Loss
391.515	3.0	0.024	944.787	52.0	2	-5.94	-2.97	15.0538	70.0	3.16	Outcome2	13.7	-5.94	0.0	No	2.0	-19.6439909297052	1.244	392.759	n/a	GetAnswer	Loss
392.781	4.0	0.021	946.053	52.0	2	-5.94	-2.97	15.0538	70.0	3.16	Outcome2	13.7	-5.94	0.0	No	n/a	-19.6439909297052	n/a	n/a	n/a	ShowChoice	Loss
396.796	1.0	0.015	950.068	52.0	2	-5.94	-2.97	15.0538	70.0	3.16	Outcome2	13.7	-5.94	0.0	No	n/a	-19.6439909297052	n/a	n/a	n/a	ShowResult	Loss
397.813	5.913	0.017	951.085	52.0	2	-5.94	-2.97	15.0538	70.0	3.16	Outcome2	13.7	-5.94	0.0	No	n/a	-19.6439909297052	n/a	n/a	n/a	ISITrial	Loss
403.744	3.0	0.018	957.016	53.0	2	-4.0	-4.0	14.5538	70.0	2.8	Certain	5.5	-14.65	2.99675	Yes	4.0	-20.1451247165533	1.698	405.442	n/a	GetAnswer	Gain
405.46	4.0	0.018	958.732	53.0	2	-4.0	-4.0	14.5538	70.0	2.8	Certain	5.5	-14.65	2.99675	Yes	n/a	-20.1451247165533	n/a	n/a	n/a	ShowChoice	Gain
409.475	1.0	0.015	962.747	53.0	2	-4.0	-4.0	14.5538	70.0	2.8	Certain	5.5	-14.65	2.99675	Yes	n/a	-20.1451247165533	n/a	n/a	n/a	ShowResult	Gain
410.492	3.66	0.017	963.764	53.0	2	-4.0	-4.0	14.5538	70.0	2.8	Certain	5.5	-14.65	2.99675	Yes	n/a	-20.1451247165533	n/a	n/a	n/a	ISITrial	Gain
414.174	2.997	0.022	967.446	53.0	2	-4.0	-4.0	14.5538	70.0	2.8	Certain	5.5	-14.65	2.99675	Yes	n/a	-20.1451247165533	n/a	n/a	n/a	TrialHappPreview	Gain
417.189	4.016	0.018	970.461	53.0	2	-4.0	-4.0	14.5538	70.0	2.8	Certain	5.5	-14.65	2.99675	Yes	n/a	-20.1451247165533	n/a	n/a	448.0	TrialHappiness	Gain
417.19	0.278	n/a	971.023	53.0	2	-4.0	-4.0	14.5538	70.0	2.8	Certain	5.5	-14.65	2.99675	Yes	n/a	-20.1451247165533	n/a	n/a	448.0	TrialHappinessSliderResponse	Gain
421.205	3.987	4.016	974.477	53.0	2	-4.0	-4.0	14.5538	70.0	2.8	Certain	5.5	-14.65	2.99675	Yes	n/a	-20.1451247165533	n/a	n/a	n/a	ISIRate	Gain
425.22	3.0	0.028	978.492	54.0	2	0.0	0.0	14.5538	70.0	2.48	Certain	-10.26	9.3	0.0	No	4.0	-19.557823129251695	1.498	426.718	n/a	GetAnswer	Gain
426.736	4.0	0.018	980.008	54.0	2	0.0	0.0	14.5538	70.0	2.48	Certain	-10.26	9.3	0.0	No	n/a	-19.557823129251695	n/a	n/a	n/a	ShowChoice	Gain
430.751	1.0	0.015	984.023	54.0	2	0.0	0.0	14.5538	70.0	2.48	Certain	-10.26	9.3	0.0	No	n/a	-19.557823129251695	n/a	n/a	n/a	ShowResult	Gain
431.768	8.0	0.017	985.04	54.0	2	0.0	0.0	14.5538	70.0	2.48	Certain	-10.26	9.3	0.0	No	n/a	-19.557823129251695	n/a	n/a	n/a	ISITrial	Gain
508.941	0.111	n/a	1062.883	n/a	2	n/a	n/a	n/a	n/a	n/a	n/a	n/a	n/a	n/a	n/a	n/a	n/a	n/a	n/a	532.0	BlockStartHappinessSliderResponse	n/a
-78.456	-0.001	0.03	993.07	n/a	3	n/a	n/a	n/a	n/a	n/a	n/a	n/a	n/a	n/a	n/a	{SPACE}	n/a	65.113	-13.343	n/a	Rest	n/a
-13.328	4.0	0.015	1058.198	n/a	3	n/a	n/a	n/a	n/a	n/a	n/a	n/a	n/a	n/a	n/a	n/a	n/a	n/a	n/a	n/a	BlockHappyPreview	n/a
-9.313	0.781	0.015	1062.213	n/a	3	n/a	n/a	n/a	n/a	n/a	n/a	n/a	n/a	n/a	n/a	n/a	n/a	n/a	n/a	532.0	BlockStartHappiness	n/a
-3.632	-0.001	0.015	1067.894	n/a	3	n/a	n/a	n/a	n/a	n/a	n/a	n/a	n/a	n/a	n/a	5.0	n/a	3.622	-0.01	n/a	ScanWait	n/a
0.0	10.0	0.01	1071.526	n/a	3	n/a	n/a	n/a	n/a	n/a	n/a	n/a	n/a	n/a	n/a	n/a	n/a	n/a	n/a	n/a	GetReady	n/a
10.03	3.0	0.03	1081.556	55.0	3	-1.0	-1.0	14.4288	955.0	1.5	Certain	-5.09	2.1	2.53325	Yes	4.0	7.18573046432616	1.73	11.76	n/a	GetAnswer	Mixed
11.78	4.0	0.02	1083.306	55.0	3	-1.0	-1.0	14.4288	955.0	1.5	Certain	-5.09	2.1	2.53325	Yes	n/a	7.18573046432616	n/a	n/a	n/a	ShowChoice	Mixed
15.795	1.0	0.015	1087.321	55.0	3	-1.0	-1.0	14.4288	955.0	1.5	Certain	-5.09	2.1	2.53325	Yes	n/a	7.18573046432616	n/a	n/a	n/a	ShowResult	Mixed
16.811	7.709	0.016	1088.337	55.0	3	-1.0	-1.0	14.4288	955.0	1.5	Certain	-5.09	2.1	2.53325	Yes	n/a	7.18573046432616	n/a	n/a	n/a	ISITrial	Mixed
24.542	2.533	0.022	1096.068	55.0	3	-1.0	-1.0	14.4288	955.0	1.5	Certain	-5.09	2.1	2.53325	Yes	n/a	7.18573046432616	n/a	n/a	n/a	TrialHappPreview	Mixed
27.091	4.015	0.016	1098.617	55.0	3	-1.0	-1.0	14.4288	955.0	1.5	Certain	-5.09	2.1	2.53325	Yes	n/a	7.18573046432616	n/a	n/a	512.0	TrialHappiness	Mixed
27.092	0.0	n/a	1098.618	55.0	3	-1.0	-1.0	14.4288	955.0	1.5	Certain	-5.09	2.1	2.53325	Yes	n/a	7.18573046432616	n/a	n/a	512.0	TrialHappinessSliderResponse	Mixed
31.106	2.133	4.015	1102.632	55.0	3	-1.0	-1.0	14.4288	955.0	1.5	Certain	-5.09	2.1	2.53325	Yes	n/a	7.18573046432616	n/a	n/a	n/a	ISIRate	Mixed
33.256	3.0	0.017	1104.782	56.0	3	9.26	4.63	15.5863	955.0	2.22	Outcome1	9.26	11.1	0.0	No	2.0	-1.8376745941864896	1.039	34.295	n/a	GetAnswer	Loss
34.322	4.0	0.027	1105.848	56.0	3	9.26	4.63	15.5863	955.0	2.22	Outcome1	9.26	11.1	0.0	No	n/a	-1.8376745941864896	n/a	n/a	n/a	ShowChoice	Loss
38.337	1.0	0.015	1109.863	56.0	3	9.26	4.63	15.5863	955.0	2.22	Outcome1	9.26	11.1	0.0	No	n/a	-1.8376745941864896	n/a	n/a	n/a	ShowResult	Loss
39.353	4.697	0.016	1110.879	56.0	3	9.26	4.63	15.5863	955.0	2.22	Outcome1	9.26	11.1	0.0	No	n/a	-1.8376745941864896	n/a	n/a	n/a	ISITrial	Loss
44.068	3.0	0.018	1115.594	57.0	3	12.3	1.9	17.1238	955.0	5.0	Outcome2	3.79	12.3	0.0	No	2.0	8.50622876557191	1.071	45.139	n/a	GetAnswer	Loss
45.151	4.0	0.012	1116.677	57.0	3	12.3	1.9	17.1238	955.0	5.0	Outcome2	3.79	12.3	0.0	No	n/a	8.50622876557191	n/a	n/a	n/a	ShowChoice	Loss
49.167	1.0	0.016	1120.693	57.0	3	12.3	1.9	17.1238	955.0	5.0	Outcome2	3.79	12.3	0.0	No	n/a	8.50622876557191	n/a	n/a	n/a	ShowResult	Loss
50.183	4.291	0.016	1121.709	57.0	3	12.3	1.9	17.1238	955.0	5.0	Outcome2	3.79	12.3	0.0	No	n/a	8.50622876557191	n/a	n/a	n/a	ISITrial	Loss
54.498	3.0	0.024	1126.024	58.0	3	8.7	-0.16	18.2113	955.0	1.82	Outcome1	8.7	-0.31	3.04575	Yes	2.0	9.0079275198188	1.385	55.883	n/a	GetAnswer	Gain
55.898	4.0	0.015	1127.424	58.0	3	8.7	-0.16	18.2113	955.0	1.82	Outcome1	8.7	-0.31	3.04575	Yes	n/a	9.0079275198188	n/a	n/a	n/a	ShowChoice	Gain
59.913	1.0	0.015	1131.439	58.0	3	8.7	-0.16	18.2113	955.0	1.82	Outcome1	8.7	-0.31	3.04575	Yes	n/a	9.0079275198188	n/a	n/a	n/a	ShowResult	Gain
60.929	2.037	0.016	1132.455	58.0	3	8.7	-0.16	18.2113	955.0	1.82	Outcome1	8.7	-0.31	3.04575	Yes	n/a	9.0079275198188	n/a	n/a	n/a	ISITrial	Gain
62.979	3.046	0.013	1134.505	58.0	3	8.7	-0.16	18.2113	955.0	1.82	Outcome1	8.7	-0.31	3.04575	Yes	n/a	9.0079275198188	n/a	n/a	n/a	TrialHappPreview	Gain
66.044	4.015	0.019	1137.57	58.0	3	8.7	-0.16	18.2113	955.0	1.82	Outcome1	8.7	-0.31	3.04575	Yes	n/a	9.0079275198188	n/a	n/a	628.0	TrialHappiness	Gain
66.045	0.574	n/a	1138.136	58.0	3	8.7	-0.16	18.2113	955.0	1.82	Outcome1	8.7	-0.31	3.04575	Yes	n/a	9.0079275198188	n/a	n/a	628.0	TrialHappinessSliderResponse	Gain
70.059	4.183	4.015	1141.585	58.0	3	8.7	-0.16	18.2113	955.0	1.82	Outcome1	8.7	-0.31	3.04575	Yes	n/a	9.0079275198188	n/a	n/a	n/a	ISIRate	Gain
74.258	3.0	0.016	1145.784	59.0	3	-1.59	-1.0	18.0125	955.0	1.2	Outcome2	-0.1	-1.59	0.0	No	2.0	-1.4923556058890102	1.998	76.256	n/a	GetAnswer	Mixed
76.274	4.0	0.018	1147.8	59.0	3	-1.59	-1.0	18.0125	955.0	1.2	Outcome2	-0.1	-1.59	0.0	No	n/a	-1.4923556058890102	n/a	n/a	n/a	ShowChoice	Mixed
80.289	1.0	0.015	1151.815	59.0	3	-1.59	-1.0	18.0125	955.0	1.2	Outcome2	-0.1	-1.59	0.0	No	n/a	-1.4923556058890102	n/a	n/a	n/a	ShowResult	Mixed
81.306	5.064	0.017	1152.832	59.0	3	-1.59	-1.0	18.0125	955.0	1.2	Outcome2	-0.1	-1.59	0.0	No	n/a	-1.4923556058890102	n/a	n/a	n/a	ISITrial	Mixed
86.387	3.0	0.017	1157.913	60.0	3	-3.0	-3.0	17.6375	955.0	0.52	Certain	-6.81	1.1	3.5625	Yes	4.0	7.909399773499429	1.813	88.2	n/a	GetAnswer	Mixed
88.22	4.0	0.02	1159.746	60.0	3	-3.0	-3.0	17.6375	955.0	0.52	Certain	-6.81	1.1	3.5625	Yes	n/a	7.909399773499429	n/a	n/a	n/a	ShowChoice	Mixed
92.235	1.0	0.015	1163.761	60.0	3	-3.0	-3.0	17.6375	955.0	0.52	Certain	-6.81	1.1	3.5625	Yes	n/a	7.909399773499429	n/a	n/a	n/a	ShowResult	Mixed
93.251	8.0	0.016	1164.777	60.0	3	-3.0	-3.0	17.6375	955.0	0.52	Certain	-6.81	1.1	3.5625	Yes	n/a	7.909399773499429	n/a	n/a	n/a	ISITrial	Mixed
101.265	3.562	0.014	1172.791	60.0	3	-3.0	-3.0	17.6375	955.0	0.52	Certain	-6.81	1.1	3.5625	Yes	n/a	7.909399773499429	n/a	n/a	n/a	TrialHappPreview	Mixed
104.847	4.016	0.02	1176.373	60.0	3	-3.0	-3.0	17.6375	955.0	0.52	Certain	-6.81	1.1	3.5625	Yes	n/a	7.909399773499429	n/a	n/a	512.0	TrialHappiness	Mixed
104.848	0.0	n/a	1176.374	60.0	3	-3.0	-3.0	17.6375	955.0	0.52	Certain	-6.81	1.1	3.5625	Yes	n/a	7.909399773499429	n/a	n/a	512.0	TrialHappinessSliderResponse	Mixed
108.863	6.25	4.016	1180.389	60.0	3	-3.0	-3.0	17.6375	955.0	0.52	Certain	-6.81	1.1	3.5625	Yes	n/a	7.909399773499429	n/a	n/a	n/a	ISIRate	Mixed
115.144	3.0	0.031	1186.67	61.0	3	-5.0	-5.0	17.0125	955.0	1.0	Certain	-0.3	-10.55	0.0	No	4.0	10.2502831257078	1.541	116.685	n/a	GetAnswer	Mixed
116.71	4.0	0.024	1188.236	61.0	3	-5.0	-5.0	17.0125	955.0	1.0	Certain	-0.3	-10.55	0.0	No	n/a	10.2502831257078	n/a	n/a	n/a	ShowChoice	Mixed
120.725	1.0	0.015	1192.251	61.0	3	-5.0	-5.0	17.0125	955.0	1.0	Certain	-0.3	-10.55	0.0	No	n/a	10.2502831257078	n/a	n/a	n/a	ShowResult	Mixed
121.742	4.586	0.017	1193.268	61.0	3	-5.0	-5.0	17.0125	955.0	1.0	Certain	-0.3	-10.55	0.0	No	n/a	10.2502831257078	n/a	n/a	n/a	ISITrial	Mixed
126.357	3.0	0.029	1197.883	62.0	3	6.1	0.0	17.775	955.0	4.2	Outcome1	6.1	-4.65	3.74875	Yes	2.0	10.751981879954698	1.397	127.754	n/a	GetAnswer	Gain
127.773	4.0	0.019	1199.299	62.0	3	6.1	0.0	17.775	955.0	4.2	Outcome1	6.1	-4.65	3.74875	Yes	n/a	10.751981879954698	n/a	n/a	n/a	ShowChoice	Gain
131.788	1.0	0.015	1203.314	62.0	3	6.1	0.0	17.775	955.0	4.2	Outcome1	6.1	-4.65	3.74875	Yes	n/a	10.751981879954698	n/a	n/a	n/a	ShowResult	Gain
132.804	5.212	0.016	1204.33	62.0	3	6.1	0.0	17.775	955.0	4.2	Outcome1	6.1	-4.65	3.74875	Yes	n/a	10.751981879954698	n/a	n/a	n/a	ISITrial	Gain
138.036	3.749	0.02	1209.562	62.0	3	6.1	0.0	17.775	955.0	4.2	Outcome1	6.1	-4.65	3.74875	Yes	n/a	10.751981879954698	n/a	n/a	n/a	TrialHappPreview	Gain
141.801	4.016	0.016	1213.327	62.0	3	6.1	0.0	17.775	955.0	4.2	Outcome1	6.1	-4.65	3.74875	Yes	2{-2}2{-2}	10.751981879954698	1.136	142.937	540.0	TrialHappiness	Gain
141.802	0.848	n/a	1213.616	62.0	3	6.1	0.0	17.775	955.0	4.2	Outcome1	6.1	-4.65	3.74875	Yes	n/a	10.751981879954698	n/a	n/a	540.0	TrialHappinessSliderResponse	Gain
145.817	6.995	4.016	1217.343	62.0	3	6.1	0.0	17.775	955.0	4.2	Outcome1	6.1	-4.65	3.74875	Yes	n/a	10.751981879954698	n/a	n/a	n/a	ISIRate	Gain
152.831	3.0	0.019	1224.357	63.0	3	9.5	-0.64	18.9625	955.0	2.8	Outcome1	9.5	-1.28	0.0	No	2.0	10.7780294450736	1.832	154.663	n/a	GetAnswer	Gain
154.68	4.0	0.017	1226.206	63.0	3	9.5	-0.64	18.9625	955.0	2.8	Outcome1	9.5	-1.28	0.0	No	n/a	10.7780294450736	n/a	n/a	n/a	ShowChoice	Gain
158.695	1.0	0.015	1230.221	63.0	3	9.5	-0.64	18.9625	955.0	2.8	Outcome1	9.5	-1.28	0.0	No	n/a	10.7780294450736	n/a	n/a	n/a	ShowResult	Gain
159.712	5.595	0.017	1231.238	63.0	3	9.5	-0.64	18.9625	955.0	2.8	Outcome1	9.5	-1.28	0.0	No	n/a	10.7780294450736	n/a	n/a	n/a	ISITrial	Gain
165.327	3.0	0.02	1236.853	64.0	3	1.67	2.0	19.1713	955.0	1.0	Outcome1	1.67	3.7	0.0	No	2.0	-2.03397508493771	0.9	166.227	n/a	GetAnswer	Mixed
166.243	4.0	0.016	1237.769	64.0	3	1.67	2.0	19.1713	955.0	1.0	Outcome1	1.67	3.7	0.0	No	n/a	-2.03397508493771	n/a	n/a	n/a	ShowChoice	Mixed
170.258	1.0	0.015	1241.784	64.0	3	1.67	2.0	19.1713	955.0	1.0	Outcome1	1.67	3.7	0.0	No	n/a	-2.03397508493771	n/a	n/a	n/a	ShowResult	Mixed
171.274	5.47	0.016	1242.8	64.0	3	1.67	2.0	19.1713	955.0	1.0	Outcome1	1.67	3.7	0.0	No	n/a	-2.03397508493771	n/a	n/a	n/a	ISITrial	Mixed
176.773	3.0	0.029	1248.299	65.0	3	-2.0	-2.0	18.9213	955.0	0.66	Certain	-8.42	3.3	2.99675	Yes	4.0	11.718006795017	2.37	179.143	n/a	GetAnswer	Mixed
179.155	4.0	0.012	1250.681	65.0	3	-2.0	-2.0	18.9213	955.0	0.66	Certain	-8.42	3.3	2.99675	Yes	n/a	11.718006795017	n/a	n/a	n/a	ShowChoice	Mixed
183.17	1.0	0.015	1254.696	65.0	3	-2.0	-2.0	18.9213	955.0	0.66	Certain	-8.42	3.3	2.99675	Yes	n/a	11.718006795017	n/a	n/a	n/a	ShowResult	Mixed
184.187	3.344	0.017	1255.713	65.0	3	-2.0	-2.0	18.9213	955.0	0.66	Certain	-8.42	3.3	2.99675	Yes	n/a	11.718006795017	n/a	n/a	n/a	ISITrial	Mixed
187.552	2.997	0.021	1259.078	65.0	3	-2.0	-2.0	18.9213	955.0	0.66	Certain	-8.42	3.3	2.99675	Yes	n/a	11.718006795017	n/a	n/a	n/a	TrialHappPreview	Mixed
190.568	4.015	0.019	1262.094	65.0	3	-2.0	-2.0	18.9213	955.0	0.66	Certain	-8.42	3.3	2.99675	Yes	n/a	11.718006795017	n/a	n/a	512.0	TrialHappiness	Mixed
190.568	0.0	n/a	1262.094	65.0	3	-2.0	-2.0	18.9213	955.0	0.66	Certain	-8.42	3.3	2.99675	Yes	n/a	11.718006795017	n/a	n/a	512.0	TrialHappinessSliderResponse	Mixed
194.583	3.987	4.015	1266.109	65.0	3	-2.0	-2.0	18.9213	955.0	0.66	Certain	-8.42	3.3	2.99675	Yes	n/a	11.718006795017	n/a	n/a	n/a	ISIRate	Mixed
198.598	3.0	0.028	1270.124	66.0	3	13.1	0.22	20.5588	955.0	2.22	Outcome2	0.44	13.1	0.0	No	2.0	12.6636466591166	1.188	199.786	n/a	GetAnswer	Loss
199.815	4.0	0.029	1271.341	66.0	3	13.1	0.22	20.5588	955.0	2.22	Outcome2	0.44	13.1	0.0	No	n/a	12.6636466591166	n/a	n/a	n/a	ShowChoice	Loss
203.83	1.0	0.015	1275.356	66.0	3	13.1	0.22	20.5588	955.0	2.22	Outcome2	0.44	13.1	0.0	No	n/a	12.6636466591166	n/a	n/a	n/a	ShowResult	Loss
204.846	3.959	0.016	1276.372	66.0	3	13.1	0.22	20.5588	955.0	2.22	Outcome2	0.44	13.1	0.0	No	n/a	12.6636466591166	n/a	n/a	n/a	ISITrial	Loss
208.828	3.0	0.023	1280.354	67.0	3	10.9	-1.14	21.9213	955.0	2.0	Outcome1	10.9	-2.27	2.9185	Yes	2.0	13.1653454133635	1.746	210.574	n/a	GetAnswer	Loss
210.594	4.0	0.02	1282.12	67.0	3	10.9	-1.14	21.9213	955.0	2.0	Outcome1	10.9	-2.27	2.9185	Yes	n/a	13.1653454133635	n/a	n/a	n/a	ShowChoice	Loss
214.609	1.0	0.015	1286.135	67.0	3	10.9	-1.14	21.9213	955.0	2.0	Outcome1	10.9	-2.27	2.9185	Yes	n/a	13.1653454133635	n/a	n/a	n/a	ShowResult	Loss
215.626	4.199	0.017	1287.152	67.0	3	10.9	-1.14	21.9213	955.0	2.0	Outcome1	10.9	-2.27	2.9185	Yes	n/a	13.1653454133635	n/a	n/a	n/a	ISITrial	Loss
219.841	2.918	0.016	1291.367	67.0	3	10.9	-1.14	21.9213	955.0	2.0	Outcome1	10.9	-2.27	2.9185	Yes	n/a	13.1653454133635	n/a	n/a	n/a	TrialHappPreview	Loss
222.79	4.015	0.031	1294.316	67.0	3	10.9	-1.14	21.9213	955.0	2.0	Outcome1	10.9	-2.27	2.9185	Yes	n/a	13.1653454133635	n/a	n/a	628.0	TrialHappiness	Loss
222.791	1.608	n/a	1294.656	67.0	3	10.9	-1.14	21.9213	955.0	2.0	Outcome1	10.9	-2.27	2.9185	Yes	n/a	13.1653454133635	n/a	n/a	628.0	TrialHappinessSliderResponse	Loss
226.805	3.674	4.015	1298.331	67.0	3	10.9	-1.14	21.9213	955.0	2.0	Outcome1	10.9	-2.27	2.9185	Yes	n/a	13.1653454133635	n/a	n/a	n/a	ISIRate	Loss
230.504	3.0	0.025	1302.03	68.0	3	7.7	2.0	22.8838	955.0	3.16	Outcome2	-4.0	7.7	0.0	No	2.0	11.6964892412231	1.358	231.862	n/a	GetAnswer	Gain
231.887	4.0	0.025	1303.413	68.0	3	7.7	2.0	22.8838	955.0	3.16	Outcome2	-4.0	7.7	0.0	No	n/a	11.6964892412231	n/a	n/a	n/a	ShowChoice	Gain
235.902	1.0	0.015	1307.428	68.0	3	7.7	2.0	22.8838	955.0	3.16	Outcome2	-4.0	7.7	0.0	No	n/a	11.6964892412231	n/a	n/a	n/a	ShowResult	Gain
236.918	2.185	0.016	1308.444	68.0	3	7.7	2.0	22.8838	955.0	3.16	Outcome2	-4.0	7.7	0.0	No	n/a	11.6964892412231	n/a	n/a	n/a	ISITrial	Gain
239.134	3.0	0.031	1310.66	69.0	3	6.43	3.22	23.6876	955.0	5.0	Outcome1	6.43	8.3	0.0	No	2.0	-1.8696677991695	1.126	240.26	n/a	GetAnswer	Gain
240.284	4.0	0.024	1311.81	69.0	3	6.43	3.22	23.6876	955.0	5.0	Outcome1	6.43	8.3	0.0	No	n/a	-1.8696677991695	n/a	n/a	n/a	ShowChoice	Gain
244.299	1.0	0.015	1315.825	69.0	3	6.43	3.22	23.6876	955.0	5.0	Outcome1	6.43	8.3	0.0	No	n/a	-1.8696677991695	n/a	n/a	n/a	ShowResult	Gain
245.316	2.0	0.017	1316.842	69.0	3	6.43	3.22	23.6876	955.0	5.0	Outcome1	6.43	8.3	0.0	No	n/a	-1.8696677991695	n/a	n/a	n/a	ISITrial	Gain
247.348	3.0	0.032	1318.874	70.0	3	-3.0	-3.0	23.3126	955.0	0.2	Certain	2.5	-9.94	3.65125	Yes	4.0	12.4371460928652	1.594	248.942	n/a	GetAnswer	Mixed
248.964	4.0	0.022	1320.49	70.0	3	-3.0	-3.0	23.3126	955.0	0.2	Certain	2.5	-9.94	3.65125	Yes	n/a	12.4371460928652	n/a	n/a	n/a	ShowChoice	Mixed
252.98	1.0	0.016	1324.506	70.0	3	-3.0	-3.0	23.3126	955.0	0.2	Certain	2.5	-9.94	3.65125	Yes	n/a	12.4371460928652	n/a	n/a	n/a	ShowResult	Mixed
253.996	2.623	0.016	1325.522	70.0	3	-3.0	-3.0	23.3126	955.0	0.2	Certain	2.5	-9.94	3.65125	Yes	n/a	12.4371460928652	n/a	n/a	n/a	ISITrial	Mixed
256.645	3.651	0.026	1328.171	70.0	3	-3.0	-3.0	23.3126	955.0	0.2	Certain	2.5	-9.94	3.65125	Yes	n/a	12.4371460928652	n/a	n/a	n/a	TrialHappPreview	Mixed
260.327	4.015	0.031	1331.853	70.0	3	-3.0	-3.0	23.3126	955.0	0.2	Certain	2.5	-9.94	3.65125	Yes	n/a	12.4371460928652	n/a	n/a	560.0	TrialHappiness	Mixed
260.328	0.461	n/a	1332.466	70.0	3	-3.0	-3.0	23.3126	955.0	0.2	Certain	2.5	-9.94	3.65125	Yes	n/a	12.4371460928652	n/a	n/a	560.0	TrialHappinessSliderResponse	Mixed
264.342	6.605	4.015	1335.868	70.0	3	-3.0	-3.0	23.3126	955.0	0.2	Certain	2.5	-9.94	3.65125	Yes	n/a	12.4371460928652	n/a	n/a	n/a	ISIRate	Mixed
270.973	3.0	0.026	1342.499	71.0	3	-0.51	0.0	23.2488	955.0	1.0	Outcome1	-0.51	1.7	0.0	No	2.0	-2.20734239335598	1.406	272.379	n/a	GetAnswer	Mixed
272.406	4.0	0.027	1343.932	71.0	3	-0.51	0.0	23.2488	955.0	1.0	Outcome1	-0.51	1.7	0.0	No	n/a	-2.20734239335598	n/a	n/a	n/a	ShowChoice	Mixed
276.421	1.0	0.015	1347.947	71.0	3	-0.51	0.0	23.2488	955.0	1.0	Outcome1	-0.51	1.7	0.0	No	n/a	-2.20734239335598	n/a	n/a	n/a	ShowResult	Mixed
277.438	5.499	0.017	1348.964	71.0	3	-0.51	0.0	23.2488	955.0	1.0	Outcome1	-0.51	1.7	0.0	No	n/a	-2.20734239335598	n/a	n/a	n/a	ISITrial	Mixed
282.969	3.0	0.032	1354.495	72.0	3	-2.0	-2.0	22.9988	955.0	2.48	Certain	5.3	-9.11	3.0805	Yes	4.0	14.409966024915098	1.428	284.397	n/a	GetAnswer	Gain
284.419	4.0	0.022	1355.945	72.0	3	-2.0	-2.0	22.9988	955.0	2.48	Certain	5.3	-9.11	3.0805	Yes	n/a	14.409966024915098	n/a	n/a	n/a	ShowChoice	Gain
288.434	1.0	0.015	1359.96	72.0	3	-2.0	-2.0	22.9988	955.0	2.48	Certain	5.3	-9.11	3.0805	Yes	n/a	14.409966024915098	n/a	n/a	n/a	ShowResult	Gain
289.45	5.672	0.016	1360.976	72.0	3	-2.0	-2.0	22.9988	955.0	2.48	Certain	5.3	-9.11	3.0805	Yes	n/a	14.409966024915098	n/a	n/a	n/a	ISITrial	Gain
295.148	3.08	0.026	1366.674	72.0	3	-2.0	-2.0	22.9988	955.0	2.48	Certain	5.3	-9.11	3.0805	Yes	n/a	14.409966024915098	n/a	n/a	n/a	TrialHappPreview	Gain
298.247	4.016	0.019	1369.773	72.0	3	-2.0	-2.0	22.9988	955.0	2.48	Certain	5.3	-9.11	3.0805	Yes	n/a	14.409966024915098	n/a	n/a	544.0	TrialHappiness	Gain
298.248	0.892	n/a	1371.221	72.0	3	-2.0	-2.0	22.9988	955.0	2.48	Certain	5.3	-9.11	3.0805	Yes	n/a	14.409966024915098	n/a	n/a	544.0	TrialHappinessSliderResponse	Gain
302.263	4.322	4.016	1373.789	72.0	3	-2.0	-2.0	22.9988	955.0	2.48	Certain	5.3	-9.11	3.0805	Yes	n/a	14.409966024915098	n/a	n/a	n/a	ISIRate	Gain
306.611	3.0	0.026	1378.137	73.0	3	-1.65	0.0	22.7926	955.0	0.3	Outcome2	0.7	-1.65	0.0	No	2.0	-2.34682899207248	1.256	307.867	n/a	GetAnswer	Mixed
307.894	4.0	0.027	1379.42	73.0	3	-1.65	0.0	22.7926	955.0	0.3	Outcome2	0.7	-1.65	0.0	No	n/a	-2.34682899207248	n/a	n/a	n/a	ShowChoice	Mixed
311.909	1.0	0.015	1383.435	73.0	3	-1.65	0.0	22.7926	955.0	0.3	Outcome2	0.7	-1.65	0.0	No	n/a	-2.34682899207248	n/a	n/a	n/a	ShowResult	Mixed
312.925	4.616	0.016	1384.451	73.0	3	-1.65	0.0	22.7926	955.0	0.3	Outcome2	0.7	-1.65	0.0	No	n/a	-2.34682899207248	n/a	n/a	n/a	ISITrial	Mixed
317.574	3.0	0.033	1389.1	74.0	3	-8.0	-8.0	21.7926	955.0	0.82	Certain	-0.5	-16.09	3.05625	Yes	4.0	15.59456398641	1.468	319.042	n/a	GetAnswer	Mixed
319.057	4.0	0.015	1390.583	74.0	3	-8.0	-8.0	21.7926	955.0	0.82	Certain	-0.5	-16.09	3.05625	Yes	n/a	15.59456398641	n/a	n/a	n/a	ShowChoice	Mixed
323.072	1.0	0.015	1394.598	74.0	3	-8.0	-8.0	21.7926	955.0	0.82	Certain	-0.5	-16.09	3.05625	Yes	n/a	15.59456398641	n/a	n/a	n/a	ShowResult	Mixed
324.088	3.909	0.016	1395.614	74.0	3	-8.0	-8.0	21.7926	955.0	0.82	Certain	-0.5	-16.09	3.05625	Yes	n/a	15.59456398641	n/a	n/a	n/a	ISITrial	Mixed
328.02	3.056	0.023	1399.546	74.0	3	-8.0	-8.0	21.7926	955.0	0.82	Certain	-0.5	-16.09	3.05625	Yes	n/a	15.59456398641	n/a	n/a	n/a	TrialHappPreview	Mixed
331.103	4.015	0.027	1402.629	74.0	3	-8.0	-8.0	21.7926	955.0	0.82	Certain	-0.5	-16.09	3.05625	Yes	n/a	15.59456398641	n/a	n/a	496.0	TrialHappiness	Mixed
331.103	0.188	n/a	1403.73	74.0	3	-8.0	-8.0	21.7926	955.0	0.82	Certain	-0.5	-16.09	3.05625	Yes	n/a	15.59456398641	n/a	n/a	496.0	TrialHappinessSliderResponse	Mixed
335.118	4.225	4.015	1406.644	74.0	3	-8.0	-8.0	21.7926	955.0	0.82	Certain	-0.5	-16.09	3.05625	Yes	n/a	15.59456398641	n/a	n/a	n/a	ISIRate	Mixed
339.366	3.0	0.023	1410.892	75.0	3	2.08	1.04	22.0526	955.0	1.82	Outcome2	4.7	2.08	0.0	No	2.0	-2.6191959229898103	1.168	340.534	n/a	GetAnswer	Gain
340.549	4.0	0.015	1412.075	75.0	3	2.08	1.04	22.0526	955.0	1.82	Outcome2	4.7	2.08	0.0	No	n/a	-2.6191959229898103	n/a	n/a	n/a	ShowChoice	Gain
344.565	1.0	0.016	1416.091	75.0	3	2.08	1.04	22.0526	955.0	1.82	Outcome2	4.7	2.08	0.0	No	n/a	-2.6191959229898103	n/a	n/a	n/a	ShowResult	Gain
345.581	4.979	0.016	1417.107	75.0	3	2.08	1.04	22.0526	955.0	1.82	Outcome2	4.7	2.08	0.0	No	n/a	-2.6191959229898103	n/a	n/a	n/a	ISITrial	Gain
350.579	3.0	0.019	1422.105	76.0	3	9.04	4.52	23.1826	955.0	3.16	Outcome2	11.7	9.04	0.0	No	2.0	-2.6625141562853902	1.15	351.729	n/a	GetAnswer	Loss
351.745	4.0	0.016	1423.271	76.0	3	9.04	4.52	23.1826	955.0	3.16	Outcome2	11.7	9.04	0.0	No	n/a	-2.6625141562853902	n/a	n/a	n/a	ShowChoice	Loss
355.761	1.0	0.016	1427.287	76.0	3	9.04	4.52	23.1826	955.0	3.16	Outcome2	11.7	9.04	0.0	No	n/a	-2.6625141562853902	n/a	n/a	n/a	ShowResult	Loss
356.777	3.931	0.016	1428.303	76.0	3	9.04	4.52	23.1826	955.0	3.16	Outcome2	11.7	9.04	0.0	No	n/a	-2.6625141562853902	n/a	n/a	n/a	ISITrial	Loss
360.726	3.0	0.018	1432.252	77.0	3	-3.0	-3.0	22.8076	955.0	3.16	Certain	-12.22	5.7	4.0	Yes	4.0	17.9150622876557	1.386	362.112	n/a	GetAnswer	Gain
362.125	4.0	0.013	1433.651	77.0	3	-3.0	-3.0	22.8076	955.0	3.16	Certain	-12.22	5.7	4.0	Yes	n/a	17.9150622876557	n/a	n/a	n/a	ShowChoice	Gain
366.14	1.0	0.015	1437.666	77.0	3	-3.0	-3.0	22.8076	955.0	3.16	Certain	-12.22	5.7	4.0	Yes	n/a	17.9150622876557	n/a	n/a	n/a	ShowResult	Gain
367.157	7.022	0.017	1438.683	77.0	3	-3.0	-3.0	22.8076	955.0	3.16	Certain	-12.22	5.7	4.0	Yes	n/a	17.9150622876557	n/a	n/a	n/a	ISITrial	Gain
374.204	4.0	0.025	1445.73	77.0	3	-3.0	-3.0	22.8076	955.0	3.16	Certain	-12.22	5.7	4.0	Yes	n/a	17.9150622876557	n/a	n/a	n/a	TrialHappPreview	Gain
378.22	4.015	0.016	1449.746	77.0	3	-3.0	-3.0	22.8076	955.0	3.16	Certain	-12.22	5.7	4.0	Yes	n/a	17.9150622876557	n/a	n/a	540.0	TrialHappiness	Gain
378.22	0.414	n/a	1450.358	77.0	3	-3.0	-3.0	22.8076	955.0	3.16	Certain	-12.22	5.7	4.0	Yes	n/a	17.9150622876557	n/a	n/a	540.0	TrialHappinessSliderResponse	Gain
382.235	8.0	4.015	1453.761	77.0	3	-3.0	-3.0	22.8076	955.0	3.16	Certain	-12.22	5.7	4.0	Yes	n/a	17.9150622876557	n/a	n/a	n/a	ISIRate	Gain
390.265	3.0	0.03	1461.791	78.0	3	2.0	2.0	23.0576	955.0	2.8	Certain	-6.19	11.5	0.0	No	4.0	17.687429218573	2.233	392.498	n/a	GetAnswer	Loss
392.515	4.0	0.017	1464.041	78.0	3	2.0	2.0	23.0576	955.0	2.8	Certain	-6.19	11.5	0.0	No	n/a	17.687429218573	n/a	n/a	n/a	ShowChoice	Loss
396.53	1.0	0.015	1468.056	78.0	3	2.0	2.0	23.0576	955.0	2.8	Certain	-6.19	11.5	0.0	No	n/a	17.687429218573	n/a	n/a	n/a	ShowResult	Loss
397.546	2.078	0.016	1469.072	78.0	3	2.0	2.0	23.0576	955.0	2.8	Certain	-6.19	11.5	0.0	No	n/a	17.687429218573	n/a	n/a	n/a	ISITrial	Loss
399.645	3.0	0.021	1471.171	79.0	3	-7.0	-7.0	22.1826	955.0	1.2	Certain	1.9	-16.26	2.7295	Yes	4.0	18.1574178935447	1.958	401.603	n/a	GetAnswer	Mixed
401.628	4.0	0.025	1473.154	79.0	3	-7.0	-7.0	22.1826	955.0	1.2	Certain	1.9	-16.26	2.7295	Yes	n/a	18.1574178935447	n/a	n/a	n/a	ShowChoice	Mixed
405.643	1.0	0.015	1477.169	79.0	3	-7.0	-7.0	22.1826	955.0	1.2	Certain	1.9	-16.26	2.7295	Yes	n/a	18.1574178935447	n/a	n/a	n/a	ShowResult	Mixed
406.66	3.829	0.017	1478.186	79.0	3	-7.0	-7.0	22.1826	955.0	1.2	Certain	1.9	-16.26	2.7295	Yes	n/a	18.1574178935447	n/a	n/a	n/a	ISITrial	Mixed
410.508	2.73	0.019	1482.034	79.0	3	-7.0	-7.0	22.1826	955.0	1.2	Certain	1.9	-16.26	2.7295	Yes	n/a	18.1574178935447	n/a	n/a	n/a	TrialHappPreview	Mixed
413.257	4.016	0.019	1484.783	79.0	3	-7.0	-7.0	22.1826	955.0	1.2	Certain	1.9	-16.26	2.7295	Yes	4{-4}4{-4}	18.1574178935447	0.889	414.146	444.0	TrialHappiness	Mixed
413.258	0.489	n/a	1485.184	79.0	3	-7.0	-7.0	22.1826	955.0	1.2	Certain	1.9	-16.26	2.7295	Yes	n/a	18.1574178935447	n/a	n/a	444.0	TrialHappinessSliderResponse	Mixed
417.273	2.918	4.016	1488.799	79.0	3	-7.0	-7.0	22.1826	955.0	1.2	Certain	1.9	-16.26	2.7295	Yes	n/a	18.1574178935447	n/a	n/a	n/a	ISIRate	Mixed
420.222	3.0	0.031	1491.748	80.0	3	-3.94	-2.0	21.6901	955.0	0.52	Outcome1	-3.94	-0.9	0.0	No	2.0	-3.0385050962627407	2.441	422.663	n/a	GetAnswer	Mixed
422.688	4.0	0.025	1494.214	80.0	3	-3.94	-2.0	21.6901	955.0	0.52	Outcome1	-3.94	-0.9	0.0	No	n/a	-3.0385050962627407	n/a	n/a	n/a	ShowChoice	Mixed
426.703	1.0	0.015	1498.229	80.0	3	-3.94	-2.0	21.6901	955.0	0.52	Outcome1	-3.94	-0.9	0.0	No	n/a	-3.0385050962627407	n/a	n/a	n/a	ShowResult	Mixed
427.719	3.336	0.016	1499.245	80.0	3	-3.94	-2.0	21.6901	955.0	0.52	Outcome1	-3.94	-0.9	0.0	No	n/a	-3.0385050962627407	n/a	n/a	n/a	ISITrial	Mixed
431.085	3.0	0.03	1502.611	81.0	3	-9.0	-9.0	20.5651	955.0	0.66	Certain	-19.54	1.3	3.92375	Yes	4.0	20.836919592299	0.982	432.067	n/a	GetAnswer	Mixed
432.084	4.0	0.017	1503.61	81.0	3	-9.0	-9.0	20.5651	955.0	0.66	Certain	-19.54	1.3	3.92375	Yes	n/a	20.836919592299	n/a	n/a	n/a	ShowChoice	Mixed
436.1	1.0	0.016	1507.626	81.0	3	-9.0	-9.0	20.5651	955.0	0.66	Certain	-19.54	1.3	3.92375	Yes	n/a	20.836919592299	n/a	n/a	n/a	ShowResult	Mixed
437.116	3.919	0.016	1508.642	81.0	3	-9.0	-9.0	20.5651	955.0	0.66	Certain	-19.54	1.3	3.92375	Yes	n/a	20.836919592299	n/a	n/a	n/a	ISITrial	Mixed
441.048	3.924	0.013	1512.574	81.0	3	-9.0	-9.0	20.5651	955.0	0.66	Certain	-19.54	1.3	3.92375	Yes	n/a	20.836919592299	n/a	n/a	n/a	TrialHappPreview	Mixed
444.996	4.016	0.024	1516.522	81.0	3	-9.0	-9.0	20.5651	955.0	0.66	Certain	-19.54	1.3	3.92375	Yes	n/a	20.836919592299	n/a	n/a	408.0	TrialHappiness	Mixed
444.997	0.832	n/a	1517.148	81.0	3	-9.0	-9.0	20.5651	955.0	0.66	Certain	-19.54	1.3	3.92375	Yes	n/a	20.836919592299	n/a	n/a	408.0	TrialHappinessSliderResponse	Mixed
449.012	7.695	4.016	1520.538	81.0	3	-9.0	-9.0	20.5651	955.0	0.66	Certain	-19.54	1.3	3.92375	Yes	n/a	20.836919592299	n/a	n/a	n/a	ISIRate	Mixed
456.726	3.0	0.019	1528.252	n/a	3	n/a	n/a	n/a	n/a	n/a	n/a	n/a	n/a	n/a	n/a	n/a	n/a	n/a	n/a	n/a	CurrentEarnings	n/a
459.741	-0.001	0.015	1531.267	n/a	3	n/a	n/a	n/a	n/a	n/a	n/a	n/a	n/a	n/a	n/a	{SPACE}	n/a	1.932	461.673	n/a	Goodbye	n/a
