onset	duration	onset_delay	onset_unadjusted	trial_number	block	amount_change	certain_amount	current_amount	mood_target	multiplier	outcome	outcome1_amount	outcome2_amount	question_duration	rating	response	rpe	rt	rt_time	slider_response	trial_phase	trial_type
-43.316	-0.001	0.019	21.381	n/a	0	n/a	n/a	n/a	n/a	n/a	n/a	n/a	n/a	n/a	n/a	{SPACE}	n/a	3.566	-39.75	n/a	Welcome	n/a
-39.719	5.0	0.031	24.978	n/a	0	n/a	n/a	n/a	n/a	n/a	n/a	n/a	n/a	n/a	n/a	n/a	n/a	n/a	n/a	n/a	LifeHappyPreview	n/a
-34.687	2.464	0.032	30.01	n/a	0	n/a	n/a	n/a	n/a	n/a	n/a	n/a	n/a	n/a	n/a	n/a	n/a	n/a	n/a	896.0	LifeHappiness	n/a
-34.686	1.854	n/a	30.621	n/a	0	n/a	n/a	n/a	n/a	n/a	n/a	n/a	n/a	n/a	n/a	n/a	n/a	n/a	n/a	896.0	LifeHappinessSliderResponse	n/a
-15.847	4.0	0.015	48.85	n/a	0	n/a	n/a	n/a	n/a	n/a	n/a	n/a	n/a	n/a	n/a	n/a	n/a	n/a	n/a	n/a	BlockHappyPreview	n/a
-11.835	1.71	0.012	52.862	n/a	0	n/a	n/a	n/a	n/a	n/a	n/a	n/a	n/a	n/a	n/a	2{-2}2{-2}	n/a	1.71	-10.125	712.0	BlockStartHappiness	n/a
-11.835	1.217	n/a	53.355	n/a	0	n/a	n/a	n/a	n/a	n/a	n/a	n/a	n/a	n/a	n/a	n/a	n/a	n/a	n/a	712.0	BlockStartHappinessSliderResponse	n/a
-5.633	-0.001	0.022	59.064	n/a	0	n/a	n/a	n/a	n/a	n/a	n/a	n/a	n/a	n/a	n/a	5.0	n/a	5.616	-0.017	n/a	ScanWait	n/a
0.0	10.0	0.017	64.697	n/a	1	n/a	n/a	n/a	n/a	n/a	n/a	n/a	n/a	n/a	n/a	n/a	n/a	n/a	n/a	n/a	GetReady	n/a
10.03	3.0	0.03	74.727	1.0	1	9.9	2.88	11.2375	955.0	3.6	Outcome1	9.9	5.77	0.0	No	2.0	4.127972819932049	1.51	11.54	n/a	GetAnswer	Gain
11.568	4.0	0.028	76.265	1.0	1	9.9	2.88	11.2375	955.0	3.6	Outcome1	9.9	5.77	0.0	No	n/a	4.127972819932049	n/a	n/a	n/a	ShowChoice	Gain
15.597	1.0	0.029	80.294	1.0	1	9.9	2.88	11.2375	955.0	3.6	Outcome1	9.9	5.77	0.0	No	n/a	4.127972819932049	n/a	n/a	n/a	ShowResult	Gain
16.616	2.431	0.019	81.313	1.0	1	9.9	2.88	11.2375	955.0	3.6	Outcome1	9.9	5.77	0.0	No	n/a	4.127972819932049	n/a	n/a	n/a	ISITrial	Gain
19.074	3.0	0.027	83.771	2.0	1	-3.0	-3.0	10.8625	955.0	0.52	Certain	-5.3	-0.9	0.0	No	4.0	4.40317100792752	2.312	21.386	n/a	GetAnswer	Mixed
21.414	4.0	0.028	86.111	2.0	1	-3.0	-3.0	10.8625	955.0	0.52	Certain	-5.3	-0.9	0.0	No	n/a	4.40317100792752	n/a	n/a	n/a	ShowChoice	Mixed
25.443	1.0	0.029	90.14	2.0	1	-3.0	-3.0	10.8625	955.0	0.52	Certain	-5.3	-0.9	0.0	No	n/a	4.40317100792752	n/a	n/a	n/a	ShowResult	Mixed
26.463	4.568	0.02	91.16	2.0	1	-3.0	-3.0	10.8625	955.0	0.52	Certain	-5.3	-0.9	0.0	No	n/a	4.40317100792752	n/a	n/a	n/a	ISITrial	Mixed
31.06	3.0	0.029	95.757	3.0	1	5.27	2.64	11.5213	955.0	5.0	Outcome1	5.27	6.3	2.868	Yes	2.0	-1.03199320498301	1.296	32.356	n/a	GetAnswer	Gain
32.38	4.0	0.024	97.077	3.0	1	5.27	2.64	11.5213	955.0	5.0	Outcome1	5.27	6.3	2.868	Yes	n/a	-1.03199320498301	n/a	n/a	n/a	ShowChoice	Gain
36.392	1.0	0.012	101.089	3.0	1	5.27	2.64	11.5213	955.0	5.0	Outcome1	5.27	6.3	2.868	Yes	n/a	-1.03199320498301	n/a	n/a	n/a	ShowResult	Gain
37.412	3.243	0.02	102.109	3.0	1	5.27	2.64	11.5213	955.0	5.0	Outcome1	5.27	6.3	2.868	Yes	n/a	-1.03199320498301	n/a	n/a	n/a	ISITrial	Gain
40.672	2.868	0.017	105.369	3.0	1	5.27	2.64	11.5213	955.0	5.0	Outcome1	5.27	6.3	2.868	Yes	n/a	-1.03199320498301	n/a	n/a	n/a	TrialHappPreview	Gain
43.564	4.028	0.024	108.261	3.0	1	5.27	2.64	11.5213	955.0	5.0	Outcome1	5.27	6.3	2.868	Yes	n/a	-1.03199320498301	n/a	n/a	736.0	TrialHappiness	Gain
43.564	2.36	n/a	108.55	3.0	1	5.27	2.64	11.5213	955.0	5.0	Outcome1	5.27	6.3	2.868	Yes	n/a	-1.03199320498301	n/a	n/a	736.0	TrialHappinessSliderResponse	Gain
47.592	3.472	4.028	112.289	3.0	1	5.27	2.64	11.5213	955.0	5.0	Outcome1	5.27	6.3	2.868	Yes	n/a	-1.03199320498301	n/a	n/a	n/a	ISIRate	Gain
51.086	3.0	0.022	115.783	4.0	1	5.54	2.77	12.2138	955.0	1.68	Outcome1	5.54	6.5	0.0	No	2.0	-0.95753114382786	1.127	52.213	n/a	GetAnswer	Gain
52.24	4.0	0.027	116.937	4.0	1	5.54	2.77	12.2138	955.0	1.68	Outcome1	5.54	6.5	0.0	No	n/a	-0.95753114382786	n/a	n/a	n/a	ShowChoice	Gain
56.268	1.0	0.028	120.965	4.0	1	5.54	2.77	12.2138	955.0	1.68	Outcome1	5.54	6.5	0.0	No	n/a	-0.95753114382786	n/a	n/a	n/a	ShowResult	Gain
57.288	2.011	0.02	121.985	4.0	1	5.54	2.77	12.2138	955.0	1.68	Outcome1	5.54	6.5	0.0	No	n/a	-0.95753114382786	n/a	n/a	n/a	ISITrial	Gain
59.327	3.0	0.028	124.024	5.0	1	10.12	5.06	13.4788	955.0	2.22	Outcome2	11.1	10.12	2.5825	Yes	2.0	-0.9781993204983008	1.131	60.458	n/a	GetAnswer	Loss
60.481	4.0	0.023	125.178	5.0	1	10.12	5.06	13.4788	955.0	2.22	Outcome2	11.1	10.12	2.5825	Yes	n/a	-0.9781993204983008	n/a	n/a	n/a	ShowChoice	Loss
64.51	1.0	0.029	129.207	5.0	1	10.12	5.06	13.4788	955.0	2.22	Outcome2	11.1	10.12	2.5825	Yes	n/a	-0.9781993204983008	n/a	n/a	n/a	ShowResult	Loss
65.529	5.129	0.019	130.226	5.0	1	10.12	5.06	13.4788	955.0	2.22	Outcome2	11.1	10.12	2.5825	Yes	n/a	-0.9781993204983008	n/a	n/a	n/a	ISITrial	Loss
70.678	2.582	0.02	135.375	5.0	1	10.12	5.06	13.4788	955.0	2.22	Outcome2	11.1	10.12	2.5825	Yes	n/a	-0.9781993204983008	n/a	n/a	n/a	TrialHappPreview	Loss
73.286	4.012	0.026	137.983	5.0	1	10.12	5.06	13.4788	955.0	2.22	Outcome2	11.1	10.12	2.5825	Yes	n/a	-0.9781993204983008	n/a	n/a	752.0	TrialHappiness	Loss
73.286	1.496	n/a	138.35	5.0	1	10.12	5.06	13.4788	955.0	2.22	Outcome2	11.1	10.12	2.5825	Yes	n/a	-0.9781993204983008	n/a	n/a	752.0	TrialHappinessSliderResponse	Loss
77.298	2.33	4.012	141.995	5.0	1	10.12	5.06	13.4788	955.0	2.22	Outcome2	11.1	10.12	2.5825	Yes	n/a	-0.9781993204983008	n/a	n/a	n/a	ISIRate	Loss
79.655	3.0	0.027	144.352	6.0	1	1.0	1.0	13.6038	955.0	1.0	Certain	-1.07	3.7	0.0	No	4.0	4.77010192525481	1.47	81.125	n/a	GetAnswer	Mixed
81.143	4.0	0.018	145.84	6.0	1	1.0	1.0	13.6038	955.0	1.0	Certain	-1.07	3.7	0.0	No	n/a	4.77010192525481	n/a	n/a	n/a	ShowChoice	Mixed
85.155	1.0	0.012	149.852	6.0	1	1.0	1.0	13.6038	955.0	1.0	Certain	-1.07	3.7	0.0	No	n/a	4.77010192525481	n/a	n/a	n/a	ShowResult	Mixed
86.174	6.232	0.019	150.871	6.0	1	1.0	1.0	13.6038	955.0	1.0	Certain	-1.07	3.7	0.0	No	n/a	4.77010192525481	n/a	n/a	n/a	ISITrial	Mixed
92.426	3.0	0.02	157.123	7.0	1	1.55	2.0	13.7976	955.0	0.2	Outcome2	2.5	1.55	0.0	No	2.0	-0.953095507738769	1.208	93.634	n/a	GetAnswer	Mixed
93.647	4.0	0.013	158.344	7.0	1	1.55	2.0	13.7976	955.0	0.2	Outcome2	2.5	1.55	0.0	No	n/a	-0.953095507738769	n/a	n/a	n/a	ShowChoice	Mixed
97.659	1.0	0.012	162.356	7.0	1	1.55	2.0	13.7976	955.0	0.2	Outcome2	2.5	1.55	0.0	No	n/a	-0.953095507738769	n/a	n/a	n/a	ShowResult	Mixed
98.678	2.305	0.019	163.375	7.0	1	1.55	2.0	13.7976	955.0	0.2	Outcome2	2.5	1.55	0.0	No	n/a	-0.953095507738769	n/a	n/a	n/a	ISITrial	Mixed
101.002	3.0	0.019	165.699	8.0	1	-1.3	-4.0	13.6351	955.0	0.3	Outcome2	-6.53	-1.3	3.1125	Yes	2.0	5.22989807474519	1.773	102.775	n/a	GetAnswer	Mixed
102.791	4.0	0.016	167.488	8.0	1	-1.3	-4.0	13.6351	955.0	0.3	Outcome2	-6.53	-1.3	3.1125	Yes	n/a	5.22989807474519	n/a	n/a	n/a	ShowChoice	Mixed
106.803	1.0	0.012	171.5	8.0	1	-1.3	-4.0	13.6351	955.0	0.3	Outcome2	-6.53	-1.3	3.1125	Yes	n/a	5.22989807474519	n/a	n/a	n/a	ShowResult	Mixed
107.822	3.506	0.019	172.519	8.0	1	-1.3	-4.0	13.6351	955.0	0.3	Outcome2	-6.53	-1.3	3.1125	Yes	n/a	5.22989807474519	n/a	n/a	n/a	ISITrial	Mixed
111.35	3.112	0.022	176.047	8.0	1	-1.3	-4.0	13.6351	955.0	0.3	Outcome2	-6.53	-1.3	3.1125	Yes	n/a	5.22989807474519	n/a	n/a	n/a	TrialHappPreview	Mixed
114.492	4.012	0.03	179.189	8.0	1	-1.3	-4.0	13.6351	955.0	0.3	Outcome2	-6.53	-1.3	3.1125	Yes	n/a	5.22989807474519	n/a	n/a	776.0	TrialHappiness	Mixed
114.493	0.693	n/a	179.59	8.0	1	-1.3	-4.0	13.6351	955.0	0.3	Outcome2	-6.53	-1.3	3.1125	Yes	n/a	5.22989807474519	n/a	n/a	776.0	TrialHappinessSliderResponse	Mixed
118.504	4.45	4.012	183.201	8.0	1	-1.3	-4.0	13.6351	955.0	0.3	Outcome2	-6.53	-1.3	3.1125	Yes	n/a	5.22989807474519	n/a	n/a	n/a	ISIRate	Mixed
122.984	3.0	0.03	187.681	9.0	1	4.81	2.4	14.2364	955.0	3.16	Outcome1	4.81	5.7	0.0	No	2.0	-0.8940166100415251	1.152	124.136	n/a	GetAnswer	Gain
124.155	4.0	0.019	188.852	9.0	1	4.81	2.4	14.2364	955.0	3.16	Outcome1	4.81	5.7	0.0	No	n/a	-0.8940166100415251	n/a	n/a	n/a	ShowChoice	Gain
128.167	1.0	0.012	192.864	9.0	1	4.81	2.4	14.2364	955.0	3.16	Outcome1	4.81	5.7	0.0	No	n/a	-0.8940166100415251	n/a	n/a	n/a	ShowResult	Gain
129.186	2.0	0.019	193.883	9.0	1	4.81	2.4	14.2364	955.0	3.16	Outcome1	4.81	5.7	0.0	No	n/a	-0.8940166100415251	n/a	n/a	n/a	ISITrial	Gain
131.209	3.0	0.023	195.906	10.0	1	8.59	4.3	15.3102	955.0	2.8	Outcome2	9.5	8.59	4.0	Yes	2.0	-0.9109097772744432	0.868	132.077	n/a	GetAnswer	Gain
132.095	4.0	0.018	196.792	10.0	1	8.59	4.3	15.3102	955.0	2.8	Outcome2	9.5	8.59	4.0	Yes	n/a	-0.9109097772744432	n/a	n/a	n/a	ShowChoice	Gain
136.107	1.0	0.012	200.804	10.0	1	8.59	4.3	15.3102	955.0	2.8	Outcome2	9.5	8.59	4.0	Yes	n/a	-0.9109097772744432	n/a	n/a	n/a	ShowResult	Gain
137.127	2.0	0.02	201.824	10.0	1	8.59	4.3	15.3102	955.0	2.8	Outcome2	9.5	8.59	4.0	Yes	n/a	-0.9109097772744432	n/a	n/a	n/a	ISITrial	Gain
139.149	4.0	0.022	203.846	10.0	1	8.59	4.3	15.3102	955.0	2.8	Outcome2	9.5	8.59	4.0	Yes	n/a	-0.9109097772744432	n/a	n/a	n/a	TrialHappPreview	Gain
143.178	4.012	0.029	207.875	10.0	1	8.59	4.3	15.3102	955.0	2.8	Outcome2	9.5	8.59	4.0	Yes	n/a	-0.9109097772744432	n/a	n/a	760.0	TrialHappiness	Gain
143.179	1.192	n/a	208.481	10.0	1	8.59	4.3	15.3102	955.0	2.8	Outcome2	9.5	8.59	4.0	Yes	n/a	-0.9109097772744432	n/a	n/a	760.0	TrialHappinessSliderResponse	Gain
147.19	8.0	4.012	211.887	10.0	1	8.59	4.3	15.3102	955.0	2.8	Outcome2	9.5	8.59	4.0	Yes	n/a	-0.9109097772744432	n/a	n/a	n/a	ISIRate	Gain
155.214	3.0	0.024	219.911	11.0	1	8.3	1.28	16.3477	955.0	5.0	Outcome1	8.3	2.57	0.0	No	2.0	5.729331823329559	0.862	156.076	n/a	GetAnswer	Gain
156.1	4.0	0.024	220.797	11.0	1	8.3	1.28	16.3477	955.0	5.0	Outcome1	8.3	2.57	0.0	No	n/a	5.729331823329559	n/a	n/a	n/a	ShowChoice	Gain
160.112	1.0	0.012	224.809	11.0	1	8.3	1.28	16.3477	955.0	5.0	Outcome1	8.3	2.57	0.0	No	n/a	5.729331823329559	n/a	n/a	n/a	ShowResult	Gain
161.132	3.324	0.02	225.829	11.0	1	8.3	1.28	16.3477	955.0	5.0	Outcome1	8.3	2.57	0.0	No	n/a	5.729331823329559	n/a	n/a	n/a	ISITrial	Gain
164.475	3.0	0.019	229.172	12.0	1	0.89	1.0	16.4589	955.0	1.2	Outcome1	0.89	1.9	2.61875	Yes	2.0	-1.0111362778406898	1.313	165.788	n/a	GetAnswer	Mixed
165.813	4.0	0.025	230.51	12.0	1	0.89	1.0	16.4589	955.0	1.2	Outcome1	0.89	1.9	2.61875	Yes	n/a	-1.0111362778406898	n/a	n/a	n/a	ShowChoice	Mixed
169.825	1.0	0.012	234.522	12.0	1	0.89	1.0	16.4589	955.0	1.2	Outcome1	0.89	1.9	2.61875	Yes	n/a	-1.0111362778406898	n/a	n/a	n/a	ShowResult	Mixed
170.844	6.642	0.019	235.541	12.0	1	0.89	1.0	16.4589	955.0	1.2	Outcome1	0.89	1.9	2.61875	Yes	n/a	-1.0111362778406898	n/a	n/a	n/a	ISITrial	Mixed
177.497	2.619	0.011	242.194	12.0	1	0.89	1.0	16.4589	955.0	1.2	Outcome1	0.89	1.9	2.61875	Yes	n/a	-1.0111362778406898	n/a	n/a	n/a	TrialHappPreview	Mixed
180.139	4.012	0.023	244.836	12.0	1	0.89	1.0	16.4589	955.0	1.2	Outcome1	0.89	1.9	2.61875	Yes	n/a	-1.0111362778406898	n/a	n/a	744.0	TrialHappiness	Mixed
180.139	0.626	n/a	245.168	12.0	1	0.89	1.0	16.4589	955.0	1.2	Outcome1	0.89	1.9	2.61875	Yes	n/a	-1.0111362778406898	n/a	n/a	744.0	TrialHappinessSliderResponse	Mixed
184.151	2.475	4.012	248.848	12.0	1	0.89	1.0	16.4589	955.0	1.2	Outcome1	0.89	1.9	2.61875	Yes	n/a	-1.0111362778406898	n/a	n/a	n/a	ISIRate	Mixed
186.641	3.0	0.015	251.338	13.0	1	-4.0	-4.0	15.9589	955.0	0.2	Certain	-7.94	-1.5	0.0	No	4.0	6.442808607021519	1.386	188.027	n/a	GetAnswer	Mixed
188.046	4.0	0.019	252.743	13.0	1	-4.0	-4.0	15.9589	955.0	0.2	Certain	-7.94	-1.5	0.0	No	n/a	6.442808607021519	n/a	n/a	n/a	ShowChoice	Mixed
192.058	1.0	0.012	256.755	13.0	1	-4.0	-4.0	15.9589	955.0	0.2	Certain	-7.94	-1.5	0.0	No	n/a	6.442808607021519	n/a	n/a	n/a	ShowResult	Mixed
193.077	3.48	0.019	257.774	13.0	1	-4.0	-4.0	15.9589	955.0	0.2	Certain	-7.94	-1.5	0.0	No	n/a	6.442808607021519	n/a	n/a	n/a	ISITrial	Mixed
196.588	3.0	0.031	261.285	14.0	1	0.5	-3.0	16.0214	955.0	0.2	Outcome1	0.5	-6.18	0.0	No	2.0	6.68176670441676	1.475	198.063	n/a	GetAnswer	Mixed
198.076	4.0	0.013	262.773	14.0	1	0.5	-3.0	16.0214	955.0	0.2	Outcome1	0.5	-6.18	0.0	No	n/a	6.68176670441676	n/a	n/a	n/a	ShowChoice	Mixed
202.088	1.0	0.012	266.785	14.0	1	0.5	-3.0	16.0214	955.0	0.2	Outcome1	0.5	-6.18	0.0	No	n/a	6.68176670441676	n/a	n/a	n/a	ShowResult	Mixed
203.107	5.019	0.019	267.804	14.0	1	0.5	-3.0	16.0214	955.0	0.2	Outcome1	0.5	-6.18	0.0	No	n/a	6.68176670441676	n/a	n/a	n/a	ISITrial	Mixed
208.156	3.0	0.03	272.853	15.0	1	-3.0	-3.0	15.6464	955.0	1.2	Certain	-7.02	-0.1	3.3485	Yes	4.0	6.9207248018120096	1.222	209.378	n/a	GetAnswer	Mixed
209.393	4.0	0.015	274.09	15.0	1	-3.0	-3.0	15.6464	955.0	1.2	Certain	-7.02	-0.1	3.3485	Yes	n/a	6.9207248018120096	n/a	n/a	n/a	ShowChoice	Mixed
213.405	1.0	0.012	278.102	15.0	1	-3.0	-3.0	15.6464	955.0	1.2	Certain	-7.02	-0.1	3.3485	Yes	n/a	6.9207248018120096	n/a	n/a	n/a	ShowResult	Mixed
214.425	7.614	0.02	279.122	15.0	1	-3.0	-3.0	15.6464	955.0	1.2	Certain	-7.02	-0.1	3.3485	Yes	n/a	6.9207248018120096	n/a	n/a	n/a	ISITrial	Mixed
222.064	3.348	0.025	286.761	15.0	1	-3.0	-3.0	15.6464	955.0	1.2	Certain	-7.02	-0.1	3.3485	Yes	n/a	6.9207248018120096	n/a	n/a	n/a	TrialHappPreview	Mixed
225.441	4.012	0.029	290.138	15.0	1	-3.0	-3.0	15.6464	955.0	1.2	Certain	-7.02	-0.1	3.3485	Yes	n/a	6.9207248018120096	n/a	n/a	712.0	TrialHappiness	Mixed
225.441	1.357	n/a	290.358	15.0	1	-3.0	-3.0	15.6464	955.0	1.2	Certain	-7.02	-0.1	3.3485	Yes	n/a	6.9207248018120096	n/a	n/a	712.0	TrialHappinessSliderResponse	Mixed
229.453	5.394	4.012	294.15	15.0	1	-3.0	-3.0	15.6464	955.0	1.2	Certain	-7.02	-0.1	3.3485	Yes	n/a	6.9207248018120096	n/a	n/a	n/a	ISIRate	Mixed
234.869	3.0	0.022	299.566	16.0	1	1.02	1.0	15.7739	955.0	2.0	Outcome2	2.3	1.02	0.0	No	2.0	-1.28406946017365	0.914	235.783	n/a	GetAnswer	Mixed
235.805	4.0	0.022	300.502	16.0	1	1.02	1.0	15.7739	955.0	2.0	Outcome2	2.3	1.02	0.0	No	n/a	-1.28406946017365	n/a	n/a	n/a	ShowChoice	Mixed
239.817	1.0	0.012	304.514	16.0	1	1.02	1.0	15.7739	955.0	2.0	Outcome2	2.3	1.02	0.0	No	n/a	-1.28406946017365	n/a	n/a	n/a	ShowResult	Mixed
240.837	3.008	0.02	305.534	16.0	1	1.02	1.0	15.7739	955.0	2.0	Outcome2	2.3	1.02	0.0	No	n/a	-1.28406946017365	n/a	n/a	n/a	ISITrial	Mixed
243.863	3.0	0.018	308.56	17.0	1	-3.0	-3.0	15.3989	955.0	2.0	Certain	0.3	-7.68	3.0415	Yes	4.0	7.978482446206121	1.597	245.46	n/a	GetAnswer	Mixed
245.484	4.0	0.024	310.181	17.0	1	-3.0	-3.0	15.3989	955.0	2.0	Certain	0.3	-7.68	3.0415	Yes	n/a	7.978482446206121	n/a	n/a	n/a	ShowChoice	Mixed
249.496	1.0	0.012	314.193	17.0	1	-3.0	-3.0	15.3989	955.0	2.0	Certain	0.3	-7.68	3.0415	Yes	n/a	7.978482446206121	n/a	n/a	n/a	ShowResult	Mixed
250.516	3.566	0.02	315.213	17.0	1	-3.0	-3.0	15.3989	955.0	2.0	Certain	0.3	-7.68	3.0415	Yes	n/a	7.978482446206121	n/a	n/a	n/a	ISITrial	Mixed
254.093	3.042	0.011	318.79	17.0	1	-3.0	-3.0	15.3989	955.0	2.0	Certain	0.3	-7.68	3.0415	Yes	n/a	7.978482446206121	n/a	n/a	n/a	TrialHappPreview	Mixed
257.152	4.012	0.017	321.849	17.0	1	-3.0	-3.0	15.3989	955.0	2.0	Certain	0.3	-7.68	3.0415	Yes	2{-2}2{-2}2{-2}2{-2}	7.978482446206121	2.181	259.333	700.0	TrialHappiness	Mixed
257.153	1.911	n/a	322.12	17.0	1	-3.0	-3.0	15.3989	955.0	2.0	Certain	0.3	-7.68	3.0415	Yes	n/a	7.978482446206121	n/a	n/a	700.0	TrialHappinessSliderResponse	Mixed
261.164	4.166	4.012	325.861	17.0	1	-3.0	-3.0	15.3989	955.0	2.0	Certain	0.3	-7.68	3.0415	Yes	n/a	7.978482446206121	n/a	n/a	n/a	ISIRate	Mixed
265.36	3.0	0.03	330.057	18.0	1	0.0	0.0	15.3989	955.0	1.82	Certain	4.7	-3.76	0.0	No	4.0	8.457531143827861	1.332	266.692	n/a	GetAnswer	Gain
266.714	4.0	0.022	331.411	18.0	1	0.0	0.0	15.3989	955.0	1.82	Certain	4.7	-3.76	0.0	No	n/a	8.457531143827861	n/a	n/a	n/a	ShowChoice	Gain
270.726	1.0	0.012	335.423	18.0	1	0.0	0.0	15.3989	955.0	1.82	Certain	4.7	-3.76	0.0	No	n/a	8.457531143827861	n/a	n/a	n/a	ShowResult	Gain
271.746	6.787	0.02	336.443	18.0	1	0.0	0.0	15.3989	955.0	1.82	Certain	4.7	-3.76	0.0	No	n/a	8.457531143827861	n/a	n/a	n/a	ISITrial	Gain
278.55	3.0	0.017	343.247	19.0	1	11.5	5.75	16.8364	955.0	2.0	Outcome2	12.9	11.5	0.0	No	2.0	-1.40269913174783	1.0	279.55	n/a	GetAnswer	Loss
279.569	4.0	0.019	344.266	19.0	1	11.5	5.75	16.8364	955.0	2.0	Outcome2	12.9	11.5	0.0	No	n/a	-1.40269913174783	n/a	n/a	n/a	ShowChoice	Loss
283.581	1.0	0.012	348.278	19.0	1	11.5	5.75	16.8364	955.0	2.0	Outcome2	12.9	11.5	0.0	No	n/a	-1.40269913174783	n/a	n/a	n/a	ShowResult	Loss
284.601	2.0	0.02	349.298	19.0	1	11.5	5.75	16.8364	955.0	2.0	Outcome2	12.9	11.5	0.0	No	n/a	-1.40269913174783	n/a	n/a	n/a	ISITrial	Loss
286.624	3.0	0.023	351.321	20.0	1	11.87	5.94	18.3202	955.0	2.48	Outcome2	13.3	11.87	2.92125	Yes	2.0	-1.4267648169120402	0.975	287.599	n/a	GetAnswer	Loss
287.627	4.0	0.028	352.324	20.0	1	11.87	5.94	18.3202	955.0	2.48	Outcome2	13.3	11.87	2.92125	Yes	n/a	-1.4267648169120402	n/a	n/a	n/a	ShowChoice	Loss
291.639	1.0	0.012	356.336	20.0	1	11.87	5.94	18.3202	955.0	2.48	Outcome2	13.3	11.87	2.92125	Yes	n/a	-1.4267648169120402	n/a	n/a	n/a	ShowResult	Loss
292.658	8.0	0.019	357.355	20.0	1	11.87	5.94	18.3202	955.0	2.48	Outcome2	13.3	11.87	2.92125	Yes	n/a	-1.4267648169120402	n/a	n/a	n/a	ISITrial	Loss
300.682	2.921	0.024	365.379	20.0	1	11.87	5.94	18.3202	955.0	2.48	Outcome2	13.3	11.87	2.92125	Yes	n/a	-1.4267648169120402	n/a	n/a	n/a	TrialHappPreview	Loss
303.625	4.012	0.022	368.322	20.0	1	11.87	5.94	18.3202	955.0	2.48	Outcome2	13.3	11.87	2.92125	Yes	n/a	-1.4267648169120402	n/a	n/a	768.0	TrialHappiness	Loss
303.625	1.352	n/a	368.582	20.0	1	11.87	5.94	18.3202	955.0	2.48	Outcome2	13.3	11.87	2.92125	Yes	n/a	-1.4267648169120402	n/a	n/a	768.0	TrialHappinessSliderResponse	Loss
307.637	3.685	4.012	372.334	20.0	1	11.87	5.94	18.3202	955.0	2.48	Outcome2	13.3	11.87	2.92125	Yes	n/a	-1.4267648169120402	n/a	n/a	n/a	ISIRate	Loss
311.348	3.0	0.026	376.045	21.0	1	2.33	1.16	18.6114	955.0	0.82	Outcome1	2.33	3.5	0.0	No	2.0	-1.17487731219328	0.885	312.233	n/a	GetAnswer	Mixed
312.25	4.0	0.017	376.947	21.0	1	2.33	1.16	18.6114	955.0	0.82	Outcome1	2.33	3.5	0.0	No	n/a	-1.17487731219328	n/a	n/a	n/a	ShowChoice	Mixed
316.262	1.0	0.012	380.959	21.0	1	2.33	1.16	18.6114	955.0	0.82	Outcome1	2.33	3.5	0.0	No	n/a	-1.17487731219328	n/a	n/a	n/a	ShowResult	Mixed
317.282	3.555	0.02	381.979	21.0	1	2.33	1.16	18.6114	955.0	0.82	Outcome1	2.33	3.5	0.0	No	n/a	-1.17487731219328	n/a	n/a	n/a	ISITrial	Mixed
320.859	3.0	0.022	385.556	22.0	1	0.0	0.0	18.6114	955.0	1.2	Certain	-4.48	3.9	3.2195	Yes	4.0	8.38052095130238	0.961	321.82	n/a	GetAnswer	Mixed
321.846	4.0	0.026	386.543	22.0	1	0.0	0.0	18.6114	955.0	1.2	Certain	-4.48	3.9	3.2195	Yes	n/a	8.38052095130238	n/a	n/a	n/a	ShowChoice	Mixed
325.858	1.0	0.012	390.555	22.0	1	0.0	0.0	18.6114	955.0	1.2	Certain	-4.48	3.9	3.2195	Yes	n/a	8.38052095130238	n/a	n/a	n/a	ShowResult	Mixed
326.877	6.793	0.019	391.574	22.0	1	0.0	0.0	18.6114	955.0	1.2	Certain	-4.48	3.9	3.2195	Yes	n/a	8.38052095130238	n/a	n/a	n/a	ISITrial	Mixed
333.681	3.22	0.011	398.378	22.0	1	0.0	0.0	18.6114	955.0	1.2	Certain	-4.48	3.9	3.2195	Yes	n/a	8.38052095130238	n/a	n/a	n/a	TrialHappPreview	Mixed
336.924	4.012	0.023	401.621	22.0	1	0.0	0.0	18.6114	955.0	1.2	Certain	-4.48	3.9	3.2195	Yes	n/a	8.38052095130238	n/a	n/a	680.0	TrialHappiness	Mixed
336.925	1.748	n/a	401.987	22.0	1	0.0	0.0	18.6114	955.0	1.2	Certain	-4.48	3.9	3.2195	Yes	n/a	8.38052095130238	n/a	n/a	680.0	TrialHappinessSliderResponse	Mixed
340.936	4.878	4.012	405.633	22.0	1	0.0	0.0	18.6114	955.0	1.2	Certain	-4.48	3.9	3.2195	Yes	n/a	8.38052095130238	n/a	n/a	n/a	ISIRate	Mixed
345.834	3.0	0.02	410.531	23.0	1	1.53	2.0	18.8026	955.0	0.52	Outcome2	3.1	1.53	0.0	No	2.0	-1.56728954322386	1.025	346.859	n/a	GetAnswer	Mixed
346.871	4.0	0.012	411.568	23.0	1	1.53	2.0	18.8026	955.0	0.52	Outcome2	3.1	1.53	0.0	No	n/a	-1.56728954322386	n/a	n/a	n/a	ShowChoice	Mixed
350.883	1.0	0.012	415.58	23.0	1	1.53	2.0	18.8026	955.0	0.52	Outcome2	3.1	1.53	0.0	No	n/a	-1.56728954322386	n/a	n/a	n/a	ShowResult	Mixed
351.902	8.0	0.019	416.599	23.0	1	1.53	2.0	18.8026	955.0	0.52	Outcome2	3.1	1.53	0.0	No	n/a	-1.56728954322386	n/a	n/a	n/a	ISITrial	Mixed
359.926	3.0	0.024	424.623	24.0	1	5.51	2.76	19.4914	955.0	2.22	Outcome2	7.1	5.51	3.255	Yes	2.0	-1.5932427331068302	1.067	360.993	n/a	GetAnswer	Gain
361.013	4.0	0.02	425.71	24.0	1	5.51	2.76	19.4914	955.0	2.22	Outcome2	7.1	5.51	3.255	Yes	n/a	-1.5932427331068302	n/a	n/a	n/a	ShowChoice	Gain
365.025	1.0	0.012	429.722	24.0	1	5.51	2.76	19.4914	955.0	2.22	Outcome2	7.1	5.51	3.255	Yes	n/a	-1.5932427331068302	n/a	n/a	n/a	ShowResult	Gain
366.045	2.0	0.02	430.742	24.0	1	5.51	2.76	19.4914	955.0	2.22	Outcome2	7.1	5.51	3.255	Yes	n/a	-1.5932427331068302	n/a	n/a	n/a	ISITrial	Gain
368.067	3.255	0.022	432.764	24.0	1	5.51	2.76	19.4914	955.0	2.22	Outcome2	7.1	5.51	3.255	Yes	n/a	-1.5932427331068302	n/a	n/a	n/a	TrialHappPreview	Gain
371.344	4.012	0.022	436.041	24.0	1	5.51	2.76	19.4914	955.0	2.22	Outcome2	7.1	5.51	3.255	Yes	2{-2}2{-2}	-1.5932427331068302	1.244	372.588	696.0	TrialHappiness	Gain
371.344	0.889	n/a	436.396	24.0	1	5.51	2.76	19.4914	955.0	2.22	Outcome2	7.1	5.51	3.255	Yes	n/a	-1.5932427331068302	n/a	n/a	696.0	TrialHappinessSliderResponse	Gain
375.356	5.02	4.012	440.053	24.0	1	5.51	2.76	19.4914	955.0	2.22	Outcome2	7.1	5.51	3.255	Yes	n/a	-1.5932427331068302	n/a	n/a	n/a	ISIRate	Gain
380.404	3.0	0.028	445.101	25.0	1	-3.0	-3.0	19.1164	955.0	1.0	Certain	1.7	-8.74	0.0	No	4.0	10.4382785956965	1.58	381.984	n/a	GetAnswer	Mixed
382.009	4.0	0.025	446.706	25.0	1	-3.0	-3.0	19.1164	955.0	1.0	Certain	1.7	-8.74	0.0	No	n/a	10.4382785956965	n/a	n/a	n/a	ShowChoice	Mixed
386.021	1.0	0.012	450.718	25.0	1	-3.0	-3.0	19.1164	955.0	1.0	Certain	1.7	-8.74	0.0	No	n/a	10.4382785956965	n/a	n/a	n/a	ShowResult	Mixed
387.041	3.749	0.02	451.738	25.0	1	-3.0	-3.0	19.1164	955.0	1.0	Certain	1.7	-8.74	0.0	No	n/a	10.4382785956965	n/a	n/a	n/a	ISITrial	Mixed
390.819	3.0	0.029	455.516	26.0	1	0.0	0.0	19.1164	955.0	2.22	Certain	-5.63	5.1	0.0	No	4.0	10.7315968289921	0.942	391.761	n/a	GetAnswer	Gain
391.771	4.0	0.01	456.468	26.0	1	0.0	0.0	19.1164	955.0	2.22	Certain	-5.63	5.1	0.0	No	n/a	10.7315968289921	n/a	n/a	n/a	ShowChoice	Gain
395.783	1.0	0.012	460.48	26.0	1	0.0	0.0	19.1164	955.0	2.22	Certain	-5.63	5.1	0.0	No	n/a	10.7315968289921	n/a	n/a	n/a	ShowResult	Gain
396.803	7.834	0.02	461.5	26.0	1	0.0	0.0	19.1164	955.0	2.22	Certain	-5.63	5.1	0.0	No	n/a	10.7315968289921	n/a	n/a	n/a	ISITrial	Gain
404.66	3.0	0.023	469.357	27.0	1	13.9	1.44	20.8539	955.0	3.6	Outcome2	2.88	13.9	2.54975	Yes	2.0	11.0249150622877	0.934	405.594	n/a	GetAnswer	Loss
405.613	4.0	0.019	470.31	27.0	1	13.9	1.44	20.8539	955.0	3.6	Outcome2	2.88	13.9	2.54975	Yes	n/a	11.0249150622877	n/a	n/a	n/a	ShowChoice	Loss
409.625	1.0	0.012	474.322	27.0	1	13.9	1.44	20.8539	955.0	3.6	Outcome2	2.88	13.9	2.54975	Yes	n/a	11.0249150622877	n/a	n/a	n/a	ShowResult	Loss
410.645	4.225	0.02	475.342	27.0	1	13.9	1.44	20.8539	955.0	3.6	Outcome2	2.88	13.9	2.54975	Yes	n/a	11.0249150622877	n/a	n/a	n/a	ISITrial	Loss
414.891	2.55	0.021	479.588	27.0	1	13.9	1.44	20.8539	955.0	3.6	Outcome2	2.88	13.9	2.54975	Yes	n/a	11.0249150622877	n/a	n/a	n/a	TrialHappPreview	Loss
417.465	4.012	0.024	482.162	27.0	1	13.9	1.44	20.8539	955.0	3.6	Outcome2	2.88	13.9	2.54975	Yes	n/a	11.0249150622877	n/a	n/a	760.0	TrialHappiness	Loss
417.466	2.593	n/a	482.426	27.0	1	13.9	1.44	20.8539	955.0	3.6	Outcome2	2.88	13.9	2.54975	Yes	n/a	11.0249150622877	n/a	n/a	760.0	TrialHappinessSliderResponse	Loss
421.477	2.199	4.012	486.174	27.0	1	13.9	1.44	20.8539	955.0	3.6	Outcome2	2.88	13.9	2.54975	Yes	n/a	11.0249150622877	n/a	n/a	n/a	ISIRate	Loss
525.572	1.689	n/a	590.576	n/a	1	n/a	n/a	n/a	n/a	n/a	n/a	n/a	n/a	n/a	n/a	n/a	n/a	n/a	n/a	740.0	BlockStartHappinessSliderResponse	n/a
-112.42	-0.001	0.024	488.397	n/a	2	n/a	n/a	n/a	n/a	n/a	n/a	n/a	n/a	n/a	n/a	{SPACE}	n/a	97.833	-14.587	n/a	Rest	n/a
-14.56	4.0	0.027	586.257	n/a	2	n/a	n/a	n/a	n/a	n/a	n/a	n/a	n/a	n/a	n/a	n/a	n/a	n/a	n/a	n/a	BlockHappyPreview	n/a
-10.548	1.996	0.012	590.269	n/a	2	n/a	n/a	n/a	n/a	n/a	n/a	n/a	n/a	n/a	n/a	n/a	n/a	n/a	n/a	740.0	BlockStartHappiness	n/a
-4.163	-0.001	0.024	596.654	n/a	2	n/a	n/a	n/a	n/a	n/a	n/a	n/a	n/a	n/a	n/a	5.0	n/a	4.146	-0.017	n/a	ScanWait	n/a
0.0	10.0	0.017	600.817	n/a	2	n/a	n/a	n/a	n/a	n/a	n/a	n/a	n/a	n/a	n/a	n/a	n/a	n/a	n/a	n/a	GetReady	n/a
10.013	3.0	0.013	610.83	28.0	2	-2.29	-1.14	20.5677	70.0	2.22	Outcome2	9.1	-2.29	0.0	No	2.0	-11.3945578231293	1.573	11.586	n/a	GetAnswer	Gain
11.601	4.0	0.015	612.418	28.0	2	-2.29	-1.14	20.5677	70.0	2.22	Outcome2	9.1	-2.29	0.0	No	n/a	-11.3945578231293	n/a	n/a	n/a	ShowChoice	Gain
15.613	1.0	0.012	616.43	28.0	2	-2.29	-1.14	20.5677	70.0	2.22	Outcome2	9.1	-2.29	0.0	No	n/a	-11.3945578231293	n/a	n/a	n/a	ShowResult	Gain
16.633	3.575	0.02	617.45	28.0	2	-2.29	-1.14	20.5677	70.0	2.22	Outcome2	9.1	-2.29	0.0	No	n/a	-11.3945578231293	n/a	n/a	n/a	ISITrial	Gain
20.227	3.0	0.019	621.044	29.0	2	0.95	0.48	20.6865	70.0	2.22	Outcome2	13.1	0.95	3.529	Yes	2.0	-12.1541950113379	0.846	21.073	n/a	GetAnswer	Loss
21.096	4.0	0.023	621.913	29.0	2	0.95	0.48	20.6865	70.0	2.22	Outcome2	13.1	0.95	3.529	Yes	n/a	-12.1541950113379	n/a	n/a	n/a	ShowChoice	Loss
25.108	1.0	0.012	625.925	29.0	2	0.95	0.48	20.6865	70.0	2.22	Outcome2	13.1	0.95	3.529	Yes	n/a	-12.1541950113379	n/a	n/a	n/a	ShowResult	Loss
26.128	3.955	0.02	626.945	29.0	2	0.95	0.48	20.6865	70.0	2.22	Outcome2	13.1	0.95	3.529	Yes	n/a	-12.1541950113379	n/a	n/a	n/a	ISITrial	Loss
30.106	3.529	0.023	630.923	29.0	2	0.95	0.48	20.6865	70.0	2.22	Outcome2	13.1	0.95	3.529	Yes	n/a	-12.1541950113379	n/a	n/a	n/a	TrialHappPreview	Loss
33.65	4.012	0.015	634.467	29.0	2	0.95	0.48	20.6865	70.0	2.22	Outcome2	13.1	0.95	3.529	Yes	n/a	-12.1541950113379	n/a	n/a	672.0	TrialHappiness	Loss
33.651	0.991	n/a	634.889	29.0	2	0.95	0.48	20.6865	70.0	2.22	Outcome2	13.1	0.95	3.529	Yes	n/a	-12.1541950113379	n/a	n/a	672.0	TrialHappinessSliderResponse	Loss
37.662	6.116	4.012	638.479	29.0	2	0.95	0.48	20.6865	70.0	2.22	Outcome2	13.1	0.95	3.529	Yes	n/a	-12.1541950113379	n/a	n/a	n/a	ISIRate	Loss
43.797	3.0	0.019	644.614	30.0	2	-0.06	-0.03	20.679	70.0	3.16	Outcome1	-0.06	11.7	0.0	No	2.0	-11.7573696145125	1.522	45.319	n/a	GetAnswer	Loss
45.335	4.0	0.016	646.152	30.0	2	-0.06	-0.03	20.679	70.0	3.16	Outcome1	-0.06	11.7	0.0	No	n/a	-11.7573696145125	n/a	n/a	n/a	ShowChoice	Loss
49.347	1.0	0.012	650.164	30.0	2	-0.06	-0.03	20.679	70.0	3.16	Outcome1	-0.06	11.7	0.0	No	n/a	-11.7573696145125	n/a	n/a	n/a	ShowResult	Loss
50.367	4.453	0.02	651.184	30.0	2	-0.06	-0.03	20.679	70.0	3.16	Outcome1	-0.06	11.7	0.0	No	n/a	-11.7573696145125	n/a	n/a	n/a	ISITrial	Loss
54.847	3.0	0.027	655.664	31.0	2	-0.14	-0.07	20.6615	70.0	5.0	Outcome2	12.3	-0.14	2.50325	Yes	2.0	-12.4399092970522	1.102	55.949	n/a	GetAnswer	Loss
55.967	4.0	0.018	656.784	31.0	2	-0.14	-0.07	20.6615	70.0	5.0	Outcome2	12.3	-0.14	2.50325	Yes	n/a	-12.4399092970522	n/a	n/a	n/a	ShowChoice	Loss
59.979	1.0	0.012	660.796	31.0	2	-0.14	-0.07	20.6615	70.0	5.0	Outcome2	12.3	-0.14	2.50325	Yes	n/a	-12.4399092970522	n/a	n/a	n/a	ShowResult	Loss
60.999	4.786	0.02	661.816	31.0	2	-0.14	-0.07	20.6615	70.0	5.0	Outcome2	12.3	-0.14	2.50325	Yes	n/a	-12.4399092970522	n/a	n/a	n/a	ISITrial	Loss
65.813	2.503	0.028	666.63	31.0	2	-0.14	-0.07	20.6615	70.0	5.0	Outcome2	12.3	-0.14	2.50325	Yes	n/a	-12.4399092970522	n/a	n/a	n/a	TrialHappPreview	Loss
68.337	4.012	0.021	669.154	31.0	2	-0.14	-0.07	20.6615	70.0	5.0	Outcome2	12.3	-0.14	2.50325	Yes	n/a	-12.4399092970522	n/a	n/a	620.0	TrialHappiness	Loss
68.338	1.639	n/a	669.497	31.0	2	-0.14	-0.07	20.6615	70.0	5.0	Outcome2	12.3	-0.14	2.50325	Yes	n/a	-12.4399092970522	n/a	n/a	620.0	TrialHappinessSliderResponse	Loss
72.349	2.013	4.012	673.166	31.0	2	-0.14	-0.07	20.6615	70.0	5.0	Outcome2	12.3	-0.14	2.50325	Yes	n/a	-12.4399092970522	n/a	n/a	n/a	ISIRate	Loss
74.389	3.0	0.027	675.206	32.0	2	-1.0	-1.0	20.5365	70.0	2.0	Certain	-7.34	4.9	0.0	No	4.0	-12.2380952380952	1.328	75.717	n/a	GetAnswer	Gain
75.743	4.0	0.026	676.56	32.0	2	-1.0	-1.0	20.5365	70.0	2.0	Certain	-7.34	4.9	0.0	No	n/a	-12.2380952380952	n/a	n/a	n/a	ShowChoice	Gain
79.755	1.0	0.012	680.572	32.0	2	-1.0	-1.0	20.5365	70.0	2.0	Certain	-7.34	4.9	0.0	No	n/a	-12.2380952380952	n/a	n/a	n/a	ShowResult	Gain
80.775	2.0	0.02	681.592	32.0	2	-1.0	-1.0	20.5365	70.0	2.0	Certain	-7.34	4.9	0.0	No	n/a	-12.2380952380952	n/a	n/a	n/a	ISITrial	Gain
82.797	3.0	0.022	683.614	33.0	2	-6.0	-6.0	19.7865	70.0	1.0	Certain	-0.3	-13.16	0.0	No	4.0	-12.8616780045351	1.426	84.223	n/a	GetAnswer	Mixed
84.235	4.0	0.012	685.052	33.0	2	-6.0	-6.0	19.7865	70.0	1.0	Certain	-0.3	-13.16	0.0	No	n/a	-12.8616780045351	n/a	n/a	n/a	ShowChoice	Mixed
88.247	1.0	0.012	689.064	33.0	2	-6.0	-6.0	19.7865	70.0	1.0	Certain	-0.3	-13.16	0.0	No	n/a	-12.8616780045351	n/a	n/a	n/a	ShowResult	Mixed
89.267	5.099	0.02	690.084	33.0	2	-6.0	-6.0	19.7865	70.0	1.0	Certain	-0.3	-13.16	0.0	No	n/a	-12.8616780045351	n/a	n/a	n/a	ISITrial	Mixed
94.382	3.0	0.016	695.199	34.0	2	-1.99	-1.0	19.5377	70.0	2.8	Outcome1	-1.99	11.5	3.2315	Yes	2.0	-13.4852607709751	1.263	95.645	n/a	GetAnswer	Loss
95.669	4.0	0.024	696.486	34.0	2	-1.99	-1.0	19.5377	70.0	2.8	Outcome1	-1.99	11.5	3.2315	Yes	n/a	-13.4852607709751	n/a	n/a	n/a	ShowChoice	Loss
99.681	1.0	0.012	700.498	34.0	2	-1.99	-1.0	19.5377	70.0	2.8	Outcome1	-1.99	11.5	3.2315	Yes	n/a	-13.4852607709751	n/a	n/a	n/a	ShowResult	Loss
100.701	4.784	0.02	701.518	34.0	2	-1.99	-1.0	19.5377	70.0	2.8	Outcome1	-1.99	11.5	3.2315	Yes	n/a	-13.4852607709751	n/a	n/a	n/a	ISITrial	Loss
105.498	3.232	0.013	706.315	34.0	2	-1.99	-1.0	19.5377	70.0	2.8	Outcome1	-1.99	11.5	3.2315	Yes	n/a	-13.4852607709751	n/a	n/a	n/a	TrialHappPreview	Loss
108.758	4.012	0.028	709.575	34.0	2	-1.99	-1.0	19.5377	70.0	2.8	Outcome1	-1.99	11.5	3.2315	Yes	n/a	-13.4852607709751	n/a	n/a	456.0	TrialHappiness	Loss
108.759	0.588	n/a	709.982	34.0	2	-1.99	-1.0	19.5377	70.0	2.8	Outcome1	-1.99	11.5	3.2315	Yes	n/a	-13.4852607709751	n/a	n/a	456.0	TrialHappinessSliderResponse	Loss
112.77	4.926	4.012	713.587	34.0	2	-1.99	-1.0	19.5377	70.0	2.8	Outcome1	-1.99	11.5	3.2315	Yes	n/a	-13.4852607709751	n/a	n/a	n/a	ISIRate	Loss
117.718	3.0	0.022	718.535	35.0	2	0.0	0.0	19.5377	70.0	2.8	Certain	-5.82	5.5	0.0	No	4.0	-11.3197278911565	1.07	118.788	n/a	GetAnswer	Gain
118.805	4.0	0.017	719.622	35.0	2	0.0	0.0	19.5377	70.0	2.8	Certain	-5.82	5.5	0.0	No	n/a	-11.3197278911565	n/a	n/a	n/a	ShowChoice	Gain
122.817	1.0	0.012	723.634	35.0	2	0.0	0.0	19.5377	70.0	2.8	Certain	-5.82	5.5	0.0	No	n/a	-11.3197278911565	n/a	n/a	n/a	ShowResult	Gain
123.837	2.098	0.02	724.654	35.0	2	0.0	0.0	19.5377	70.0	2.8	Certain	-5.82	5.5	0.0	No	n/a	-11.3197278911565	n/a	n/a	n/a	ISITrial	Gain
125.96	3.0	0.025	726.777	36.0	2	-0.46	-0.23	19.4802	70.0	2.48	Outcome2	11.3	-0.46	3.33575	Yes	2.0	-11.7573696145125	1.197	127.157	n/a	GetAnswer	Loss
127.18	4.0	0.023	727.997	36.0	2	-0.46	-0.23	19.4802	70.0	2.48	Outcome2	11.3	-0.46	3.33575	Yes	n/a	-11.7573696145125	n/a	n/a	n/a	ShowChoice	Loss
131.192	1.0	0.012	732.009	36.0	2	-0.46	-0.23	19.4802	70.0	2.48	Outcome2	11.3	-0.46	3.33575	Yes	n/a	-11.7573696145125	n/a	n/a	n/a	ShowResult	Loss
132.212	5.156	0.02	733.029	36.0	2	-0.46	-0.23	19.4802	70.0	2.48	Outcome2	11.3	-0.46	3.33575	Yes	n/a	-11.7573696145125	n/a	n/a	n/a	ISITrial	Loss
137.394	3.336	0.026	738.211	36.0	2	-0.46	-0.23	19.4802	70.0	2.48	Outcome2	11.3	-0.46	3.33575	Yes	n/a	-11.7573696145125	n/a	n/a	n/a	TrialHappPreview	Loss
140.754	4.012	0.024	741.571	36.0	2	-0.46	-0.23	19.4802	70.0	2.48	Outcome2	11.3	-0.46	3.33575	Yes	4{-4}4{-4}	-11.7573696145125	1.562	142.316	476.0	TrialHappiness	Loss
140.754	1.043	n/a	742.09	36.0	2	-0.46	-0.23	19.4802	70.0	2.48	Outcome2	11.3	-0.46	3.33575	Yes	n/a	-11.7573696145125	n/a	n/a	476.0	TrialHappinessSliderResponse	Loss
144.766	5.343	4.012	745.583	36.0	2	-0.46	-0.23	19.4802	70.0	2.48	Outcome2	11.3	-0.46	3.33575	Yes	n/a	-11.7573696145125	n/a	n/a	n/a	ISIRate	Loss
150.132	3.0	0.023	750.949	37.0	2	2.02	1.0	19.7327	70.0	4.2	Outcome1	2.02	-0.1	0.0	No	2.0	2.11866969009826	1.069	151.201	n/a	GetAnswer	Gain
151.219	4.0	0.018	752.036	37.0	2	2.02	1.0	19.7327	70.0	4.2	Outcome1	2.02	-0.1	0.0	No	n/a	2.11866969009826	n/a	n/a	n/a	ShowChoice	Gain
155.231	1.0	0.012	756.048	37.0	2	2.02	1.0	19.7327	70.0	4.2	Outcome1	2.02	-0.1	0.0	No	n/a	2.11866969009826	n/a	n/a	n/a	ShowResult	Gain
156.25	3.598	0.019	757.067	37.0	2	2.02	1.0	19.7327	70.0	4.2	Outcome1	2.02	-0.1	0.0	No	n/a	2.11866969009826	n/a	n/a	n/a	ISITrial	Gain
159.878	3.0	0.03	760.695	38.0	2	-3.0	-3.0	19.3577	70.0	0.4	Certain	-10.1	2.9	0.0	No	4.0	-12.995464852607698	1.26	161.138	n/a	GetAnswer	Mixed
161.148	4.0	0.01	761.965	38.0	2	-3.0	-3.0	19.3577	70.0	0.4	Certain	-10.1	2.9	0.0	No	n/a	-12.995464852607698	n/a	n/a	n/a	ShowChoice	Mixed
165.16	1.0	0.012	765.977	38.0	2	-3.0	-3.0	19.3577	70.0	0.4	Certain	-10.1	2.9	0.0	No	n/a	-12.995464852607698	n/a	n/a	n/a	ShowResult	Mixed
166.18	4.787	0.02	766.997	38.0	2	-3.0	-3.0	19.3577	70.0	0.4	Certain	-10.1	2.9	0.0	No	n/a	-12.995464852607698	n/a	n/a	n/a	ISITrial	Mixed
170.994	3.0	0.027	771.811	39.0	2	-14.16	-7.0	17.5877	70.0	0.66	Outcome1	-14.16	-0.7	2.86425	Yes	2.0	-13.455782312925198	1.98	172.974	n/a	GetAnswer	Mixed
173.0	4.0	0.026	773.817	39.0	2	-14.16	-7.0	17.5877	70.0	0.66	Outcome1	-14.16	-0.7	2.86425	Yes	n/a	-13.455782312925198	n/a	n/a	n/a	ShowChoice	Mixed
177.012	1.0	0.012	777.829	39.0	2	-14.16	-7.0	17.5877	70.0	0.66	Outcome1	-14.16	-0.7	2.86425	Yes	n/a	-13.455782312925198	n/a	n/a	n/a	ShowResult	Mixed
178.032	2.348	0.02	778.849	39.0	2	-14.16	-7.0	17.5877	70.0	0.66	Outcome1	-14.16	-0.7	2.86425	Yes	n/a	-13.455782312925198	n/a	n/a	n/a	ISITrial	Mixed
180.406	2.864	0.026	781.223	39.0	2	-14.16	-7.0	17.5877	70.0	0.66	Outcome1	-14.16	-0.7	2.86425	Yes	n/a	-13.455782312925198	n/a	n/a	n/a	TrialHappPreview	Mixed
183.298	4.012	0.028	784.115	39.0	2	-14.16	-7.0	17.5877	70.0	0.66	Outcome1	-14.16	-0.7	2.86425	Yes	n/a	-13.455782312925198	n/a	n/a	344.0	TrialHappiness	Mixed
183.298	2.188	n/a	784.471	39.0	2	-14.16	-7.0	17.5877	70.0	0.66	Outcome1	-14.16	-0.7	2.86425	Yes	n/a	-13.455782312925198	n/a	n/a	344.0	TrialHappinessSliderResponse	Mixed
187.31	3.457	4.012	788.127	39.0	2	-14.16	-7.0	17.5877	70.0	0.66	Outcome1	-14.16	-0.7	2.86425	Yes	n/a	-13.455782312925198	n/a	n/a	n/a	ISIRate	Mixed
190.787	3.0	0.02	791.604	40.0	2	2.52	1.0	17.9027	70.0	4.2	Outcome2	0.82	2.52	0.0	No	2.0	1.6974678760393	1.033	191.82	n/a	GetAnswer	Gain
191.84	4.0	0.02	792.657	40.0	2	2.52	1.0	17.9027	70.0	4.2	Outcome2	0.82	2.52	0.0	No	n/a	1.6974678760393	n/a	n/a	n/a	ShowChoice	Gain
195.852	1.0	0.012	796.669	40.0	2	2.52	1.0	17.9027	70.0	4.2	Outcome2	0.82	2.52	0.0	No	n/a	1.6974678760393	n/a	n/a	n/a	ShowResult	Gain
196.872	3.158	0.02	797.689	40.0	2	2.52	1.0	17.9027	70.0	4.2	Outcome2	0.82	2.52	0.0	No	n/a	1.6974678760393	n/a	n/a	n/a	ISITrial	Gain
200.048	3.0	0.018	800.865	41.0	2	0.0	0.0	17.9027	70.0	4.2	Certain	6.1	-5.88	4.0	Yes	4.0	-11.9818594104308	0.971	201.019	n/a	GetAnswer	Gain
201.034	4.0	0.015	801.851	41.0	2	0.0	0.0	17.9027	70.0	4.2	Certain	6.1	-5.88	4.0	Yes	n/a	-11.9818594104308	n/a	n/a	n/a	ShowChoice	Gain
205.046	1.0	0.012	805.863	41.0	2	0.0	0.0	17.9027	70.0	4.2	Certain	6.1	-5.88	4.0	Yes	n/a	-11.9818594104308	n/a	n/a	n/a	ShowResult	Gain
206.066	4.506	0.02	806.883	41.0	2	0.0	0.0	17.9027	70.0	4.2	Certain	6.1	-5.88	4.0	Yes	n/a	-11.9818594104308	n/a	n/a	n/a	ISITrial	Gain
210.596	4.0	0.024	811.413	41.0	2	0.0	0.0	17.9027	70.0	4.2	Certain	6.1	-5.88	4.0	Yes	n/a	-11.9818594104308	n/a	n/a	n/a	TrialHappPreview	Gain
214.625	4.012	0.029	815.442	41.0	2	0.0	0.0	17.9027	70.0	4.2	Certain	6.1	-5.88	4.0	Yes	n/a	-11.9818594104308	n/a	n/a	544.0	TrialHappiness	Gain
214.625	0.204	n/a	815.847	41.0	2	0.0	0.0	17.9027	70.0	4.2	Certain	6.1	-5.88	4.0	Yes	n/a	-11.9818594104308	n/a	n/a	544.0	TrialHappinessSliderResponse	Gain
218.637	8.0	4.012	819.454	41.0	2	0.0	0.0	17.9027	70.0	4.2	Certain	6.1	-5.88	4.0	Yes	n/a	-11.9818594104308	n/a	n/a	n/a	ISIRate	Gain
226.661	3.0	0.024	827.478	42.0	2	-1.0	-1.0	17.7777	70.0	2.0	Certain	6.9	-8.79	0.0	No	4.0	-15.6938775510204	1.653	228.314	n/a	GetAnswer	Gain
228.332	4.0	0.018	829.149	42.0	2	-1.0	-1.0	17.7777	70.0	2.0	Certain	6.9	-8.79	0.0	No	n/a	-15.6938775510204	n/a	n/a	n/a	ShowChoice	Gain
232.344	1.0	0.012	833.161	42.0	2	-1.0	-1.0	17.7777	70.0	2.0	Certain	6.9	-8.79	0.0	No	n/a	-15.6938775510204	n/a	n/a	n/a	ShowResult	Gain
233.364	6.248	0.02	834.181	42.0	2	-1.0	-1.0	17.7777	70.0	2.0	Certain	6.9	-8.79	0.0	No	n/a	-15.6938775510204	n/a	n/a	n/a	ISITrial	Gain
239.633	3.0	0.021	840.45	43.0	2	-6.0	-6.0	17.0277	70.0	1.5	Certain	-14.13	2.1	2.77575	Yes	4.0	-16.2312925170068	1.79	241.423	n/a	GetAnswer	Mixed
241.438	4.0	0.015	842.255	43.0	2	-6.0	-6.0	17.0277	70.0	1.5	Certain	-14.13	2.1	2.77575	Yes	n/a	-16.2312925170068	n/a	n/a	n/a	ShowChoice	Mixed
245.45	1.0	0.012	846.267	43.0	2	-6.0	-6.0	17.0277	70.0	1.5	Certain	-14.13	2.1	2.77575	Yes	n/a	-16.2312925170068	n/a	n/a	n/a	ShowResult	Mixed
246.47	4.596	0.02	847.287	43.0	2	-6.0	-6.0	17.0277	70.0	1.5	Certain	-14.13	2.1	2.77575	Yes	n/a	-16.2312925170068	n/a	n/a	n/a	ISITrial	Mixed
251.084	2.776	0.018	851.901	43.0	2	-6.0	-6.0	17.0277	70.0	1.5	Certain	-14.13	2.1	2.77575	Yes	n/a	-16.2312925170068	n/a	n/a	n/a	TrialHappPreview	Mixed
253.875	4.012	0.015	854.692	43.0	2	-6.0	-6.0	17.0277	70.0	1.5	Certain	-14.13	2.1	2.77575	Yes	n/a	-16.2312925170068	n/a	n/a	480.0	TrialHappiness	Mixed
253.876	1.474	n/a	855.455	43.0	2	-6.0	-6.0	17.0277	70.0	1.5	Certain	-14.13	2.1	2.77575	Yes	n/a	-16.2312925170068	n/a	n/a	480.0	TrialHappinessSliderResponse	Mixed
257.887	3.103	4.012	858.704	43.0	2	-6.0	-6.0	17.0277	70.0	1.5	Certain	-14.13	2.1	2.77575	Yes	n/a	-16.2312925170068	n/a	n/a	n/a	ISIRate	Mixed
261.013	3.0	0.023	861.83	44.0	2	-14.38	-6.0	15.2302	70.0	0.66	Outcome1	-14.38	1.3	0.0	No	2.0	-15.6802721088435	1.954	262.967	n/a	GetAnswer	Mixed
262.986	4.0	0.019	863.803	44.0	2	-14.38	-6.0	15.2302	70.0	0.66	Outcome1	-14.38	1.3	0.0	No	n/a	-15.6802721088435	n/a	n/a	n/a	ShowChoice	Mixed
266.998	1.0	0.012	867.815	44.0	2	-14.38	-6.0	15.2302	70.0	0.66	Outcome1	-14.38	1.3	0.0	No	n/a	-15.6802721088435	n/a	n/a	n/a	ShowResult	Mixed
268.018	2.42	0.02	868.835	44.0	2	-14.38	-6.0	15.2302	70.0	0.66	Outcome1	-14.38	1.3	0.0	No	n/a	-15.6802721088435	n/a	n/a	n/a	ISITrial	Mixed
270.458	3.0	0.02	871.275	45.0	2	3.38	2.0	15.6527	70.0	2.8	Outcome1	3.38	0.95	0.0	No	2.0	2.43008314436886	1.026	271.484	n/a	GetAnswer	Loss
271.511	4.0	0.027	872.328	45.0	2	3.38	2.0	15.6527	70.0	2.8	Outcome1	3.38	0.95	0.0	No	n/a	2.43008314436886	n/a	n/a	n/a	ShowChoice	Loss
275.523	1.0	0.012	876.34	45.0	2	3.38	2.0	15.6527	70.0	2.8	Outcome1	3.38	0.95	0.0	No	n/a	2.43008314436886	n/a	n/a	n/a	ShowResult	Loss
276.543	3.144	0.02	877.36	45.0	2	3.38	2.0	15.6527	70.0	2.8	Outcome1	3.38	0.95	0.0	No	n/a	2.43008314436886	n/a	n/a	n/a	ISITrial	Loss
279.703	3.0	0.016	880.52	46.0	2	-12.11	-4.0	14.1389	70.0	1.68	Outcome1	-12.11	4.5	3.84125	Yes	2.0	-16.609977324263	1.897	281.6	n/a	GetAnswer	Gain
281.625	4.0	0.025	882.442	46.0	2	-12.11	-4.0	14.1389	70.0	1.68	Outcome1	-12.11	4.5	3.84125	Yes	n/a	-16.609977324263	n/a	n/a	n/a	ShowChoice	Gain
285.637	1.0	0.012	886.454	46.0	2	-12.11	-4.0	14.1389	70.0	1.68	Outcome1	-12.11	4.5	3.84125	Yes	n/a	-16.609977324263	n/a	n/a	n/a	ShowResult	Gain
286.657	2.246	0.02	887.474	46.0	2	-12.11	-4.0	14.1389	70.0	1.68	Outcome1	-12.11	4.5	3.84125	Yes	n/a	-16.609977324263	n/a	n/a	n/a	ISITrial	Gain
288.93	3.841	0.027	889.747	46.0	2	-12.11	-4.0	14.1389	70.0	1.68	Outcome1	-12.11	4.5	3.84125	Yes	n/a	-16.609977324263	n/a	n/a	n/a	TrialHappPreview	Gain
292.792	4.012	0.021	893.609	46.0	2	-12.11	-4.0	14.1389	70.0	1.68	Outcome1	-12.11	4.5	3.84125	Yes	n/a	-16.609977324263	n/a	n/a	264.0	TrialHappiness	Gain
292.793	0.975	n/a	893.911	46.0	2	-12.11	-4.0	14.1389	70.0	1.68	Outcome1	-12.11	4.5	3.84125	Yes	n/a	-16.609977324263	n/a	n/a	264.0	TrialHappinessSliderResponse	Gain
296.804	7.365	4.012	897.621	46.0	2	-12.11	-4.0	14.1389	70.0	1.68	Outcome1	-12.11	4.5	3.84125	Yes	n/a	-16.609977324263	n/a	n/a	n/a	ISIRate	Gain
304.193	3.0	0.024	905.01	47.0	2	0.3	0.15	14.1764	70.0	3.16	Outcome2	13.7	0.3	0.0	No	2.0	-13.4013605442177	0.824	305.017	n/a	GetAnswer	Loss
305.045	4.0	0.027	905.862	47.0	2	0.3	0.15	14.1764	70.0	3.16	Outcome2	13.7	0.3	0.0	No	n/a	-13.4013605442177	n/a	n/a	n/a	ShowChoice	Loss
309.057	1.0	0.012	909.874	47.0	2	0.3	0.15	14.1764	70.0	3.16	Outcome2	13.7	0.3	0.0	No	n/a	-13.4013605442177	n/a	n/a	n/a	ShowResult	Loss
310.077	2.0	0.02	910.894	47.0	2	0.3	0.15	14.1764	70.0	3.16	Outcome2	13.7	0.3	0.0	No	n/a	-13.4013605442177	n/a	n/a	n/a	ISITrial	Loss
312.1	3.0	0.023	912.917	48.0	2	0.0	0.0	14.1764	70.0	0.4	Certain	0.22	-1.43	2.83175	Yes	4.0	1.64833711262283	1.237	313.337	n/a	GetAnswer	Mixed
313.353	4.0	0.016	914.17	48.0	2	0.0	0.0	14.1764	70.0	0.4	Certain	0.22	-1.43	2.83175	Yes	n/a	1.64833711262283	n/a	n/a	n/a	ShowChoice	Mixed
317.365	1.0	0.012	918.182	48.0	2	0.0	0.0	14.1764	70.0	0.4	Certain	0.22	-1.43	2.83175	Yes	n/a	1.64833711262283	n/a	n/a	n/a	ShowResult	Mixed
318.385	3.692	0.02	919.202	48.0	2	0.0	0.0	14.1764	70.0	0.4	Certain	0.22	-1.43	2.83175	Yes	n/a	1.64833711262283	n/a	n/a	n/a	ISITrial	Mixed
322.096	2.832	0.019	922.913	48.0	2	0.0	0.0	14.1764	70.0	0.4	Certain	0.22	-1.43	2.83175	Yes	n/a	1.64833711262283	n/a	n/a	n/a	TrialHappPreview	Mixed
324.955	4.012	0.027	925.772	48.0	2	0.0	0.0	14.1764	70.0	0.4	Certain	0.22	-1.43	2.83175	Yes	n/a	1.64833711262283	n/a	n/a	408.0	TrialHappiness	Mixed
324.955	0.787	n/a	926.046	48.0	2	0.0	0.0	14.1764	70.0	0.4	Certain	0.22	-1.43	2.83175	Yes	n/a	1.64833711262283	n/a	n/a	408.0	TrialHappinessSliderResponse	Mixed
328.967	3.327	4.012	929.784	48.0	2	0.0	0.0	14.1764	70.0	0.4	Certain	0.22	-1.43	2.83175	Yes	n/a	1.64833711262283	n/a	n/a	n/a	ISIRate	Mixed
332.31	3.0	0.016	933.127	49.0	2	2.62	1.0	14.5039	70.0	1.68	Outcome2	0.37	2.62	0.0	No	2.0	2.25170068027211	1.028	333.338	n/a	GetAnswer	Loss
333.363	4.0	0.025	934.18	49.0	2	2.62	1.0	14.5039	70.0	1.68	Outcome2	0.37	2.62	0.0	No	n/a	2.25170068027211	n/a	n/a	n/a	ShowChoice	Loss
337.375	1.0	0.012	938.192	49.0	2	2.62	1.0	14.5039	70.0	1.68	Outcome2	0.37	2.62	0.0	No	n/a	2.25170068027211	n/a	n/a	n/a	ShowResult	Loss
338.395	8.0	0.02	939.212	49.0	2	2.62	1.0	14.5039	70.0	1.68	Outcome2	0.37	2.62	0.0	No	n/a	2.25170068027211	n/a	n/a	n/a	ISITrial	Loss
346.419	3.0	0.024	947.236	50.0	2	2.98	2.0	14.8764	70.0	3.6	Outcome1	2.98	0.7	3.54725	Yes	2.0	2.28363567649282	0.915	347.334	n/a	GetAnswer	Loss
347.355	4.0	0.021	948.172	50.0	2	2.98	2.0	14.8764	70.0	3.6	Outcome1	2.98	0.7	3.54725	Yes	n/a	2.28363567649282	n/a	n/a	n/a	ShowChoice	Loss
351.367	1.0	0.012	952.184	50.0	2	2.98	2.0	14.8764	70.0	3.6	Outcome1	2.98	0.7	3.54725	Yes	n/a	2.28363567649282	n/a	n/a	n/a	ShowResult	Loss
352.387	7.537	0.02	953.204	50.0	2	2.98	2.0	14.8764	70.0	3.6	Outcome1	2.98	0.7	3.54725	Yes	n/a	2.28363567649282	n/a	n/a	n/a	ISITrial	Loss
359.943	3.547	0.019	960.76	50.0	2	2.98	2.0	14.8764	70.0	3.6	Outcome1	2.98	0.7	3.54725	Yes	n/a	2.28363567649282	n/a	n/a	n/a	TrialHappPreview	Loss
363.52	4.012	0.03	964.337	50.0	2	2.98	2.0	14.8764	70.0	3.6	Outcome1	2.98	0.7	3.54725	Yes	n/a	2.28363567649282	n/a	n/a	568.0	TrialHappiness	Loss
363.521	0.257	n/a	964.623	50.0	2	2.98	2.0	14.8764	70.0	3.6	Outcome1	2.98	0.7	3.54725	Yes	n/a	2.28363567649282	n/a	n/a	568.0	TrialHappinessSliderResponse	Loss
367.532	6.189	4.012	968.349	50.0	2	2.98	2.0	14.8764	70.0	3.6	Outcome1	2.98	0.7	3.54725	Yes	n/a	2.28363567649282	n/a	n/a	n/a	ISIRate	Loss
373.751	3.0	0.03	974.568	51.0	2	-5.0	-5.0	14.2514	70.0	2.0	Certain	4.3	-15.48	0.0	No	4.0	-19.7777777777778	1.37	375.121	n/a	GetAnswer	Mixed
375.138	4.0	0.017	975.955	51.0	2	-5.0	-5.0	14.2514	70.0	2.0	Certain	4.3	-15.48	0.0	No	n/a	-19.7777777777778	n/a	n/a	n/a	ShowChoice	Mixed
379.15	1.0	0.012	979.967	51.0	2	-5.0	-5.0	14.2514	70.0	2.0	Certain	4.3	-15.48	0.0	No	n/a	-19.7777777777778	n/a	n/a	n/a	ShowResult	Mixed
380.17	5.508	0.02	980.987	51.0	2	-5.0	-5.0	14.2514	70.0	2.0	Certain	4.3	-15.48	0.0	No	n/a	-19.7777777777778	n/a	n/a	n/a	ISITrial	Mixed
385.703	3.0	0.025	986.52	52.0	2	-1.0	-1.0	14.1264	70.0	0.3	Certain	-2.83	0.18	0.0	No	4.0	3.01266061980348	1.581	387.284	n/a	GetAnswer	Mixed
387.308	4.0	0.024	988.125	52.0	2	-1.0	-1.0	14.1264	70.0	0.3	Certain	-2.83	0.18	0.0	No	n/a	3.01266061980348	n/a	n/a	n/a	ShowChoice	Mixed
391.32	1.0	0.012	992.137	52.0	2	-1.0	-1.0	14.1264	70.0	0.3	Certain	-2.83	0.18	0.0	No	n/a	3.01266061980348	n/a	n/a	n/a	ShowResult	Mixed
392.339	5.913	0.019	993.156	52.0	2	-1.0	-1.0	14.1264	70.0	0.3	Certain	-2.83	0.18	0.0	No	n/a	3.01266061980348	n/a	n/a	n/a	ISITrial	Mixed
398.274	3.0	0.022	999.091	53.0	2	-2.0	-2.0	13.8764	70.0	1.68	Certain	-12.41	8.5	2.99675	Yes	4.0	-20.907029478458103	1.423	399.697	n/a	GetAnswer	Gain
399.711	4.0	0.014	1000.528	53.0	2	-2.0	-2.0	13.8764	70.0	1.68	Certain	-12.41	8.5	2.99675	Yes	n/a	-20.907029478458103	n/a	n/a	n/a	ShowChoice	Gain
403.723	1.0	0.012	1004.54	53.0	2	-2.0	-2.0	13.8764	70.0	1.68	Certain	-12.41	8.5	2.99675	Yes	n/a	-20.907029478458103	n/a	n/a	n/a	ShowResult	Gain
404.743	3.66	0.02	1005.56	53.0	2	-2.0	-2.0	13.8764	70.0	1.68	Certain	-12.41	8.5	2.99675	Yes	n/a	-20.907029478458103	n/a	n/a	n/a	ISITrial	Gain
408.421	2.997	0.018	1009.238	53.0	2	-2.0	-2.0	13.8764	70.0	1.68	Certain	-12.41	8.5	2.99675	Yes	n/a	-20.907029478458103	n/a	n/a	n/a	TrialHappPreview	Gain
411.447	4.012	0.029	1012.264	53.0	2	-2.0	-2.0	13.8764	70.0	1.68	Certain	-12.41	8.5	2.99675	Yes	n/a	-20.907029478458103	n/a	n/a	456.0	TrialHappiness	Gain
411.447	0.868	n/a	1012.59	53.0	2	-2.0	-2.0	13.8764	70.0	1.68	Certain	-12.41	8.5	2.99675	Yes	n/a	-20.907029478458103	n/a	n/a	456.0	TrialHappinessSliderResponse	Gain
415.459	3.987	4.012	1016.276	53.0	2	-2.0	-2.0	13.8764	70.0	1.68	Certain	-12.41	8.5	2.99675	Yes	n/a	-20.907029478458103	n/a	n/a	n/a	ISIRate	Gain
419.471	3.0	0.025	1020.288	54.0	2	2.0	2.0	14.1264	70.0	1.68	Certain	12.5	-7.07	0.0	No	4.0	-19.5668934240363	1.121	420.592	n/a	GetAnswer	Loss
420.607	4.0	0.015	1021.424	54.0	2	2.0	2.0	14.1264	70.0	1.68	Certain	12.5	-7.07	0.0	No	n/a	-19.5668934240363	n/a	n/a	n/a	ShowChoice	Loss
424.619	1.0	0.012	1025.436	54.0	2	2.0	2.0	14.1264	70.0	1.68	Certain	12.5	-7.07	0.0	No	n/a	-19.5668934240363	n/a	n/a	n/a	ShowResult	Loss
425.639	8.0	0.02	1026.456	54.0	2	2.0	2.0	14.1264	70.0	1.68	Certain	12.5	-7.07	0.0	No	n/a	-19.5668934240363	n/a	n/a	n/a	ISITrial	Loss
482.426	1.301	n/a	1083.827	n/a	2	n/a	n/a	n/a	n/a	n/a	n/a	n/a	n/a	n/a	n/a	n/a	n/a	n/a	n/a	476.0	BlockStartHappinessSliderResponse	n/a
-61.283	-0.001	0.024	1034.48	n/a	3	n/a	n/a	n/a	n/a	n/a	n/a	n/a	n/a	n/a	n/a	{SPACE}	n/a	44.73	-16.553	n/a	Rest	n/a
-16.533	4.0	0.019	1079.23	n/a	3	n/a	n/a	n/a	n/a	n/a	n/a	n/a	n/a	n/a	n/a	n/a	n/a	n/a	n/a	n/a	BlockHappyPreview	n/a
-12.521	1.885	0.012	1083.242	n/a	3	n/a	n/a	n/a	n/a	n/a	n/a	n/a	n/a	n/a	n/a	n/a	n/a	n/a	n/a	476.0	BlockStartHappiness	n/a
-4.38	-0.001	0.013	1091.383	n/a	3	n/a	n/a	n/a	n/a	n/a	n/a	n/a	n/a	n/a	n/a	5.0	n/a	4.37	-0.01	n/a	ScanWait	n/a
0.0	10.0	0.01	1095.763	n/a	3	n/a	n/a	n/a	n/a	n/a	n/a	n/a	n/a	n/a	n/a	n/a	n/a	n/a	n/a	n/a	GetReady	n/a
10.013	3.0	0.013	1105.776	55.0	3	12.1	1.98	15.6389	955.0	4.2	Outcome2	3.96	12.1	2.53325	Yes	2.0	8.13703284258211	0.858	10.871	n/a	GetAnswer	Loss
10.883	4.0	0.012	1106.646	55.0	3	12.1	1.98	15.6389	955.0	4.2	Outcome2	3.96	12.1	2.53325	Yes	n/a	8.13703284258211	n/a	n/a	n/a	ShowChoice	Loss
14.895	1.0	0.012	1110.658	55.0	3	12.1	1.98	15.6389	955.0	4.2	Outcome2	3.96	12.1	2.53325	Yes	n/a	8.13703284258211	n/a	n/a	n/a	ShowResult	Loss
15.914	7.709	0.019	1111.677	55.0	3	12.1	1.98	15.6389	955.0	4.2	Outcome2	3.96	12.1	2.53325	Yes	n/a	8.13703284258211	n/a	n/a	n/a	ISITrial	Loss
23.638	2.533	0.015	1119.401	55.0	3	12.1	1.98	15.6389	955.0	4.2	Outcome2	3.96	12.1	2.53325	Yes	n/a	8.13703284258211	n/a	n/a	n/a	TrialHappPreview	Loss
26.195	4.012	0.024	1121.958	55.0	3	12.1	1.98	15.6389	955.0	4.2	Outcome2	3.96	12.1	2.53325	Yes	n/a	8.13703284258211	n/a	n/a	672.0	TrialHappiness	Loss
26.196	1.93	n/a	1122.31	55.0	3	12.1	1.98	15.6389	955.0	4.2	Outcome2	3.96	12.1	2.53325	Yes	n/a	8.13703284258211	n/a	n/a	672.0	TrialHappinessSliderResponse	Loss
30.207	2.133	4.012	1125.97	55.0	3	12.1	1.98	15.6389	955.0	4.2	Outcome2	3.96	12.1	2.53325	Yes	n/a	8.13703284258211	n/a	n/a	n/a	ISIRate	Loss
32.364	3.0	0.024	1128.127	56.0	3	-1.0	-1.0	15.5139	955.0	0.82	Certain	1.5	-3.85	0.0	No	4.0	5.34994337485844	1.325	33.689	n/a	GetAnswer	Mixed
33.701	4.0	0.012	1129.464	56.0	3	-1.0	-1.0	15.5139	955.0	0.82	Certain	1.5	-3.85	0.0	No	n/a	5.34994337485844	n/a	n/a	n/a	ShowChoice	Mixed
37.713	1.0	0.012	1133.476	56.0	3	-1.0	-1.0	15.5139	955.0	0.82	Certain	1.5	-3.85	0.0	No	n/a	5.34994337485844	n/a	n/a	n/a	ShowResult	Mixed
38.733	4.697	0.02	1134.496	56.0	3	-1.0	-1.0	15.5139	955.0	0.82	Certain	1.5	-3.85	0.0	No	n/a	5.34994337485844	n/a	n/a	n/a	ISITrial	Mixed
43.447	3.0	0.017	1139.21	57.0	3	4.08	2.04	16.0239	955.0	2.48	Outcome1	4.08	5.3	0.0	No	2.0	-1.2203661759154398	0.783	44.23	n/a	GetAnswer	Gain
44.249	4.0	0.019	1140.012	57.0	3	4.08	2.04	16.0239	955.0	2.48	Outcome1	4.08	5.3	0.0	No	n/a	-1.2203661759154398	n/a	n/a	n/a	ShowChoice	Gain
48.261	1.0	0.012	1144.024	57.0	3	4.08	2.04	16.0239	955.0	2.48	Outcome1	4.08	5.3	0.0	No	n/a	-1.2203661759154398	n/a	n/a	n/a	ShowResult	Gain
49.281	4.291	0.02	1145.044	57.0	3	4.08	2.04	16.0239	955.0	2.48	Outcome1	4.08	5.3	0.0	No	n/a	-1.2203661759154398	n/a	n/a	n/a	ISITrial	Gain
53.594	3.0	0.022	1149.357	58.0	3	8.9	1.46	17.1364	955.0	2.0	Outcome1	8.9	2.91	3.04575	Yes	2.0	5.9909399773499405	0.792	54.386	n/a	GetAnswer	Gain
54.413	4.0	0.027	1150.176	58.0	3	8.9	1.46	17.1364	955.0	2.0	Outcome1	8.9	2.91	3.04575	Yes	n/a	5.9909399773499405	n/a	n/a	n/a	ShowChoice	Gain
58.425	1.0	0.012	1154.188	58.0	3	8.9	1.46	17.1364	955.0	2.0	Outcome1	8.9	2.91	3.04575	Yes	n/a	5.9909399773499405	n/a	n/a	n/a	ShowResult	Gain
59.445	2.037	0.02	1155.208	58.0	3	8.9	1.46	17.1364	955.0	2.0	Outcome1	8.9	2.91	3.04575	Yes	n/a	5.9909399773499405	n/a	n/a	n/a	ISITrial	Gain
61.501	3.046	0.019	1157.264	58.0	3	8.9	1.46	17.1364	955.0	2.0	Outcome1	8.9	2.91	3.04575	Yes	n/a	5.9909399773499405	n/a	n/a	n/a	TrialHappPreview	Gain
64.577	4.012	0.03	1160.34	58.0	3	8.9	1.46	17.1364	955.0	2.0	Outcome1	8.9	2.91	3.04575	Yes	n/a	5.9909399773499405	n/a	n/a	736.0	TrialHappiness	Gain
64.577	0.979	n/a	1160.556	58.0	3	8.9	1.46	17.1364	955.0	2.0	Outcome1	8.9	2.91	3.04575	Yes	n/a	5.9909399773499405	n/a	n/a	736.0	TrialHappinessSliderResponse	Gain
68.589	4.183	4.012	1164.352	58.0	3	8.9	1.46	17.1364	955.0	2.0	Outcome1	8.9	2.91	3.04575	Yes	n/a	5.9909399773499405	n/a	n/a	n/a	ISIRate	Gain
72.801	3.0	0.029	1168.564	59.0	3	-2.0	-2.0	16.8864	955.0	1.5	Certain	-5.12	0.1	0.0	No	4.0	5.224235560588901	1.557	74.358	n/a	GetAnswer	Mixed
74.373	4.0	0.015	1170.136	59.0	3	-2.0	-2.0	16.8864	955.0	1.5	Certain	-5.12	0.1	0.0	No	n/a	5.224235560588901	n/a	n/a	n/a	ShowChoice	Mixed
78.385	1.0	0.012	1174.148	59.0	3	-2.0	-2.0	16.8864	955.0	1.5	Certain	-5.12	0.1	0.0	No	n/a	5.224235560588901	n/a	n/a	n/a	ShowResult	Mixed
79.404	5.064	0.019	1175.167	59.0	3	-2.0	-2.0	16.8864	955.0	1.5	Certain	-5.12	0.1	0.0	No	n/a	5.224235560588901	n/a	n/a	n/a	ISITrial	Mixed
84.486	3.0	0.018	1180.249	60.0	3	1.67	2.0	17.0952	955.0	0.3	Outcome1	1.67	2.7	3.5625	Yes	2.0	-1.03473008682522	0.787	85.273	n/a	GetAnswer	Mixed
85.289	4.0	0.016	1181.052	60.0	3	1.67	2.0	17.0952	955.0	0.3	Outcome1	1.67	2.7	3.5625	Yes	n/a	-1.03473008682522	n/a	n/a	n/a	ShowChoice	Mixed
89.301	1.0	0.012	1185.064	60.0	3	1.67	2.0	17.0952	955.0	0.3	Outcome1	1.67	2.7	3.5625	Yes	n/a	-1.03473008682522	n/a	n/a	n/a	ShowResult	Mixed
90.32	8.0	0.019	1186.083	60.0	3	1.67	2.0	17.0952	955.0	0.3	Outcome1	1.67	2.7	3.5625	Yes	n/a	-1.03473008682522	n/a	n/a	n/a	ISITrial	Mixed
98.344	3.562	0.024	1194.107	60.0	3	1.67	2.0	17.0952	955.0	0.3	Outcome1	1.67	2.7	3.5625	Yes	n/a	-1.03473008682522	n/a	n/a	n/a	TrialHappPreview	Mixed
101.922	4.012	0.016	1197.685	60.0	3	1.67	2.0	17.0952	955.0	0.3	Outcome1	1.67	2.7	3.5625	Yes	n/a	-1.03473008682522	n/a	n/a	664.0	TrialHappiness	Mixed
101.922	1.021	n/a	1198.477	60.0	3	1.67	2.0	17.0952	955.0	0.3	Outcome1	1.67	2.7	3.5625	Yes	n/a	-1.03473008682522	n/a	n/a	664.0	TrialHappinessSliderResponse	Mixed
105.934	6.25	4.012	1201.697	60.0	3	1.67	2.0	17.0952	955.0	0.3	Outcome1	1.67	2.7	3.5625	Yes	n/a	-1.03473008682522	n/a	n/a	n/a	ISIRate	Mixed
112.202	3.0	0.018	1207.965	61.0	3	0.0	0.0	17.0952	955.0	0.66	Certain	3.3	-3.64	0.0	No	4.0	6.943374858437151	1.073	113.275	n/a	GetAnswer	Mixed
113.289	4.0	0.014	1209.052	61.0	3	0.0	0.0	17.0952	955.0	0.66	Certain	3.3	-3.64	0.0	No	n/a	6.943374858437151	n/a	n/a	n/a	ShowChoice	Mixed
117.301	1.0	0.012	1213.064	61.0	3	0.0	0.0	17.0952	955.0	0.66	Certain	3.3	-3.64	0.0	No	n/a	6.943374858437151	n/a	n/a	n/a	ShowResult	Mixed
118.321	4.586	0.02	1214.084	61.0	3	0.0	0.0	17.0952	955.0	0.66	Certain	3.3	-3.64	0.0	No	n/a	6.943374858437151	n/a	n/a	n/a	ISITrial	Mixed
122.934	3.0	0.027	1218.697	62.0	3	-0.28	-0.28	17.0602	955.0	1.82	Certain	6.7	-0.57	3.74875	Yes	4.0	7.27293318233296	1.176	124.11	n/a	GetAnswer	Gain
124.121	4.0	0.011	1219.884	62.0	3	-0.28	-0.28	17.0602	955.0	1.82	Certain	6.7	-0.57	3.74875	Yes	n/a	7.27293318233296	n/a	n/a	n/a	ShowChoice	Gain
128.133	1.0	0.012	1223.896	62.0	3	-0.28	-0.28	17.0602	955.0	1.82	Certain	6.7	-0.57	3.74875	Yes	n/a	7.27293318233296	n/a	n/a	n/a	ShowResult	Gain
129.153	5.212	0.02	1224.916	62.0	3	-0.28	-0.28	17.0602	955.0	1.82	Certain	6.7	-0.57	3.74875	Yes	n/a	7.27293318233296	n/a	n/a	n/a	ISITrial	Gain
134.385	3.749	0.02	1230.148	62.0	3	-0.28	-0.28	17.0602	955.0	1.82	Certain	6.7	-0.57	3.74875	Yes	n/a	7.27293318233296	n/a	n/a	n/a	TrialHappPreview	Gain
138.163	4.012	0.029	1233.926	62.0	3	-0.28	-0.28	17.0602	955.0	1.82	Certain	6.7	-0.57	3.74875	Yes	2{-2}4{-4}	7.27293318233296	1.111	139.274	584.0	TrialHappiness	Gain
138.164	0.796	n/a	1234.242	62.0	3	-0.28	-0.28	17.0602	955.0	1.82	Certain	6.7	-0.57	3.74875	Yes	n/a	7.27293318233296	n/a	n/a	584.0	TrialHappinessSliderResponse	Gain
142.175	6.995	4.012	1237.938	62.0	3	-0.28	-0.28	17.0602	955.0	1.82	Certain	6.7	-0.57	3.74875	Yes	n/a	7.27293318233296	n/a	n/a	n/a	ISIRate	Gain
149.196	3.0	0.026	1244.959	63.0	3	7.5	-0.73	17.9977	955.0	2.8	Outcome2	-1.46	7.5	0.0	No	2.0	8.96149490373726	1.289	150.485	n/a	GetAnswer	Gain
150.5	4.0	0.015	1246.263	63.0	3	7.5	-0.73	17.9977	955.0	2.8	Outcome2	-1.46	7.5	0.0	No	n/a	8.96149490373726	n/a	n/a	n/a	ShowChoice	Gain
154.512	1.0	0.012	1250.275	63.0	3	7.5	-0.73	17.9977	955.0	2.8	Outcome2	-1.46	7.5	0.0	No	n/a	8.96149490373726	n/a	n/a	n/a	ShowResult	Gain
155.532	5.595	0.02	1251.295	63.0	3	7.5	-0.73	17.9977	955.0	2.8	Outcome2	-1.46	7.5	0.0	No	n/a	8.96149490373726	n/a	n/a	n/a	ISITrial	Gain
161.149	3.0	0.022	1256.912	64.0	3	9.3	-0.04	19.1602	955.0	2.48	Outcome1	9.3	-0.08	0.0	No	2.0	9.38165345413364	1.434	162.583	n/a	GetAnswer	Gain
162.603	4.0	0.02	1258.366	64.0	3	9.3	-0.04	19.1602	955.0	2.48	Outcome1	9.3	-0.08	0.0	No	n/a	9.38165345413364	n/a	n/a	n/a	ShowChoice	Gain
166.615	1.0	0.012	1262.378	64.0	3	9.3	-0.04	19.1602	955.0	2.48	Outcome1	9.3	-0.08	0.0	No	n/a	9.38165345413364	n/a	n/a	n/a	ShowResult	Gain
167.635	5.47	0.02	1263.398	64.0	3	9.3	-0.04	19.1602	955.0	2.48	Outcome1	9.3	-0.08	0.0	No	n/a	9.38165345413364	n/a	n/a	n/a	ISITrial	Gain
173.135	3.0	0.03	1268.898	65.0	3	-1.0	-1.0	19.0352	955.0	1.5	Certain	-5.7	4.1	2.99675	Yes	4.0	9.80181200453001	1.471	174.606	n/a	GetAnswer	Mixed
174.622	4.0	0.016	1270.385	65.0	3	-1.0	-1.0	19.0352	955.0	1.5	Certain	-5.7	4.1	2.99675	Yes	n/a	9.80181200453001	n/a	n/a	n/a	ShowChoice	Mixed
178.634	1.0	0.012	1274.397	65.0	3	-1.0	-1.0	19.0352	955.0	1.5	Certain	-5.7	4.1	2.99675	Yes	n/a	9.80181200453001	n/a	n/a	n/a	ShowResult	Mixed
179.654	3.344	0.02	1275.417	65.0	3	-1.0	-1.0	19.0352	955.0	1.5	Certain	-5.7	4.1	2.99675	Yes	n/a	9.80181200453001	n/a	n/a	n/a	ISITrial	Mixed
183.014	2.997	0.016	1278.777	65.0	3	-1.0	-1.0	19.0352	955.0	1.5	Certain	-5.7	4.1	2.99675	Yes	n/a	9.80181200453001	n/a	n/a	n/a	TrialHappPreview	Mixed
186.04	4.012	0.029	1281.803	65.0	3	-1.0	-1.0	19.0352	955.0	1.5	Certain	-5.7	4.1	2.99675	Yes	2{-2}2{-2}2{-2}	9.80181200453001	2.599	188.639	664.0	TrialHappiness	Mixed
186.04	2.285	n/a	1282.117	65.0	3	-1.0	-1.0	19.0352	955.0	1.5	Certain	-5.7	4.1	2.99675	Yes	n/a	9.80181200453001	n/a	n/a	664.0	TrialHappinessSliderResponse	Mixed
190.052	3.987	4.012	1285.815	65.0	3	-1.0	-1.0	19.0352	955.0	1.5	Certain	-5.7	4.1	2.99675	Yes	n/a	9.80181200453001	n/a	n/a	n/a	ISIRate	Mixed
194.064	3.0	0.025	1289.827	66.0	3	-3.0	-3.0	18.6602	955.0	0.52	Certain	-7.76	1.1	0.0	No	4.0	8.862967157417891	1.45	195.514	n/a	GetAnswer	Mixed
195.535	4.0	0.021	1291.298	66.0	3	-3.0	-3.0	18.6602	955.0	0.52	Certain	-7.76	1.1	0.0	No	n/a	8.862967157417891	n/a	n/a	n/a	ShowChoice	Mixed
199.547	1.0	0.012	1295.31	66.0	3	-3.0	-3.0	18.6602	955.0	0.52	Certain	-7.76	1.1	0.0	No	n/a	8.862967157417891	n/a	n/a	n/a	ShowResult	Mixed
200.567	3.959	0.02	1296.33	66.0	3	-3.0	-3.0	18.6602	955.0	0.52	Certain	-7.76	1.1	0.0	No	n/a	8.862967157417891	n/a	n/a	n/a	ISITrial	Mixed
204.545	3.0	0.019	1300.308	67.0	3	7.7	-0.74	19.6227	955.0	3.16	Outcome2	-1.49	7.7	2.9185	Yes	2.0	9.1925254813137	1.356	205.901	n/a	GetAnswer	Gain
205.916	4.0	0.015	1301.679	67.0	3	7.7	-0.74	19.6227	955.0	3.16	Outcome2	-1.49	7.7	2.9185	Yes	n/a	9.1925254813137	n/a	n/a	n/a	ShowChoice	Gain
209.928	1.0	0.012	1305.691	67.0	3	7.7	-0.74	19.6227	955.0	3.16	Outcome2	-1.49	7.7	2.9185	Yes	n/a	9.1925254813137	n/a	n/a	n/a	ShowResult	Gain
210.948	4.199	0.02	1306.711	67.0	3	7.7	-0.74	19.6227	955.0	3.16	Outcome2	-1.49	7.7	2.9185	Yes	n/a	9.1925254813137	n/a	n/a	n/a	ISITrial	Gain
215.16	2.918	0.013	1310.923	67.0	3	7.7	-0.74	19.6227	955.0	3.16	Outcome2	-1.49	7.7	2.9185	Yes	n/a	9.1925254813137	n/a	n/a	n/a	TrialHappPreview	Gain
218.102	4.012	0.024	1313.865	67.0	3	7.7	-0.74	19.6227	955.0	3.16	Outcome2	-1.49	7.7	2.9185	Yes	n/a	9.1925254813137	n/a	n/a	664.0	TrialHappiness	Gain
218.103	1.647	n/a	1314.35	67.0	3	7.7	-0.74	19.6227	955.0	3.16	Outcome2	-1.49	7.7	2.9185	Yes	n/a	9.1925254813137	n/a	n/a	664.0	TrialHappinessSliderResponse	Gain
222.114	3.674	4.012	1317.877	67.0	3	7.7	-0.74	19.6227	955.0	3.16	Outcome2	-1.49	7.7	2.9185	Yes	n/a	9.1925254813137	n/a	n/a	n/a	ISIRate	Gain
225.809	3.0	0.021	1321.572	68.0	3	5.74	2.87	20.3402	955.0	2.48	Outcome2	7.3	5.74	0.0	No	2.0	-1.56247640619102	0.851	226.66	n/a	GetAnswer	Gain
226.678	4.0	0.018	1322.441	68.0	3	5.74	2.87	20.3402	955.0	2.48	Outcome2	7.3	5.74	0.0	No	n/a	-1.56247640619102	n/a	n/a	n/a	ShowChoice	Gain
230.69	1.0	0.012	1326.453	68.0	3	5.74	2.87	20.3402	955.0	2.48	Outcome2	7.3	5.74	0.0	No	n/a	-1.56247640619102	n/a	n/a	n/a	ShowResult	Gain
231.71	2.185	0.02	1327.473	68.0	3	5.74	2.87	20.3402	955.0	2.48	Outcome2	7.3	5.74	0.0	No	n/a	-1.56247640619102	n/a	n/a	n/a	ISITrial	Gain
233.916	3.0	0.021	1329.679	69.0	3	1.0	1.0	20.4652	955.0	3.6	Certain	5.9	-3.95	0.0	No	4.0	9.85164212910532	0.985	234.901	n/a	GetAnswer	Gain
234.919	4.0	0.018	1330.682	69.0	3	1.0	1.0	20.4652	955.0	3.6	Certain	5.9	-3.95	0.0	No	n/a	9.85164212910532	n/a	n/a	n/a	ShowChoice	Gain
238.931	1.0	0.012	1334.694	69.0	3	1.0	1.0	20.4652	955.0	3.6	Certain	5.9	-3.95	0.0	No	n/a	9.85164212910532	n/a	n/a	n/a	ShowResult	Gain
239.951	2.0	0.02	1335.714	69.0	3	1.0	1.0	20.4652	955.0	3.6	Certain	5.9	-3.95	0.0	No	n/a	9.85164212910532	n/a	n/a	n/a	ISITrial	Gain
241.974	3.0	0.023	1337.737	70.0	3	10.7	0.26	21.8027	955.0	1.82	Outcome2	0.52	10.7	3.65125	Yes	2.0	10.1812004530011	0.857	242.831	n/a	GetAnswer	Loss
242.843	4.0	0.012	1338.606	70.0	3	10.7	0.26	21.8027	955.0	1.82	Outcome2	0.52	10.7	3.65125	Yes	n/a	10.1812004530011	n/a	n/a	n/a	ShowChoice	Loss
246.855	1.0	0.012	1342.618	70.0	3	10.7	0.26	21.8027	955.0	1.82	Outcome2	0.52	10.7	3.65125	Yes	n/a	10.1812004530011	n/a	n/a	n/a	ShowResult	Loss
247.875	2.623	0.02	1343.638	70.0	3	10.7	0.26	21.8027	955.0	1.82	Outcome2	0.52	10.7	3.65125	Yes	n/a	10.1812004530011	n/a	n/a	n/a	ISITrial	Loss
250.516	3.651	0.018	1346.279	70.0	3	10.7	0.26	21.8027	955.0	1.82	Outcome2	0.52	10.7	3.65125	Yes	n/a	10.1812004530011	n/a	n/a	n/a	TrialHappPreview	Loss
254.194	4.012	0.027	1349.957	70.0	3	10.7	0.26	21.8027	955.0	1.82	Outcome2	0.52	10.7	3.65125	Yes	n/a	10.1812004530011	n/a	n/a	692.0	TrialHappiness	Loss
254.194	1.748	n/a	1350.233	70.0	3	10.7	0.26	21.8027	955.0	1.82	Outcome2	0.52	10.7	3.65125	Yes	n/a	10.1812004530011	n/a	n/a	692.0	TrialHappinessSliderResponse	Loss
258.206	6.605	4.012	1353.969	70.0	3	10.7	0.26	21.8027	955.0	1.82	Outcome2	0.52	10.7	3.65125	Yes	n/a	10.1812004530011	n/a	n/a	n/a	ISIRate	Loss
264.842	3.0	0.031	1360.605	71.0	3	-2.63	-2.0	21.4739	955.0	0.4	Outcome2	-1.1	-2.63	0.0	No	2.0	-1.53123820309551	1.205	266.047	n/a	GetAnswer	Mixed
266.062	4.0	0.015	1361.825	71.0	3	-2.63	-2.0	21.4739	955.0	0.4	Outcome2	-1.1	-2.63	0.0	No	n/a	-1.53123820309551	n/a	n/a	n/a	ShowChoice	Mixed
270.074	1.0	0.012	1365.837	71.0	3	-2.63	-2.0	21.4739	955.0	0.4	Outcome2	-1.1	-2.63	0.0	No	n/a	-1.53123820309551	n/a	n/a	n/a	ShowResult	Mixed
271.094	5.499	0.02	1366.857	71.0	3	-2.63	-2.0	21.4739	955.0	0.4	Outcome2	-1.1	-2.63	0.0	No	n/a	-1.53123820309551	n/a	n/a	n/a	ISITrial	Mixed
276.611	3.0	0.018	1372.374	72.0	3	-1.0	-1.0	21.3489	955.0	0.82	Certain	-0.5	-2.06	3.0805	Yes	4.0	-1.55605889014723	1.446	278.057	n/a	GetAnswer	Mixed
278.082	4.0	0.025	1373.845	72.0	3	-1.0	-1.0	21.3489	955.0	0.82	Certain	-0.5	-2.06	3.0805	Yes	n/a	-1.55605889014723	n/a	n/a	n/a	ShowChoice	Mixed
282.11	1.0	0.028	1377.873	72.0	3	-1.0	-1.0	21.3489	955.0	0.82	Certain	-0.5	-2.06	3.0805	Yes	n/a	-1.55605889014723	n/a	n/a	n/a	ShowResult	Mixed
283.13	5.672	0.02	1378.893	72.0	3	-1.0	-1.0	21.3489	955.0	0.82	Certain	-0.5	-2.06	3.0805	Yes	n/a	-1.55605889014723	n/a	n/a	n/a	ISITrial	Mixed
288.83	3.08	0.028	1384.593	72.0	3	-1.0	-1.0	21.3489	955.0	0.82	Certain	-0.5	-2.06	3.0805	Yes	n/a	-1.55605889014723	n/a	n/a	n/a	TrialHappPreview	Mixed
291.94	4.012	0.03	1387.703	72.0	3	-1.0	-1.0	21.3489	955.0	0.82	Certain	-0.5	-2.06	3.0805	Yes	n/a	-1.55605889014723	n/a	n/a	664.0	TrialHappiness	Mixed
291.94	1.075	n/a	1388.557	72.0	3	-1.0	-1.0	21.3489	955.0	0.82	Certain	-0.5	-2.06	3.0805	Yes	n/a	-1.55605889014723	n/a	n/a	664.0	TrialHappinessSliderResponse	Mixed
295.952	4.322	4.012	1391.715	72.0	3	-1.0	-1.0	21.3489	955.0	0.82	Certain	-0.5	-2.06	3.0805	Yes	n/a	-1.55605889014723	n/a	n/a	n/a	ISIRate	Mixed
300.298	3.0	0.024	1396.061	73.0	3	10.3	-0.4	22.6364	955.0	5.0	Outcome1	10.3	-0.81	0.0	No	2.0	11.106455266138198	1.124	301.422	n/a	GetAnswer	Gain
301.435	4.0	0.013	1397.198	73.0	3	10.3	-0.4	22.6364	955.0	5.0	Outcome1	10.3	-0.81	0.0	No	n/a	11.106455266138198	n/a	n/a	n/a	ShowChoice	Gain
305.447	1.0	0.012	1401.21	73.0	3	10.3	-0.4	22.6364	955.0	5.0	Outcome1	10.3	-0.81	0.0	No	n/a	11.106455266138198	n/a	n/a	n/a	ShowResult	Gain
306.467	4.616	0.02	1402.23	73.0	3	10.3	-0.4	22.6364	955.0	5.0	Outcome1	10.3	-0.81	0.0	No	n/a	11.106455266138198	n/a	n/a	n/a	ISITrial	Gain
311.114	3.0	0.031	1406.877	74.0	3	2.0	2.0	22.8864	955.0	3.6	Certain	7.9	-3.54	3.05625	Yes	4.0	11.436013590034	1.213	312.327	n/a	GetAnswer	Gain
312.351	4.0	0.024	1408.114	74.0	3	2.0	2.0	22.8864	955.0	3.6	Certain	7.9	-3.54	3.05625	Yes	n/a	11.436013590034	n/a	n/a	n/a	ShowChoice	Gain
316.363	1.0	0.012	1412.126	74.0	3	2.0	2.0	22.8864	955.0	3.6	Certain	7.9	-3.54	3.05625	Yes	n/a	11.436013590034	n/a	n/a	n/a	ShowResult	Gain
317.382	3.909	0.019	1413.145	74.0	3	2.0	2.0	22.8864	955.0	3.6	Certain	7.9	-3.54	3.05625	Yes	n/a	11.436013590034	n/a	n/a	n/a	ISITrial	Gain
321.311	3.056	0.02	1417.074	74.0	3	2.0	2.0	22.8864	955.0	3.6	Certain	7.9	-3.54	3.05625	Yes	n/a	11.436013590034	n/a	n/a	n/a	TrialHappPreview	Gain
324.387	4.012	0.02	1420.15	74.0	3	2.0	2.0	22.8864	955.0	3.6	Certain	7.9	-3.54	3.05625	Yes	n/a	11.436013590034	n/a	n/a	712.0	TrialHappiness	Gain
324.387	1.5	n/a	1420.48	74.0	3	2.0	2.0	22.8864	955.0	3.6	Certain	7.9	-3.54	3.05625	Yes	n/a	11.436013590034	n/a	n/a	712.0	TrialHappinessSliderResponse	Gain
328.399	4.225	4.012	1424.162	74.0	3	2.0	2.0	22.8864	955.0	3.6	Certain	7.9	-3.54	3.05625	Yes	n/a	11.436013590034	n/a	n/a	n/a	ISIRate	Gain
332.645	3.0	0.021	1428.408	75.0	3	10.9	-0.02	24.2489	955.0	2.0	Outcome1	10.9	-0.05	0.0	No	2.0	10.9501698754247	1.105	333.75	n/a	GetAnswer	Loss
333.765	4.0	0.015	1429.528	75.0	3	10.9	-0.02	24.2489	955.0	2.0	Outcome1	10.9	-0.05	0.0	No	n/a	10.9501698754247	n/a	n/a	n/a	ShowChoice	Loss
337.777	1.0	0.012	1433.54	75.0	3	10.9	-0.02	24.2489	955.0	2.0	Outcome1	10.9	-0.05	0.0	No	n/a	10.9501698754247	n/a	n/a	n/a	ShowResult	Loss
338.797	4.979	0.02	1434.56	75.0	3	10.9	-0.02	24.2489	955.0	2.0	Outcome1	10.9	-0.05	0.0	No	n/a	10.9501698754247	n/a	n/a	n/a	ISITrial	Loss
343.795	3.0	0.019	1439.558	76.0	3	12.7	0.74	25.8364	955.0	1.82	Outcome1	12.7	1.47	0.0	No	2.0	11.2253680634202	0.926	344.721	n/a	GetAnswer	Loss
344.748	4.0	0.027	1440.511	76.0	3	12.7	0.74	25.8364	955.0	1.82	Outcome1	12.7	1.47	0.0	No	n/a	11.2253680634202	n/a	n/a	n/a	ShowChoice	Loss
348.76	1.0	0.012	1444.523	76.0	3	12.7	0.74	25.8364	955.0	1.82	Outcome1	12.7	1.47	0.0	No	n/a	11.2253680634202	n/a	n/a	n/a	ShowResult	Loss
349.779	3.931	0.019	1445.542	76.0	3	12.7	0.74	25.8364	955.0	1.82	Outcome1	12.7	1.47	0.0	No	n/a	11.2253680634202	n/a	n/a	n/a	ISITrial	Loss
353.741	3.0	0.031	1449.504	77.0	3	9.7	-0.9	27.0489	955.0	3.16	Outcome2	-1.8	9.7	4.0	Yes	2.0	11.5005662514156	1.118	354.859	n/a	GetAnswer	Gain
354.878	4.0	0.019	1450.641	77.0	3	9.7	-0.9	27.0489	955.0	3.16	Outcome2	-1.8	9.7	4.0	Yes	n/a	11.5005662514156	n/a	n/a	n/a	ShowChoice	Gain
358.89	1.0	0.012	1454.653	77.0	3	9.7	-0.9	27.0489	955.0	3.16	Outcome2	-1.8	9.7	4.0	Yes	n/a	11.5005662514156	n/a	n/a	n/a	ShowResult	Gain
359.91	7.022	0.02	1455.673	77.0	3	9.7	-0.9	27.0489	955.0	3.16	Outcome2	-1.8	9.7	4.0	Yes	n/a	11.5005662514156	n/a	n/a	n/a	ISITrial	Gain
366.947	4.0	0.015	1462.71	77.0	3	9.7	-0.9	27.0489	955.0	3.16	Outcome2	-1.8	9.7	4.0	Yes	n/a	11.5005662514156	n/a	n/a	n/a	TrialHappPreview	Gain
370.976	4.012	0.029	1466.739	77.0	3	9.7	-0.9	27.0489	955.0	3.16	Outcome2	-1.8	9.7	4.0	Yes	n/a	11.5005662514156	n/a	n/a	752.0	TrialHappiness	Gain
370.977	2.462	n/a	1467.044	77.0	3	9.7	-0.9	27.0489	955.0	3.16	Outcome2	-1.8	9.7	4.0	Yes	n/a	11.5005662514156	n/a	n/a	752.0	TrialHappinessSliderResponse	Gain
374.988	8.0	4.012	1470.751	77.0	3	9.7	-0.9	27.0489	955.0	3.16	Outcome2	-1.8	9.7	4.0	Yes	n/a	11.5005662514156	n/a	n/a	n/a	ISIRate	Gain
383.012	3.0	0.024	1478.775	78.0	3	7.24	3.62	27.9539	955.0	1.82	Outcome1	7.24	8.7	0.0	No	2.0	-1.46111740279351	1.248	384.26	n/a	GetAnswer	Gain
384.283	4.0	0.023	1480.046	78.0	3	7.24	3.62	27.9539	955.0	1.82	Outcome1	7.24	8.7	0.0	No	n/a	-1.46111740279351	n/a	n/a	n/a	ShowChoice	Gain
388.295	1.0	0.012	1484.058	78.0	3	7.24	3.62	27.9539	955.0	1.82	Outcome1	7.24	8.7	0.0	No	n/a	-1.46111740279351	n/a	n/a	n/a	ShowResult	Gain
389.314	2.078	0.019	1485.077	78.0	3	7.24	3.62	27.9539	955.0	1.82	Outcome1	7.24	8.7	0.0	No	n/a	-1.46111740279351	n/a	n/a	n/a	ISITrial	Gain
391.421	3.0	0.029	1487.184	79.0	3	0.0	0.0	27.9539	955.0	2.48	Certain	-6.03	5.3	2.7295	Yes	4.0	11.326160815402	0.967	392.388	n/a	GetAnswer	Gain
392.407	4.0	0.019	1488.17	79.0	3	0.0	0.0	27.9539	955.0	2.48	Certain	-6.03	5.3	2.7295	Yes	n/a	11.326160815402	n/a	n/a	n/a	ShowChoice	Gain
396.419	1.0	0.012	1492.182	79.0	3	0.0	0.0	27.9539	955.0	2.48	Certain	-6.03	5.3	2.7295	Yes	n/a	11.326160815402	n/a	n/a	n/a	ShowResult	Gain
397.439	3.829	0.02	1493.202	79.0	3	0.0	0.0	27.9539	955.0	2.48	Certain	-6.03	5.3	2.7295	Yes	n/a	11.326160815402	n/a	n/a	n/a	ISITrial	Gain
401.283	2.73	0.015	1497.046	79.0	3	0.0	0.0	27.9539	955.0	2.48	Certain	-6.03	5.3	2.7295	Yes	n/a	11.326160815402	n/a	n/a	n/a	TrialHappPreview	Gain
404.042	4.012	0.029	1499.805	79.0	3	0.0	0.0	27.9539	955.0	2.48	Certain	-6.03	5.3	2.7295	Yes	n/a	11.326160815402	n/a	n/a	696.0	TrialHappiness	Gain
404.042	1.454	n/a	1500.615	79.0	3	0.0	0.0	27.9539	955.0	2.48	Certain	-6.03	5.3	2.7295	Yes	n/a	11.326160815402	n/a	n/a	696.0	TrialHappinessSliderResponse	Gain
408.054	2.918	4.012	1503.817	79.0	3	0.0	0.0	27.9539	955.0	2.48	Certain	-6.03	5.3	2.7295	Yes	n/a	11.326160815402	n/a	n/a	n/a	ISIRate	Gain
410.996	3.0	0.024	1506.759	80.0	3	-5.0	-5.0	27.3289	955.0	0.82	Certain	-11.01	1.5	0.0	No	4.0	12.507361268403198	1.865	412.861	n/a	GetAnswer	Mixed
412.885	4.0	0.024	1508.648	80.0	3	-5.0	-5.0	27.3289	955.0	0.82	Certain	-11.01	1.5	0.0	No	n/a	12.507361268403198	n/a	n/a	n/a	ShowChoice	Mixed
416.897	1.0	0.012	1512.66	80.0	3	-5.0	-5.0	27.3289	955.0	0.82	Certain	-11.01	1.5	0.0	No	n/a	12.507361268403198	n/a	n/a	n/a	ShowResult	Mixed
417.916	3.336	0.019	1513.679	80.0	3	-5.0	-5.0	27.3289	955.0	0.82	Certain	-11.01	1.5	0.0	No	n/a	12.507361268403198	n/a	n/a	n/a	ISITrial	Mixed
421.276	3.0	0.024	1517.039	81.0	3	-3.0	-3.0	26.9539	955.0	0.66	Certain	-9.5	3.3	3.92375	Yes	4.0	12.800679501698802	1.519	422.795	n/a	GetAnswer	Mixed
422.814	4.0	0.019	1518.577	81.0	3	-3.0	-3.0	26.9539	955.0	0.66	Certain	-9.5	3.3	3.92375	Yes	n/a	12.800679501698802	n/a	n/a	n/a	ShowChoice	Mixed
426.826	1.0	0.012	1522.589	81.0	3	-3.0	-3.0	26.9539	955.0	0.66	Certain	-9.5	3.3	3.92375	Yes	n/a	12.800679501698802	n/a	n/a	n/a	ShowResult	Mixed
427.846	3.919	0.02	1523.609	81.0	3	-3.0	-3.0	26.9539	955.0	0.66	Certain	-9.5	3.3	3.92375	Yes	n/a	12.800679501698802	n/a	n/a	n/a	ISITrial	Mixed
431.791	3.924	0.026	1527.554	81.0	3	-3.0	-3.0	26.9539	955.0	0.66	Certain	-9.5	3.3	3.92375	Yes	n/a	12.800679501698802	n/a	n/a	n/a	TrialHappPreview	Mixed
435.736	4.012	0.021	1531.499	81.0	3	-3.0	-3.0	26.9539	955.0	0.66	Certain	-9.5	3.3	3.92375	Yes	n/a	12.800679501698802	n/a	n/a	456.0	TrialHappiness	Mixed
435.737	0.261	n/a	1531.814	81.0	3	-3.0	-3.0	26.9539	955.0	0.66	Certain	-9.5	3.3	3.92375	Yes	n/a	12.800679501698802	n/a	n/a	456.0	TrialHappinessSliderResponse	Mixed
439.748	7.695	4.012	1535.511	81.0	3	-3.0	-3.0	26.9539	955.0	0.66	Certain	-9.5	3.3	3.92375	Yes	n/a	12.800679501698802	n/a	n/a	n/a	ISIRate	Mixed
447.471	3.0	0.028	1543.234	n/a	3	n/a	n/a	n/a	n/a	n/a	n/a	n/a	n/a	n/a	n/a	n/a	n/a	n/a	n/a	n/a	CurrentEarnings	n/a
450.497	-0.001	0.026	1546.26	n/a	3	n/a	n/a	n/a	n/a	n/a	n/a	n/a	n/a	n/a	n/a	{SPACE}	n/a	10.587	461.084	n/a	Goodbye	n/a
