onset	duration	onset_delay	onset_unadjusted	trial_number	block	amount_change	certain_amount	current_amount	mood_target	multiplier	outcome	outcome1_amount	outcome2_amount	question_duration	rating	response	rpe	rt	rt_time	slider_response	trial_phase	trial_type
-47.626	-0.001	0.034	28.483	n/a	0	n/a	n/a	n/a	n/a	n/a	n/a	n/a	n/a	n/a	n/a	{SPACE}	n/a	4.065	-43.561	n/a	Welcome	n/a
-43.53	5.0	0.031	32.579	n/a	0	n/a	n/a	n/a	n/a	n/a	n/a	n/a	n/a	n/a	n/a	n/a	n/a	n/a	n/a	n/a	LifeHappyPreview	n/a
-38.499	3.283	0.031	37.61	n/a	0	n/a	n/a	n/a	n/a	n/a	n/a	n/a	n/a	n/a	n/a	n/a	n/a	n/a	n/a	952.0	LifeHappiness	n/a
-38.498	2.641	n/a	38.253	n/a	0	n/a	n/a	n/a	n/a	n/a	n/a	n/a	n/a	n/a	n/a	n/a	n/a	n/a	n/a	952.0	LifeHappinessSliderResponse	n/a
-19.993	4.0	0.017	56.116	n/a	0	n/a	n/a	n/a	n/a	n/a	n/a	n/a	n/a	n/a	n/a	n/a	n/a	n/a	n/a	n/a	BlockHappyPreview	n/a
-15.982	2.005	0.011	60.127	n/a	0	n/a	n/a	n/a	n/a	n/a	n/a	n/a	n/a	n/a	n/a	n/a	n/a	n/a	n/a	848.0	BlockStartHappiness	n/a
-15.981	1.602	n/a	60.531	n/a	0	n/a	n/a	n/a	n/a	n/a	n/a	n/a	n/a	n/a	n/a	n/a	n/a	n/a	n/a	848.0	BlockStartHappinessSliderResponse	n/a
-8.793	-0.001	0.017	67.316	n/a	0	n/a	n/a	n/a	n/a	n/a	n/a	n/a	n/a	n/a	n/a	5.0	n/a	8.772	-0.021	n/a	ScanWait	n/a
0.0	10.0	0.021	76.109	n/a	1	n/a	n/a	n/a	n/a	n/a	n/a	n/a	n/a	n/a	n/a	n/a	n/a	n/a	n/a	n/a	GetReady	n/a
10.03	3.0	0.03	86.139	1.0	1	5.5	1.84	10.6875	955.0	2.8	Outcome1	5.5	3.68	0.0	No	2.0	1.8176670441676104	0.973	11.003	n/a	GetAnswer	Gain
11.033	4.0	0.029	87.142	1.0	1	5.5	1.84	10.6875	955.0	2.8	Outcome1	5.5	3.68	0.0	No	n/a	1.8176670441676104	n/a	n/a	n/a	ShowChoice	Gain
15.061	1.0	0.028	91.17	1.0	1	5.5	1.84	10.6875	955.0	2.8	Outcome1	5.5	3.68	0.0	No	n/a	1.8176670441676104	n/a	n/a	n/a	ShowResult	Gain
16.081	2.431	0.02	92.19	1.0	1	5.5	1.84	10.6875	955.0	2.8	Outcome1	5.5	3.68	0.0	No	n/a	1.8176670441676104	n/a	n/a	n/a	ISITrial	Gain
18.538	3.0	0.026	94.647	2.0	1	4.9	1.48	11.3	955.0	2.0	Outcome2	2.96	4.9	0.0	No	2.0	1.93884484711212	0.994	19.532	n/a	GetAnswer	Gain
19.558	4.0	0.026	95.667	2.0	1	4.9	1.48	11.3	955.0	2.0	Outcome2	2.96	4.9	0.0	No	n/a	1.93884484711212	n/a	n/a	n/a	ShowChoice	Gain
23.57	1.0	0.012	99.679	2.0	1	4.9	1.48	11.3	955.0	2.0	Outcome2	2.96	4.9	0.0	No	n/a	1.93884484711212	n/a	n/a	n/a	ShowResult	Gain
24.59	4.568	0.02	100.699	2.0	1	4.9	1.48	11.3	955.0	2.0	Outcome2	2.96	4.9	0.0	No	n/a	1.93884484711212	n/a	n/a	n/a	ISITrial	Gain
29.187	3.0	0.029	105.296	3.0	1	6.7	2.32	12.1375	955.0	1.82	Outcome1	6.7	4.64	2.868	Yes	2.0	2.06002265005663	1.055	30.242	n/a	GetAnswer	Gain
30.257	4.0	0.015	106.366	3.0	1	6.7	2.32	12.1375	955.0	1.82	Outcome1	6.7	4.64	2.868	Yes	n/a	2.06002265005663	n/a	n/a	n/a	ShowChoice	Gain
34.285	1.0	0.028	110.394	3.0	1	6.7	2.32	12.1375	955.0	1.82	Outcome1	6.7	4.64	2.868	Yes	n/a	2.06002265005663	n/a	n/a	n/a	ShowResult	Gain
35.305	3.243	0.02	111.414	3.0	1	6.7	2.32	12.1375	955.0	1.82	Outcome1	6.7	4.64	2.868	Yes	n/a	2.06002265005663	n/a	n/a	n/a	ISITrial	Gain
38.565	2.868	0.017	114.674	3.0	1	6.7	2.32	12.1375	955.0	1.82	Outcome1	6.7	4.64	2.868	Yes	n/a	2.06002265005663	n/a	n/a	n/a	TrialHappPreview	Gain
41.457	4.028	0.024	117.566	3.0	1	6.7	2.32	12.1375	955.0	1.82	Outcome1	6.7	4.64	2.868	Yes	n/a	2.06002265005663	n/a	n/a	872.0	TrialHappiness	Gain
41.457	3.505	n/a	117.924	3.0	1	6.7	2.32	12.1375	955.0	1.82	Outcome1	6.7	4.64	2.868	Yes	n/a	2.06002265005663	n/a	n/a	872.0	TrialHappinessSliderResponse	Gain
45.485	3.472	4.028	121.594	3.0	1	6.7	2.32	12.1375	955.0	1.82	Outcome1	6.7	4.64	2.868	Yes	n/a	2.06002265005663	n/a	n/a	n/a	ISIRate	Gain
48.979	3.0	0.022	125.088	4.0	1	8.7	3.46	13.225	955.0	1.82	Outcome2	6.93	8.7	0.0	No	2.0	1.7734994337485803	1.124	50.103	n/a	GetAnswer	Gain
50.133	4.0	0.03	126.242	4.0	1	8.7	3.46	13.225	955.0	1.82	Outcome2	6.93	8.7	0.0	No	n/a	1.7734994337485803	n/a	n/a	n/a	ShowChoice	Gain
54.161	1.0	0.028	130.27	4.0	1	8.7	3.46	13.225	955.0	1.82	Outcome2	6.93	8.7	0.0	No	n/a	1.7734994337485803	n/a	n/a	n/a	ShowResult	Gain
55.181	2.011	0.02	131.29	4.0	1	8.7	3.46	13.225	955.0	1.82	Outcome2	6.93	8.7	0.0	No	n/a	1.7734994337485803	n/a	n/a	n/a	ISITrial	Gain
57.22	3.0	0.028	133.329	5.0	1	13.5	5.82	14.9125	955.0	2.8	Outcome2	11.63	13.5	2.5825	Yes	2.0	1.86749716874292	1.153	58.373	n/a	GetAnswer	Loss
58.391	4.0	0.018	134.5	5.0	1	13.5	5.82	14.9125	955.0	2.8	Outcome2	11.63	13.5	2.5825	Yes	n/a	1.86749716874292	n/a	n/a	n/a	ShowChoice	Loss
62.419	1.0	0.028	138.528	5.0	1	13.5	5.82	14.9125	955.0	2.8	Outcome2	11.63	13.5	2.5825	Yes	n/a	1.86749716874292	n/a	n/a	n/a	ShowResult	Loss
63.439	5.129	0.02	139.548	5.0	1	13.5	5.82	14.9125	955.0	2.8	Outcome2	11.63	13.5	2.5825	Yes	n/a	1.86749716874292	n/a	n/a	n/a	ISITrial	Loss
68.588	2.582	0.02	144.697	5.0	1	13.5	5.82	14.9125	955.0	2.8	Outcome2	11.63	13.5	2.5825	Yes	n/a	1.86749716874292	n/a	n/a	n/a	TrialHappPreview	Loss
71.196	4.028	0.026	147.305	5.0	1	13.5	5.82	14.9125	955.0	2.8	Outcome2	11.63	13.5	2.5825	Yes	n/a	1.86749716874292	n/a	n/a	864.0	TrialHappiness	Loss
71.196	2.813	n/a	147.658	5.0	1	13.5	5.82	14.9125	955.0	2.8	Outcome2	11.63	13.5	2.5825	Yes	n/a	1.86749716874292	n/a	n/a	864.0	TrialHappinessSliderResponse	Loss
75.224	2.33	4.028	151.333	5.0	1	13.5	5.82	14.9125	955.0	2.8	Outcome2	11.63	13.5	2.5825	Yes	n/a	1.86749716874292	n/a	n/a	n/a	ISIRate	Loss
77.581	3.0	0.027	153.69	6.0	1	9.1	3.5	16.05	955.0	2.22	Outcome1	9.1	7.0	0.0	No	2.0	2.09739524348811	1.025	78.606	n/a	GetAnswer	Gain
78.634	4.0	0.028	154.743	6.0	1	9.1	3.5	16.05	955.0	2.22	Outcome1	9.1	7.0	0.0	No	n/a	2.09739524348811	n/a	n/a	n/a	ShowChoice	Gain
82.663	1.0	0.029	158.772	6.0	1	9.1	3.5	16.05	955.0	2.22	Outcome1	9.1	7.0	0.0	No	n/a	2.09739524348811	n/a	n/a	n/a	ShowResult	Gain
83.683	6.232	0.02	159.792	6.0	1	9.1	3.5	16.05	955.0	2.22	Outcome1	9.1	7.0	0.0	No	n/a	2.09739524348811	n/a	n/a	n/a	ISITrial	Gain
89.935	3.0	0.02	166.044	7.0	1	-0.9	-2.0	15.9375	955.0	0.52	Outcome2	-3.1	-0.9	0.0	No	2.0	2.2004530011325	1.455	91.39	n/a	GetAnswer	Mixed
91.406	4.0	0.016	167.515	7.0	1	-0.9	-2.0	15.9375	955.0	0.52	Outcome2	-3.1	-0.9	0.0	No	n/a	2.2004530011325	n/a	n/a	n/a	ShowChoice	Mixed
95.435	1.0	0.029	171.544	7.0	1	-0.9	-2.0	15.9375	955.0	0.52	Outcome2	-3.1	-0.9	0.0	No	n/a	2.2004530011325	n/a	n/a	n/a	ShowResult	Mixed
96.454	2.305	0.019	172.563	7.0	1	-0.9	-2.0	15.9375	955.0	0.52	Outcome2	-3.1	-0.9	0.0	No	n/a	2.2004530011325	n/a	n/a	n/a	ISITrial	Mixed
98.778	3.0	0.019	174.887	8.0	1	9.5	3.6	17.125	955.0	2.8	Outcome1	9.5	7.2	3.1125	Yes	2.0	2.3035107587769	1.064	99.842	n/a	GetAnswer	Gain
99.864	4.0	0.022	175.973	8.0	1	9.5	3.6	17.125	955.0	2.8	Outcome1	9.5	7.2	3.1125	Yes	n/a	2.3035107587769	n/a	n/a	n/a	ShowChoice	Gain
103.876	1.0	0.012	179.985	8.0	1	9.5	3.6	17.125	955.0	2.8	Outcome1	9.5	7.2	3.1125	Yes	n/a	2.3035107587769	n/a	n/a	n/a	ShowResult	Gain
104.896	3.506	0.02	181.005	8.0	1	9.5	3.6	17.125	955.0	2.8	Outcome1	9.5	7.2	3.1125	Yes	n/a	2.3035107587769	n/a	n/a	n/a	ISITrial	Gain
108.423	3.112	0.021	184.532	8.0	1	9.5	3.6	17.125	955.0	2.8	Outcome1	9.5	7.2	3.1125	Yes	n/a	2.3035107587769	n/a	n/a	n/a	TrialHappPreview	Gain
111.566	4.029	0.031	187.675	8.0	1	9.5	3.6	17.125	955.0	2.8	Outcome1	9.5	7.2	3.1125	Yes	n/a	2.3035107587769	n/a	n/a	840.0	TrialHappiness	Gain
111.567	1.854	n/a	187.986	8.0	1	9.5	3.6	17.125	955.0	2.8	Outcome1	9.5	7.2	3.1125	Yes	n/a	2.3035107587769	n/a	n/a	840.0	TrialHappinessSliderResponse	Gain
115.595	4.45	4.029	191.704	8.0	1	9.5	3.6	17.125	955.0	2.8	Outcome1	9.5	7.2	3.1125	Yes	n/a	2.3035107587769	n/a	n/a	n/a	ISIRate	Gain
120.075	3.0	0.03	196.184	9.0	1	10.36	5.18	18.42	955.0	2.0	Outcome1	10.36	10.9	0.0	No	2.0	-0.538410721026803	0.973	121.048	n/a	GetAnswer	Loss
121.078	4.0	0.029	197.187	9.0	1	10.36	5.18	18.42	955.0	2.0	Outcome1	10.36	10.9	0.0	No	n/a	-0.538410721026803	n/a	n/a	n/a	ShowChoice	Loss
125.09	1.0	0.012	201.199	9.0	1	10.36	5.18	18.42	955.0	2.0	Outcome1	10.36	10.9	0.0	No	n/a	-0.538410721026803	n/a	n/a	n/a	ShowResult	Loss
126.11	2.0	0.02	202.219	9.0	1	10.36	5.18	18.42	955.0	2.0	Outcome1	10.36	10.9	0.0	No	n/a	-0.538410721026803	n/a	n/a	n/a	ISITrial	Loss
128.132	3.0	0.022	204.241	10.0	1	2.3	1.0	18.7075	955.0	2.0	Outcome1	2.3	-0.64	4.0	Yes	2.0	2.9445073612684	1.517	129.649	n/a	GetAnswer	Mixed
129.67	4.0	0.021	205.779	10.0	1	2.3	1.0	18.7075	955.0	2.0	Outcome1	2.3	-0.64	4.0	Yes	n/a	2.9445073612684	n/a	n/a	n/a	ShowChoice	Mixed
133.682	1.0	0.012	209.791	10.0	1	2.3	1.0	18.7075	955.0	2.0	Outcome1	2.3	-0.64	4.0	Yes	n/a	2.9445073612684	n/a	n/a	n/a	ShowResult	Mixed
134.702	2.0	0.02	210.811	10.0	1	2.3	1.0	18.7075	955.0	2.0	Outcome1	2.3	-0.64	4.0	Yes	n/a	2.9445073612684	n/a	n/a	n/a	ISITrial	Mixed
136.725	4.0	0.023	212.834	10.0	1	2.3	1.0	18.7075	955.0	2.0	Outcome1	2.3	-0.64	4.0	Yes	n/a	2.9445073612684	n/a	n/a	n/a	TrialHappPreview	Mixed
140.753	4.012	0.028	216.862	10.0	1	2.3	1.0	18.7075	955.0	2.0	Outcome1	2.3	-0.64	4.0	Yes	n/a	2.9445073612684	n/a	n/a	844.0	TrialHappiness	Mixed
140.754	3.559	n/a	217.155	10.0	1	2.3	1.0	18.7075	955.0	2.0	Outcome1	2.3	-0.64	4.0	Yes	n/a	2.9445073612684	n/a	n/a	844.0	TrialHappinessSliderResponse	Mixed
144.765	8.0	4.012	220.874	10.0	1	2.3	1.0	18.7075	955.0	2.0	Outcome1	2.3	-0.64	4.0	Yes	n/a	2.9445073612684	n/a	n/a	n/a	ISIRate	Mixed
152.789	3.0	0.024	228.898	11.0	1	-0.1	-1.0	18.695	955.0	1.2	Outcome1	-0.1	-3.11	0.0	No	2.0	3.00679501698754	1.537	154.326	n/a	GetAnswer	Mixed
154.344	4.0	0.018	230.453	11.0	1	-0.1	-1.0	18.695	955.0	1.2	Outcome1	-0.1	-3.11	0.0	No	n/a	3.00679501698754	n/a	n/a	n/a	ShowChoice	Mixed
158.356	1.0	0.012	234.465	11.0	1	-0.1	-1.0	18.695	955.0	1.2	Outcome1	-0.1	-3.11	0.0	No	n/a	3.00679501698754	n/a	n/a	n/a	ShowResult	Mixed
159.376	3.324	0.02	235.485	11.0	1	-0.1	-1.0	18.695	955.0	1.2	Outcome1	-0.1	-3.11	0.0	No	n/a	3.00679501698754	n/a	n/a	n/a	ISITrial	Mixed
162.719	3.0	0.019	238.828	12.0	1	-2.0	-2.0	18.445	955.0	0.4	Certain	-1.1	-4.23	2.61875	Yes	4.0	3.13250283125708	1.592	164.311	n/a	GetAnswer	Mixed
164.324	4.0	0.013	240.433	12.0	1	-2.0	-2.0	18.445	955.0	0.4	Certain	-1.1	-4.23	2.61875	Yes	n/a	3.13250283125708	n/a	n/a	n/a	ShowChoice	Mixed
168.336	1.0	0.012	244.445	12.0	1	-2.0	-2.0	18.445	955.0	0.4	Certain	-1.1	-4.23	2.61875	Yes	n/a	3.13250283125708	n/a	n/a	n/a	ShowResult	Mixed
169.355	6.642	0.019	245.464	12.0	1	-2.0	-2.0	18.445	955.0	0.4	Certain	-1.1	-4.23	2.61875	Yes	n/a	3.13250283125708	n/a	n/a	n/a	ISITrial	Mixed
176.009	2.619	0.012	252.118	12.0	1	-2.0	-2.0	18.445	955.0	0.4	Certain	-1.1	-4.23	2.61875	Yes	n/a	3.13250283125708	n/a	n/a	n/a	TrialHappPreview	Mixed
178.65	4.012	0.022	254.759	12.0	1	-2.0	-2.0	18.445	955.0	0.4	Certain	-1.1	-4.23	2.61875	Yes	n/a	3.13250283125708	n/a	n/a	836.0	TrialHappiness	Mixed
178.65	3.173	n/a	255.136	12.0	1	-2.0	-2.0	18.445	955.0	0.4	Certain	-1.1	-4.23	2.61875	Yes	n/a	3.13250283125708	n/a	n/a	836.0	TrialHappinessSliderResponse	Mixed
182.662	2.475	4.012	258.771	12.0	1	-2.0	-2.0	18.445	955.0	0.4	Certain	-1.1	-4.23	2.61875	Yes	n/a	3.13250283125708	n/a	n/a	n/a	ISIRate	Mixed
185.153	3.0	0.016	261.262	13.0	1	3.5	2.0	18.8825	955.0	0.82	Outcome2	0.11	3.5	0.0	No	2.0	3.39411098527746	1.388	186.541	n/a	GetAnswer	Mixed
186.557	4.0	0.016	262.666	13.0	1	3.5	2.0	18.8825	955.0	0.82	Outcome2	0.11	3.5	0.0	No	n/a	3.39411098527746	n/a	n/a	n/a	ShowChoice	Mixed
190.569	1.0	0.012	266.678	13.0	1	3.5	2.0	18.8825	955.0	0.82	Outcome2	0.11	3.5	0.0	No	n/a	3.39411098527746	n/a	n/a	n/a	ShowResult	Mixed
191.588	3.48	0.019	267.697	13.0	1	3.5	2.0	18.8825	955.0	0.82	Outcome2	0.11	3.5	0.0	No	n/a	3.39411098527746	n/a	n/a	n/a	ISITrial	Mixed
195.099	3.0	0.031	271.208	14.0	1	12.7	4.58	20.47	955.0	1.82	Outcome2	9.17	12.7	0.0	No	2.0	3.52887882219706	0.934	196.033	n/a	GetAnswer	Loss
196.052	4.0	0.019	272.161	14.0	1	12.7	4.58	20.47	955.0	1.82	Outcome2	9.17	12.7	0.0	No	n/a	3.52887882219706	n/a	n/a	n/a	ShowChoice	Loss
200.064	1.0	0.012	276.173	14.0	1	12.7	4.58	20.47	955.0	1.82	Outcome2	9.17	12.7	0.0	No	n/a	3.52887882219706	n/a	n/a	n/a	ShowResult	Loss
201.083	5.019	0.019	277.192	14.0	1	12.7	4.58	20.47	955.0	1.82	Outcome2	9.17	12.7	0.0	No	n/a	3.52887882219706	n/a	n/a	n/a	ISITrial	Loss
206.132	3.0	0.03	282.241	15.0	1	13.7	5.02	22.1825	955.0	3.16	Outcome1	13.7	10.04	3.3485	Yes	2.0	3.6636466591166497	0.994	207.126	n/a	GetAnswer	Loss
207.152	4.0	0.026	283.261	15.0	1	13.7	5.02	22.1825	955.0	3.16	Outcome1	13.7	10.04	3.3485	Yes	n/a	3.6636466591166497	n/a	n/a	n/a	ShowChoice	Loss
211.164	1.0	0.012	287.273	15.0	1	13.7	5.02	22.1825	955.0	3.16	Outcome1	13.7	10.04	3.3485	Yes	n/a	3.6636466591166497	n/a	n/a	n/a	ShowResult	Loss
212.183	7.614	0.019	288.292	15.0	1	13.7	5.02	22.1825	955.0	3.16	Outcome1	13.7	10.04	3.3485	Yes	n/a	3.6636466591166497	n/a	n/a	n/a	ISITrial	Loss
219.823	3.348	0.026	295.932	15.0	1	13.7	5.02	22.1825	955.0	3.16	Outcome1	13.7	10.04	3.3485	Yes	n/a	3.6636466591166497	n/a	n/a	n/a	TrialHappPreview	Loss
223.199	4.012	0.028	299.308	15.0	1	13.7	5.02	22.1825	955.0	3.16	Outcome1	13.7	10.04	3.3485	Yes	n/a	3.6636466591166497	n/a	n/a	800.0	TrialHappiness	Loss
223.2	2.099	n/a	299.674	15.0	1	13.7	5.02	22.1825	955.0	3.16	Outcome1	13.7	10.04	3.3485	Yes	n/a	3.6636466591166497	n/a	n/a	800.0	TrialHappinessSliderResponse	Loss
227.211	5.394	4.012	303.32	15.0	1	13.7	5.02	22.1825	955.0	3.16	Outcome1	13.7	10.04	3.3485	Yes	n/a	3.6636466591166497	n/a	n/a	n/a	ISIRate	Loss
232.628	3.0	0.023	308.737	16.0	1	6.1	0.84	22.945	955.0	4.2	Outcome1	6.1	1.69	0.0	No	2.0	4.40996602491506	1.23	233.858	n/a	GetAnswer	Gain
233.881	4.0	0.022	309.99	16.0	1	6.1	0.84	22.945	955.0	4.2	Outcome1	6.1	1.69	0.0	No	n/a	4.40996602491506	n/a	n/a	n/a	ShowChoice	Gain
237.893	1.0	0.012	314.002	16.0	1	6.1	0.84	22.945	955.0	4.2	Outcome1	6.1	1.69	0.0	No	n/a	4.40996602491506	n/a	n/a	n/a	ShowResult	Gain
238.913	3.008	0.02	315.022	16.0	1	6.1	0.84	22.945	955.0	4.2	Outcome1	6.1	1.69	0.0	No	n/a	4.40996602491506	n/a	n/a	n/a	ISITrial	Gain
241.939	3.0	0.018	318.048	17.0	1	12.9	4.16	24.5575	955.0	2.0	Outcome1	12.9	8.31	3.0415	Yes	2.0	4.58550396375991	1.019	242.958	n/a	GetAnswer	Loss
242.975	4.0	0.017	319.084	17.0	1	12.9	4.16	24.5575	955.0	2.0	Outcome1	12.9	8.31	3.0415	Yes	n/a	4.58550396375991	n/a	n/a	n/a	ShowChoice	Loss
246.987	1.0	0.012	323.096	17.0	1	12.9	4.16	24.5575	955.0	2.0	Outcome1	12.9	8.31	3.0415	Yes	n/a	4.58550396375991	n/a	n/a	n/a	ShowResult	Loss
248.007	3.566	0.02	324.116	17.0	1	12.9	4.16	24.5575	955.0	2.0	Outcome1	12.9	8.31	3.0415	Yes	n/a	4.58550396375991	n/a	n/a	n/a	ISITrial	Loss
251.584	3.042	0.011	327.693	17.0	1	12.9	4.16	24.5575	955.0	2.0	Outcome1	12.9	8.31	3.0415	Yes	n/a	4.58550396375991	n/a	n/a	n/a	TrialHappPreview	Loss
254.643	4.012	0.017	330.752	17.0	1	12.9	4.16	24.5575	955.0	2.0	Outcome1	12.9	8.31	3.0415	Yes	n/a	4.58550396375991	n/a	n/a	824.0	TrialHappiness	Loss
254.644	1.437	n/a	331.196	17.0	1	12.9	4.16	24.5575	955.0	2.0	Outcome1	12.9	8.31	3.0415	Yes	n/a	4.58550396375991	n/a	n/a	824.0	TrialHappinessSliderResponse	Loss
258.655	4.166	4.012	334.764	17.0	1	12.9	4.16	24.5575	955.0	2.0	Outcome1	12.9	8.31	3.0415	Yes	n/a	4.58550396375991	n/a	n/a	n/a	ISIRate	Loss
262.851	3.0	0.03	338.96	18.0	1	0.39	0.0	24.6063	955.0	0.52	Outcome2	1.1	0.39	0.0	No	2.0	-0.7089467723669308	0.991	263.842	n/a	GetAnswer	Mixed
263.854	4.0	0.012	339.963	18.0	1	0.39	0.0	24.6063	955.0	0.52	Outcome2	1.1	0.39	0.0	No	n/a	-0.7089467723669308	n/a	n/a	n/a	ShowChoice	Mixed
267.866	1.0	0.012	343.975	18.0	1	0.39	0.0	24.6063	955.0	0.52	Outcome2	1.1	0.39	0.0	No	n/a	-0.7089467723669308	n/a	n/a	n/a	ShowResult	Mixed
268.886	6.787	0.02	344.995	18.0	1	0.39	0.0	24.6063	955.0	0.52	Outcome2	1.1	0.39	0.0	No	n/a	-0.7089467723669308	n/a	n/a	n/a	ISITrial	Mixed
275.69	3.0	0.017	351.799	19.0	1	8.9	2.2	25.7188	955.0	2.0	Outcome1	8.9	4.4	0.0	No	2.0	4.501698754246879	0.879	276.569	n/a	GetAnswer	Gain
276.592	4.0	0.023	352.701	19.0	1	8.9	2.2	25.7188	955.0	2.0	Outcome1	8.9	4.4	0.0	No	n/a	4.501698754246879	n/a	n/a	n/a	ShowChoice	Gain
280.604	1.0	0.012	356.713	19.0	1	8.9	2.2	25.7188	955.0	2.0	Outcome1	8.9	4.4	0.0	No	n/a	4.501698754246879	n/a	n/a	n/a	ShowResult	Gain
281.624	2.0	0.02	357.733	19.0	1	8.9	2.2	25.7188	955.0	2.0	Outcome1	8.9	4.4	0.0	No	n/a	4.501698754246879	n/a	n/a	n/a	ISITrial	Gain
283.647	3.0	0.023	359.756	20.0	1	7.37	3.68	26.64	955.0	4.2	Outcome2	8.1	7.37	2.92125	Yes	2.0	-0.7336730841827099	0.993	284.64	n/a	GetAnswer	Gain
284.666	4.0	0.026	360.775	20.0	1	7.37	3.68	26.64	955.0	4.2	Outcome2	8.1	7.37	2.92125	Yes	n/a	-0.7336730841827099	n/a	n/a	n/a	ShowChoice	Gain
288.678	1.0	0.012	364.787	20.0	1	7.37	3.68	26.64	955.0	4.2	Outcome2	8.1	7.37	2.92125	Yes	n/a	-0.7336730841827099	n/a	n/a	n/a	ShowResult	Gain
289.698	8.0	0.02	365.807	20.0	1	7.37	3.68	26.64	955.0	4.2	Outcome2	8.1	7.37	2.92125	Yes	n/a	-0.7336730841827099	n/a	n/a	n/a	ISITrial	Gain
297.722	2.921	0.024	373.831	20.0	1	7.37	3.68	26.64	955.0	4.2	Outcome2	8.1	7.37	2.92125	Yes	n/a	-0.7336730841827099	n/a	n/a	n/a	TrialHappPreview	Gain
300.664	4.012	0.021	376.773	20.0	1	7.37	3.68	26.64	955.0	4.2	Outcome2	8.1	7.37	2.92125	Yes	n/a	-0.7336730841827099	n/a	n/a	784.0	TrialHappiness	Gain
300.665	1.682	n/a	377.137	20.0	1	7.37	3.68	26.64	955.0	4.2	Outcome2	8.1	7.37	2.92125	Yes	n/a	-0.7336730841827099	n/a	n/a	784.0	TrialHappinessSliderResponse	Gain
304.676	3.685	4.012	380.785	20.0	1	7.37	3.68	26.64	955.0	4.2	Outcome2	8.1	7.37	2.92125	Yes	n/a	-0.7336730841827099	n/a	n/a	n/a	ISIRate	Gain
308.387	3.0	0.026	384.496	21.0	1	0.3	-2.0	26.6775	955.0	2.0	Outcome2	-5.18	0.3	0.0	No	2.0	5.47791619479049	1.481	309.868	n/a	GetAnswer	Mixed
309.892	4.0	0.024	386.001	21.0	1	0.3	-2.0	26.6775	955.0	2.0	Outcome2	-5.18	0.3	0.0	No	n/a	5.47791619479049	n/a	n/a	n/a	ShowChoice	Mixed
313.904	1.0	0.012	390.013	21.0	1	0.3	-2.0	26.6775	955.0	2.0	Outcome2	-5.18	0.3	0.0	No	n/a	5.47791619479049	n/a	n/a	n/a	ShowResult	Mixed
314.923	3.555	0.019	391.032	21.0	1	0.3	-2.0	26.6775	955.0	2.0	Outcome2	-5.18	0.3	0.0	No	n/a	5.47791619479049	n/a	n/a	n/a	ISITrial	Mixed
318.501	3.0	0.023	394.61	22.0	1	4.3	1.0	27.215	955.0	2.0	Outcome2	-1.37	4.3	3.2195	Yes	2.0	5.67157417893545	1.421	319.922	n/a	GetAnswer	Mixed
319.938	4.0	0.016	396.047	22.0	1	4.3	1.0	27.215	955.0	2.0	Outcome2	-1.37	4.3	3.2195	Yes	n/a	5.67157417893545	n/a	n/a	n/a	ShowChoice	Mixed
323.95	1.0	0.012	400.059	22.0	1	4.3	1.0	27.215	955.0	2.0	Outcome2	-1.37	4.3	3.2195	Yes	n/a	5.67157417893545	n/a	n/a	n/a	ShowResult	Mixed
324.97	6.793	0.02	401.079	22.0	1	4.3	1.0	27.215	955.0	2.0	Outcome2	-1.37	4.3	3.2195	Yes	n/a	5.67157417893545	n/a	n/a	n/a	ISITrial	Mixed
331.774	3.22	0.011	407.883	22.0	1	4.3	1.0	27.215	955.0	2.0	Outcome2	-1.37	4.3	3.2195	Yes	n/a	5.67157417893545	n/a	n/a	n/a	TrialHappPreview	Mixed
335.017	4.012	0.023	411.126	22.0	1	4.3	1.0	27.215	955.0	2.0	Outcome2	-1.37	4.3	3.2195	Yes	24{-2}{-4}2{-2}4{-4}4{-4}	5.67157417893545	2.96	337.977	788.0	TrialHappiness	Mixed
335.017	2.603	n/a	411.483	22.0	1	4.3	1.0	27.215	955.0	2.0	Outcome2	-1.37	4.3	3.2195	Yes	n/a	5.67157417893545	n/a	n/a	788.0	TrialHappinessSliderResponse	Mixed
339.029	4.878	4.012	415.138	22.0	1	4.3	1.0	27.215	955.0	2.0	Outcome2	-1.37	4.3	3.2195	Yes	n/a	5.67157417893545	n/a	n/a	n/a	ISIRate	Mixed
343.927	3.0	0.02	420.036	23.0	1	0.9	-2.0	27.3275	955.0	0.4	Outcome2	-4.9	0.9	0.0	No	2.0	5.79728199320498	1.214	345.141	n/a	GetAnswer	Mixed
345.164	4.0	0.023	421.273	23.0	1	0.9	-2.0	27.3275	955.0	0.4	Outcome2	-4.9	0.9	0.0	No	n/a	5.79728199320498	n/a	n/a	n/a	ShowChoice	Mixed
349.176	1.0	0.012	425.285	23.0	1	0.9	-2.0	27.3275	955.0	0.4	Outcome2	-4.9	0.9	0.0	No	n/a	5.79728199320498	n/a	n/a	n/a	ShowResult	Mixed
350.195	8.0	0.019	426.304	23.0	1	0.9	-2.0	27.3275	955.0	0.4	Outcome2	-4.9	0.9	0.0	No	n/a	5.79728199320498	n/a	n/a	n/a	ISITrial	Mixed
358.219	3.0	0.024	434.328	24.0	1	6.96	3.48	28.1975	955.0	3.6	Outcome2	7.9	6.96	3.255	Yes	2.0	-0.940166100415251	1.088	359.307	n/a	GetAnswer	Gain
359.323	4.0	0.016	435.432	24.0	1	6.96	3.48	28.1975	955.0	3.6	Outcome2	7.9	6.96	3.255	Yes	n/a	-0.940166100415251	n/a	n/a	n/a	ShowChoice	Gain
363.335	1.0	0.012	439.444	24.0	1	6.96	3.48	28.1975	955.0	3.6	Outcome2	7.9	6.96	3.255	Yes	n/a	-0.940166100415251	n/a	n/a	n/a	ShowResult	Gain
364.354	2.0	0.019	440.463	24.0	1	6.96	3.48	28.1975	955.0	3.6	Outcome2	7.9	6.96	3.255	Yes	n/a	-0.940166100415251	n/a	n/a	n/a	ISITrial	Gain
366.377	3.255	0.023	442.486	24.0	1	6.96	3.48	28.1975	955.0	3.6	Outcome2	7.9	6.96	3.255	Yes	n/a	-0.940166100415251	n/a	n/a	n/a	TrialHappPreview	Gain
369.654	4.012	0.022	445.763	24.0	1	6.96	3.48	28.1975	955.0	3.6	Outcome2	7.9	6.96	3.255	Yes	2{-2}2{-2}	-0.940166100415251	1.611	371.265	760.0	TrialHappiness	Gain
369.654	1.263	n/a	446.111	24.0	1	6.96	3.48	28.1975	955.0	3.6	Outcome2	7.9	6.96	3.255	Yes	n/a	-0.940166100415251	n/a	n/a	760.0	TrialHappinessSliderResponse	Gain
373.666	5.02	4.012	449.775	24.0	1	6.96	3.48	28.1975	955.0	3.6	Outcome2	7.9	6.96	3.255	Yes	n/a	-0.940166100415251	n/a	n/a	n/a	ISIRate	Gain
378.714	3.0	0.028	454.823	25.0	1	-1.0	-1.0	28.0725	955.0	0.2	Certain	-4.15	2.5	0.0	No	4.0	6.65118912797282	1.513	380.227	n/a	GetAnswer	Mixed
380.252	4.0	0.025	456.361	25.0	1	-1.0	-1.0	28.0725	955.0	0.2	Certain	-4.15	2.5	0.0	No	n/a	6.65118912797282	n/a	n/a	n/a	ShowChoice	Mixed
384.264	1.0	0.012	460.373	25.0	1	-1.0	-1.0	28.0725	955.0	0.2	Certain	-4.15	2.5	0.0	No	n/a	6.65118912797282	n/a	n/a	n/a	ShowResult	Mixed
385.284	3.749	0.02	461.393	25.0	1	-1.0	-1.0	28.0725	955.0	0.2	Certain	-4.15	2.5	0.0	No	n/a	6.65118912797282	n/a	n/a	n/a	ISITrial	Mixed
389.061	3.0	0.028	465.17	26.0	1	12.5	2.82	29.635	955.0	1.68	Outcome2	5.63	12.5	0.0	No	2.0	6.872027180067951	1.115	390.176	n/a	GetAnswer	Loss
390.198	4.0	0.022	466.307	26.0	1	12.5	2.82	29.635	955.0	1.68	Outcome2	5.63	12.5	0.0	No	n/a	6.872027180067951	n/a	n/a	n/a	ShowChoice	Loss
394.21	1.0	0.012	470.319	26.0	1	12.5	2.82	29.635	955.0	1.68	Outcome2	5.63	12.5	0.0	No	n/a	6.872027180067951	n/a	n/a	n/a	ShowResult	Loss
395.23	7.834	0.02	471.339	26.0	1	12.5	2.82	29.635	955.0	1.68	Outcome2	5.63	12.5	0.0	No	n/a	6.872027180067951	n/a	n/a	n/a	ISITrial	Loss
403.087	3.0	0.023	479.196	27.0	1	12.1	2.5	31.1475	955.0	4.2	Outcome1	12.1	5.01	2.54975	Yes	2.0	7.09286523216308	0.953	404.04	n/a	GetAnswer	Loss
404.056	4.0	0.016	480.165	27.0	1	12.1	2.5	31.1475	955.0	4.2	Outcome1	12.1	5.01	2.54975	Yes	n/a	7.09286523216308	n/a	n/a	n/a	ShowChoice	Loss
408.068	1.0	0.012	484.177	27.0	1	12.1	2.5	31.1475	955.0	4.2	Outcome1	12.1	5.01	2.54975	Yes	n/a	7.09286523216308	n/a	n/a	n/a	ShowResult	Loss
409.088	4.225	0.02	485.197	27.0	1	12.1	2.5	31.1475	955.0	4.2	Outcome1	12.1	5.01	2.54975	Yes	n/a	7.09286523216308	n/a	n/a	n/a	ISITrial	Loss
413.334	2.55	0.021	489.443	27.0	1	12.1	2.5	31.1475	955.0	4.2	Outcome1	12.1	5.01	2.54975	Yes	n/a	7.09286523216308	n/a	n/a	n/a	TrialHappPreview	Loss
415.908	4.012	0.024	492.017	27.0	1	12.1	2.5	31.1475	955.0	4.2	Outcome1	12.1	5.01	2.54975	Yes	n/a	7.09286523216308	n/a	n/a	776.0	TrialHappiness	Loss
415.909	2.156	n/a	492.494	27.0	1	12.1	2.5	31.1475	955.0	4.2	Outcome1	12.1	5.01	2.54975	Yes	n/a	7.09286523216308	n/a	n/a	776.0	TrialHappinessSliderResponse	Loss
419.92	2.199	4.012	496.029	27.0	1	12.1	2.5	31.1475	955.0	4.2	Outcome1	12.1	5.01	2.54975	Yes	n/a	7.09286523216308	n/a	n/a	n/a	ISIRate	Loss
474.768	1.667	n/a	551.225	n/a	1	n/a	n/a	n/a	n/a	n/a	n/a	n/a	n/a	n/a	n/a	n/a	n/a	n/a	n/a	752.0	BlockStartHappinessSliderResponse	n/a
-68.621	-0.001	0.025	498.253	n/a	2	n/a	n/a	n/a	n/a	n/a	n/a	n/a	n/a	n/a	n/a	{SPACE}	n/a	48.585	-20.036	n/a	Rest	n/a
-20.01	4.0	0.026	546.864	n/a	2	n/a	n/a	n/a	n/a	n/a	n/a	n/a	n/a	n/a	n/a	n/a	n/a	n/a	n/a	n/a	BlockHappyPreview	n/a
-15.998	2.015	0.012	550.876	n/a	2	n/a	n/a	n/a	n/a	n/a	n/a	n/a	n/a	n/a	n/a	n/a	n/a	n/a	n/a	752.0	BlockStartHappiness	n/a
-5.148	-0.001	0.024	561.726	n/a	2	n/a	n/a	n/a	n/a	n/a	n/a	n/a	n/a	n/a	n/a	5.0	n/a	5.136	-0.012	n/a	ScanWait	n/a
0.0	10.0	0.012	566.874	n/a	2	n/a	n/a	n/a	n/a	n/a	n/a	n/a	n/a	n/a	n/a	n/a	n/a	n/a	n/a	n/a	GetReady	n/a
10.013	3.0	0.013	576.887	28.0	2	-1.1	-0.55	31.01	70.0	1.68	Outcome1	-1.1	10.5	0.0	No	2.0	-11.5986394557823	0.851	10.864	n/a	GetAnswer	Loss
10.883	4.0	0.019	577.757	28.0	2	-1.1	-0.55	31.01	70.0	1.68	Outcome1	-1.1	10.5	0.0	No	n/a	-11.5986394557823	n/a	n/a	n/a	ShowChoice	Loss
14.895	1.0	0.012	581.769	28.0	2	-1.1	-0.55	31.01	70.0	1.68	Outcome1	-1.1	10.5	0.0	No	n/a	-11.5986394557823	n/a	n/a	n/a	ShowResult	Loss
15.914	3.575	0.019	582.788	28.0	2	-1.1	-0.55	31.01	70.0	1.68	Outcome1	-1.1	10.5	0.0	No	n/a	-11.5986394557823	n/a	n/a	n/a	ISITrial	Loss
19.508	3.0	0.019	586.382	29.0	2	-0.07	-0.04	31.0012	70.0	5.0	Outcome2	12.3	-0.07	3.529	Yes	2.0	-12.3718820861678	1.249	20.757	n/a	GetAnswer	Loss
20.779	4.0	0.022	587.653	29.0	2	-0.07	-0.04	31.0012	70.0	5.0	Outcome2	12.3	-0.07	3.529	Yes	n/a	-12.3718820861678	n/a	n/a	n/a	ShowChoice	Loss
24.791	1.0	0.012	591.665	29.0	2	-0.07	-0.04	31.0012	70.0	5.0	Outcome2	12.3	-0.07	3.529	Yes	n/a	-12.3718820861678	n/a	n/a	n/a	ShowResult	Loss
25.811	3.955	0.02	592.685	29.0	2	-0.07	-0.04	31.0012	70.0	5.0	Outcome2	12.3	-0.07	3.529	Yes	n/a	-12.3718820861678	n/a	n/a	n/a	ISITrial	Loss
29.789	3.529	0.023	596.663	29.0	2	-0.07	-0.04	31.0012	70.0	5.0	Outcome2	12.3	-0.07	3.529	Yes	n/a	-12.3718820861678	n/a	n/a	n/a	TrialHappPreview	Loss
33.333	4.029	0.015	600.207	29.0	2	-0.07	-0.04	31.0012	70.0	5.0	Outcome2	12.3	-0.07	3.529	Yes	n/a	-12.3718820861678	n/a	n/a	704.0	TrialHappiness	Loss
33.334	1.849	n/a	600.589	29.0	2	-0.07	-0.04	31.0012	70.0	5.0	Outcome2	12.3	-0.07	3.529	Yes	n/a	-12.3718820861678	n/a	n/a	704.0	TrialHappinessSliderResponse	Loss
37.362	6.116	4.029	604.236	29.0	2	-0.07	-0.04	31.0012	70.0	5.0	Outcome2	12.3	-0.07	3.529	Yes	n/a	-12.3718820861678	n/a	n/a	n/a	ISIRate	Loss
43.497	3.0	0.019	610.371	30.0	2	-9.43	-3.0	29.8224	70.0	0.4	Outcome2	2.9	-9.43	0.0	No	2.0	-12.328798185941	1.89	45.387	n/a	GetAnswer	Mixed
45.402	4.0	0.015	612.276	30.0	2	-9.43	-3.0	29.8224	70.0	0.4	Outcome2	2.9	-9.43	0.0	No	n/a	-12.328798185941	n/a	n/a	n/a	ShowChoice	Mixed
49.431	1.0	0.029	616.305	30.0	2	-9.43	-3.0	29.8224	70.0	0.4	Outcome2	2.9	-9.43	0.0	No	n/a	-12.328798185941	n/a	n/a	n/a	ShowResult	Mixed
50.451	4.453	0.02	617.325	30.0	2	-9.43	-3.0	29.8224	70.0	0.4	Outcome2	2.9	-9.43	0.0	No	n/a	-12.328798185941	n/a	n/a	n/a	ISITrial	Mixed
54.931	3.0	0.027	621.805	31.0	2	1.0	1.0	29.9474	70.0	2.8	Certain	7.5	-5.55	2.50325	Yes	4.0	-13.047619047619	1.445	56.376	n/a	GetAnswer	Gain
56.402	4.0	0.026	623.276	31.0	2	1.0	1.0	29.9474	70.0	2.8	Certain	7.5	-5.55	2.50325	Yes	n/a	-13.047619047619	n/a	n/a	n/a	ShowChoice	Gain
60.431	1.0	0.029	627.305	31.0	2	1.0	1.0	29.9474	70.0	2.8	Certain	7.5	-5.55	2.50325	Yes	n/a	-13.047619047619	n/a	n/a	n/a	ShowResult	Gain
61.45	4.786	0.019	628.324	31.0	2	1.0	1.0	29.9474	70.0	2.8	Certain	7.5	-5.55	2.50325	Yes	n/a	-13.047619047619	n/a	n/a	n/a	ISITrial	Gain
66.265	2.503	0.029	633.139	31.0	2	1.0	1.0	29.9474	70.0	2.8	Certain	7.5	-5.55	2.50325	Yes	n/a	-13.047619047619	n/a	n/a	n/a	TrialHappPreview	Gain
68.789	4.029	0.021	635.663	31.0	2	1.0	1.0	29.9474	70.0	2.8	Certain	7.5	-5.55	2.50325	Yes	n/a	-13.047619047619	n/a	n/a	712.0	TrialHappiness	Gain
68.79	2.705	n/a	635.975	31.0	2	1.0	1.0	29.9474	70.0	2.8	Certain	7.5	-5.55	2.50325	Yes	n/a	-13.047619047619	n/a	n/a	712.0	TrialHappinessSliderResponse	Gain
72.818	2.013	4.029	639.692	31.0	2	1.0	1.0	29.9474	70.0	2.8	Certain	7.5	-5.55	2.50325	Yes	n/a	-13.047619047619	n/a	n/a	n/a	ISIRate	Gain
74.857	3.0	0.026	641.731	32.0	2	2.0	2.0	30.1974	70.0	2.48	Certain	-4.6	9.3	0.0	No	4.0	-13.9024943310658	1.983	76.84	n/a	GetAnswer	Gain
76.863	4.0	0.023	643.737	32.0	2	2.0	2.0	30.1974	70.0	2.48	Certain	-4.6	9.3	0.0	No	n/a	-13.9024943310658	n/a	n/a	n/a	ShowChoice	Gain
80.875	1.0	0.012	647.749	32.0	2	2.0	2.0	30.1974	70.0	2.48	Certain	-4.6	9.3	0.0	No	n/a	-13.9024943310658	n/a	n/a	n/a	ShowResult	Gain
81.895	2.0	0.02	648.769	32.0	2	2.0	2.0	30.1974	70.0	2.48	Certain	-4.6	9.3	0.0	No	n/a	-13.9024943310658	n/a	n/a	n/a	ISITrial	Gain
83.918	3.0	0.023	650.792	33.0	2	-7.33	0.0	29.2812	70.0	2.48	Outcome2	7.3	-7.33	0.0	No	2.0	-14.6303854875283	1.506	85.424	n/a	GetAnswer	Gain
85.439	4.0	0.015	652.313	33.0	2	-7.33	0.0	29.2812	70.0	2.48	Outcome2	7.3	-7.33	0.0	No	n/a	-14.6303854875283	n/a	n/a	n/a	ShowChoice	Gain
89.467	1.0	0.028	656.341	33.0	2	-7.33	0.0	29.2812	70.0	2.48	Outcome2	7.3	-7.33	0.0	No	n/a	-14.6303854875283	n/a	n/a	n/a	ShowResult	Gain
90.487	5.099	0.02	657.361	33.0	2	-7.33	0.0	29.2812	70.0	2.48	Outcome2	7.3	-7.33	0.0	No	n/a	-14.6303854875283	n/a	n/a	n/a	ISITrial	Gain
95.619	3.0	0.033	662.493	34.0	2	0.0	0.0	29.2812	70.0	1.2	Certain	-2.0	0.98	3.2315	Yes	4.0	2.97826908541194	1.888	97.507	n/a	GetAnswer	Mixed
97.525	4.0	0.018	664.399	34.0	2	0.0	0.0	29.2812	70.0	1.2	Certain	-2.0	0.98	3.2315	Yes	n/a	2.97826908541194	n/a	n/a	n/a	ShowChoice	Mixed
101.537	1.0	0.012	668.411	34.0	2	0.0	0.0	29.2812	70.0	1.2	Certain	-2.0	0.98	3.2315	Yes	n/a	2.97826908541194	n/a	n/a	n/a	ShowResult	Mixed
102.557	4.784	0.02	669.431	34.0	2	0.0	0.0	29.2812	70.0	1.2	Certain	-2.0	0.98	3.2315	Yes	n/a	2.97826908541194	n/a	n/a	n/a	ISITrial	Mixed
107.354	3.232	0.013	674.228	34.0	2	0.0	0.0	29.2812	70.0	1.2	Certain	-2.0	0.98	3.2315	Yes	n/a	2.97826908541194	n/a	n/a	n/a	TrialHappPreview	Mixed
110.614	4.029	0.028	677.488	34.0	2	0.0	0.0	29.2812	70.0	1.2	Certain	-2.0	0.98	3.2315	Yes	n/a	2.97826908541194	n/a	n/a	724.0	TrialHappiness	Mixed
110.615	2.809	n/a	678.08	34.0	2	0.0	0.0	29.2812	70.0	1.2	Certain	-2.0	0.98	3.2315	Yes	n/a	2.97826908541194	n/a	n/a	724.0	TrialHappinessSliderResponse	Mixed
114.643	4.926	4.029	681.517	34.0	2	0.0	0.0	29.2812	70.0	1.2	Certain	-2.0	0.98	3.2315	Yes	n/a	2.97826908541194	n/a	n/a	n/a	ISIRate	Mixed
119.591	3.0	0.022	686.465	35.0	2	1.92	0.0	29.5212	70.0	3.16	Outcome2	-1.17	1.92	0.0	No	2.0	3.08767951625094	1.537	121.128	n/a	GetAnswer	Gain
121.145	4.0	0.017	688.019	35.0	2	1.92	0.0	29.5212	70.0	3.16	Outcome2	-1.17	1.92	0.0	No	n/a	3.08767951625094	n/a	n/a	n/a	ShowChoice	Gain
125.157	1.0	0.012	692.031	35.0	2	1.92	0.0	29.5212	70.0	3.16	Outcome2	-1.17	1.92	0.0	No	n/a	3.08767951625094	n/a	n/a	n/a	ShowResult	Gain
126.177	2.098	0.02	693.051	35.0	2	1.92	0.0	29.5212	70.0	3.16	Outcome2	-1.17	1.92	0.0	No	n/a	3.08767951625094	n/a	n/a	n/a	ISITrial	Gain
128.3	3.0	0.025	695.174	36.0	2	-12.93	-4.0	27.9049	70.0	1.5	Outcome1	-12.93	4.1	3.33575	Yes	2.0	-17.031746031746	1.719	130.019	n/a	GetAnswer	Mixed
130.039	4.0	0.02	696.913	36.0	2	-12.93	-4.0	27.9049	70.0	1.5	Outcome1	-12.93	4.1	3.33575	Yes	n/a	-17.031746031746	n/a	n/a	n/a	ShowChoice	Mixed
134.051	1.0	0.012	700.925	36.0	2	-12.93	-4.0	27.9049	70.0	1.5	Outcome1	-12.93	4.1	3.33575	Yes	n/a	-17.031746031746	n/a	n/a	n/a	ShowResult	Mixed
135.07	5.156	0.019	701.944	36.0	2	-12.93	-4.0	27.9049	70.0	1.5	Outcome1	-12.93	4.1	3.33575	Yes	n/a	-17.031746031746	n/a	n/a	n/a	ISITrial	Mixed
140.252	3.336	0.026	707.126	36.0	2	-12.93	-4.0	27.9049	70.0	1.5	Outcome1	-12.93	4.1	3.33575	Yes	n/a	-17.031746031746	n/a	n/a	n/a	TrialHappPreview	Mixed
143.612	4.029	0.024	710.486	36.0	2	-12.93	-4.0	27.9049	70.0	1.5	Outcome1	-12.93	4.1	3.33575	Yes	n/a	-17.031746031746	n/a	n/a	660.0	TrialHappiness	Mixed
143.613	3.219	n/a	710.937	36.0	2	-12.93	-4.0	27.9049	70.0	1.5	Outcome1	-12.93	4.1	3.33575	Yes	n/a	-17.031746031746	n/a	n/a	660.0	TrialHappinessSliderResponse	Mixed
147.641	5.343	4.029	714.515	36.0	2	-12.93	-4.0	27.9049	70.0	1.5	Outcome1	-12.93	4.1	3.33575	Yes	n/a	-17.031746031746	n/a	n/a	n/a	ISIRate	Mixed
153.007	3.0	0.023	719.881	37.0	2	2.82	1.0	28.2574	70.0	2.48	Outcome1	2.82	-0.13	0.0	No	2.0	2.95124716553288	1.877	154.884	n/a	GetAnswer	Loss
154.913	4.0	0.029	721.787	37.0	2	2.82	1.0	28.2574	70.0	2.48	Outcome1	2.82	-0.13	0.0	No	n/a	2.95124716553288	n/a	n/a	n/a	ShowChoice	Loss
158.942	1.0	0.029	725.816	37.0	2	2.82	1.0	28.2574	70.0	2.48	Outcome1	2.82	-0.13	0.0	No	n/a	2.95124716553288	n/a	n/a	n/a	ShowResult	Loss
159.961	3.598	0.019	726.835	37.0	2	2.82	1.0	28.2574	70.0	2.48	Outcome1	2.82	-0.13	0.0	No	n/a	2.95124716553288	n/a	n/a	n/a	ISITrial	Loss
163.589	3.0	0.03	730.463	38.0	2	-7.0	-7.0	27.3824	70.0	0.82	Certain	-15.85	1.5	0.0	No	4.0	-17.353741496598598	2.888	166.477	n/a	GetAnswer	Mixed
166.497	4.0	0.02	733.371	38.0	2	-7.0	-7.0	27.3824	70.0	0.82	Certain	-15.85	1.5	0.0	No	n/a	-17.353741496598598	n/a	n/a	n/a	ShowChoice	Mixed
170.509	1.0	0.012	737.383	38.0	2	-7.0	-7.0	27.3824	70.0	0.82	Certain	-15.85	1.5	0.0	No	n/a	-17.353741496598598	n/a	n/a	n/a	ShowResult	Mixed
171.529	4.787	0.02	738.403	38.0	2	-7.0	-7.0	27.3824	70.0	0.82	Certain	-15.85	1.5	0.0	No	n/a	-17.353741496598598	n/a	n/a	n/a	ISITrial	Mixed
176.344	3.0	0.028	743.218	39.0	2	-12.72	-3.0	25.7924	70.0	2.48	Outcome1	-12.72	5.3	2.86425	Yes	n/a	-18.0226757369615	n/a	n/a	n/a	GetAnswer	Gain
179.369	4.0	0.025	746.243	39.0	2	-12.72	-3.0	25.7924	70.0	2.48	Outcome1	-12.72	5.3	2.86425	Yes	n/a	-18.0226757369615	n/a	n/a	n/a	ShowChoice	Gain
183.381	1.0	0.012	750.255	39.0	2	-12.72	-3.0	25.7924	70.0	2.48	Outcome1	-12.72	5.3	2.86425	Yes	n/a	-18.0226757369615	n/a	n/a	n/a	ShowResult	Gain
184.401	2.348	0.02	751.275	39.0	2	-12.72	-3.0	25.7924	70.0	2.48	Outcome1	-12.72	5.3	2.86425	Yes	n/a	-18.0226757369615	n/a	n/a	n/a	ISITrial	Gain
186.775	2.864	0.026	753.649	39.0	2	-12.72	-3.0	25.7924	70.0	2.48	Outcome1	-12.72	5.3	2.86425	Yes	n/a	-18.0226757369615	n/a	n/a	n/a	TrialHappPreview	Gain
189.667	4.012	0.028	756.541	39.0	2	-12.72	-3.0	25.7924	70.0	2.48	Outcome1	-12.72	5.3	2.86425	Yes	2{-2}2{-2}2{-2}2{-2}2{-2}2{-2}	-18.0226757369615	2.124	191.791	632.0	TrialHappiness	Gain
189.667	1.699	n/a	756.966	39.0	2	-12.72	-3.0	25.7924	70.0	2.48	Outcome1	-12.72	5.3	2.86425	Yes	n/a	-18.0226757369615	n/a	n/a	632.0	TrialHappinessSliderResponse	Gain
193.679	3.457	4.012	760.553	39.0	2	-12.72	-3.0	25.7924	70.0	2.48	Outcome1	-12.72	5.3	2.86425	Yes	n/a	-18.0226757369615	n/a	n/a	n/a	ISIRate	Gain
197.156	3.0	0.02	764.03	40.0	2	-9.92	-1.0	24.5524	70.0	5.0	Outcome2	8.3	-9.92	0.0	No	2.0	-18.2154195011338	1.263	198.419	n/a	GetAnswer	Gain
198.443	4.0	0.024	765.317	40.0	2	-9.92	-1.0	24.5524	70.0	5.0	Outcome2	8.3	-9.92	0.0	No	n/a	-18.2154195011338	n/a	n/a	n/a	ShowChoice	Gain
202.455	1.0	0.012	769.329	40.0	2	-9.92	-1.0	24.5524	70.0	5.0	Outcome2	8.3	-9.92	0.0	No	n/a	-18.2154195011338	n/a	n/a	n/a	ShowResult	Gain
203.475	3.158	0.02	770.349	40.0	2	-9.92	-1.0	24.5524	70.0	5.0	Outcome2	8.3	-9.92	0.0	No	n/a	-18.2154195011338	n/a	n/a	n/a	ISITrial	Gain
206.651	3.0	0.018	773.525	41.0	2	-19.15	-9.0	22.1586	70.0	1.0	Outcome1	-19.15	-0.3	4.0	Yes	2.0	-18.852607709750604	2.02	208.671	n/a	GetAnswer	Mixed
208.69	4.0	0.019	775.564	41.0	2	-19.15	-9.0	22.1586	70.0	1.0	Outcome1	-19.15	-0.3	4.0	Yes	n/a	-18.852607709750604	n/a	n/a	n/a	ShowChoice	Mixed
212.702	1.0	0.012	779.576	41.0	2	-19.15	-9.0	22.1586	70.0	1.0	Outcome1	-19.15	-0.3	4.0	Yes	n/a	-18.852607709750604	n/a	n/a	n/a	ShowResult	Mixed
213.722	4.506	0.02	780.596	41.0	2	-19.15	-9.0	22.1586	70.0	1.0	Outcome1	-19.15	-0.3	4.0	Yes	n/a	-18.852607709750604	n/a	n/a	n/a	ISITrial	Mixed
218.252	4.0	0.024	785.126	41.0	2	-19.15	-9.0	22.1586	70.0	1.0	Outcome1	-19.15	-0.3	4.0	Yes	n/a	-18.852607709750604	n/a	n/a	n/a	TrialHappPreview	Mixed
222.281	4.012	0.029	789.155	41.0	2	-19.15	-9.0	22.1586	70.0	1.0	Outcome1	-19.15	-0.3	4.0	Yes	n/a	-18.852607709750604	n/a	n/a	592.0	TrialHappiness	Mixed
222.281	1.159	n/a	789.541	41.0	2	-19.15	-9.0	22.1586	70.0	1.0	Outcome1	-19.15	-0.3	4.0	Yes	n/a	-18.852607709750604	n/a	n/a	592.0	TrialHappinessSliderResponse	Mixed
226.293	8.0	4.012	793.167	41.0	2	-19.15	-9.0	22.1586	70.0	1.0	Outcome1	-19.15	-0.3	4.0	Yes	n/a	-18.852607709750604	n/a	n/a	n/a	ISIRate	Mixed
234.317	3.0	0.024	801.191	42.0	2	-0.12	-1.0	22.1436	70.0	0.82	Outcome1	-0.12	-3.07	0.0	No	2.0	2.9484126984127004	1.499	235.816	n/a	GetAnswer	Mixed
235.838	4.0	0.022	802.712	42.0	2	-0.12	-1.0	22.1436	70.0	0.82	Outcome1	-0.12	-3.07	0.0	No	n/a	2.9484126984127004	n/a	n/a	n/a	ShowChoice	Mixed
239.85	1.0	0.012	806.724	42.0	2	-0.12	-1.0	22.1436	70.0	0.82	Outcome1	-0.12	-3.07	0.0	No	n/a	2.9484126984127004	n/a	n/a	n/a	ShowResult	Mixed
240.87	6.248	0.02	807.744	42.0	2	-0.12	-1.0	22.1436	70.0	0.82	Outcome1	-0.12	-3.07	0.0	No	n/a	2.9484126984127004	n/a	n/a	n/a	ISITrial	Mixed
247.138	3.0	0.02	814.012	43.0	2	-1.0	-1.0	22.0186	70.0	0.66	Certain	-3.18	-0.18	2.77575	Yes	4.0	2.9977324263038496	1.936	249.074	n/a	GetAnswer	Mixed
249.094	4.0	0.02	815.968	43.0	2	-1.0	-1.0	22.0186	70.0	0.66	Certain	-3.18	-0.18	2.77575	Yes	n/a	2.9977324263038496	n/a	n/a	n/a	ShowChoice	Mixed
253.106	1.0	0.012	819.98	43.0	2	-1.0	-1.0	22.0186	70.0	0.66	Certain	-3.18	-0.18	2.77575	Yes	n/a	2.9977324263038496	n/a	n/a	n/a	ShowResult	Mixed
254.126	4.596	0.02	821.0	43.0	2	-1.0	-1.0	22.0186	70.0	0.66	Certain	-3.18	-0.18	2.77575	Yes	n/a	2.9977324263038496	n/a	n/a	n/a	ISITrial	Mixed
258.74	2.776	0.018	825.614	43.0	2	-1.0	-1.0	22.0186	70.0	0.66	Certain	-3.18	-0.18	2.77575	Yes	n/a	2.9977324263038496	n/a	n/a	n/a	TrialHappPreview	Mixed
261.531	4.012	0.015	828.405	43.0	2	-1.0	-1.0	22.0186	70.0	0.66	Certain	-3.18	-0.18	2.77575	Yes	n/a	2.9977324263038496	n/a	n/a	608.0	TrialHappiness	Mixed
261.532	1.191	n/a	828.796	43.0	2	-1.0	-1.0	22.0186	70.0	0.66	Certain	-3.18	-0.18	2.77575	Yes	n/a	2.9977324263038496	n/a	n/a	608.0	TrialHappinessSliderResponse	Mixed
265.543	3.103	4.012	832.417	43.0	2	-1.0	-1.0	22.0186	70.0	0.66	Certain	-3.18	-0.18	2.77575	Yes	n/a	2.9977324263038496	n/a	n/a	n/a	ISIRate	Mixed
268.669	3.0	0.023	835.543	44.0	2	1.0	1.0	22.1436	70.0	3.6	Certain	2.98	-0.13	0.0	No	4.0	3.112055933484509	1.498	270.167	n/a	GetAnswer	Loss
270.19	4.0	0.023	837.064	44.0	2	1.0	1.0	22.1436	70.0	3.6	Certain	2.98	-0.13	0.0	No	n/a	3.112055933484509	n/a	n/a	n/a	ShowChoice	Loss
274.219	1.0	0.029	841.093	44.0	2	1.0	1.0	22.1436	70.0	3.6	Certain	2.98	-0.13	0.0	No	n/a	3.112055933484509	n/a	n/a	n/a	ShowResult	Loss
275.239	2.42	0.02	842.113	44.0	2	1.0	1.0	22.1436	70.0	3.6	Certain	2.98	-0.13	0.0	No	n/a	3.112055933484509	n/a	n/a	n/a	ISITrial	Loss
277.68	3.0	0.021	844.554	45.0	2	-9.78	0.0	20.9211	70.0	2.22	Outcome1	-9.78	11.1	0.0	No	2.0	-20.875283446712	1.455	279.135	n/a	GetAnswer	Loss
279.151	4.0	0.016	846.025	45.0	2	-9.78	0.0	20.9211	70.0	2.22	Outcome1	-9.78	11.1	0.0	No	n/a	-20.875283446712	n/a	n/a	n/a	ShowChoice	Loss
283.179	1.0	0.028	850.053	45.0	2	-9.78	0.0	20.9211	70.0	2.22	Outcome1	-9.78	11.1	0.0	No	n/a	-20.875283446712	n/a	n/a	n/a	ShowResult	Loss
284.199	3.144	0.02	851.073	45.0	2	-9.78	0.0	20.9211	70.0	2.22	Outcome1	-9.78	11.1	0.0	No	n/a	-20.875283446712	n/a	n/a	n/a	ISITrial	Loss
287.375	3.0	0.032	854.249	46.0	2	-16.99	-6.0	18.7973	70.0	1.68	Outcome1	-16.99	4.5	3.84125	Yes	2.0	-21.485260770975103	1.422	288.797	n/a	GetAnswer	Gain
288.813	4.0	0.016	855.687	46.0	2	-16.99	-6.0	18.7973	70.0	1.68	Outcome1	-16.99	4.5	3.84125	Yes	n/a	-21.485260770975103	n/a	n/a	n/a	ShowChoice	Gain
292.825	1.0	0.012	859.699	46.0	2	-16.99	-6.0	18.7973	70.0	1.68	Outcome1	-16.99	4.5	3.84125	Yes	n/a	-21.485260770975103	n/a	n/a	n/a	ShowResult	Gain
293.844	2.246	0.019	860.718	46.0	2	-16.99	-6.0	18.7973	70.0	1.68	Outcome1	-16.99	4.5	3.84125	Yes	n/a	-21.485260770975103	n/a	n/a	n/a	ISITrial	Gain
296.101	3.841	0.011	862.975	46.0	2	-16.99	-6.0	18.7973	70.0	1.68	Outcome1	-16.99	4.5	3.84125	Yes	n/a	-21.485260770975103	n/a	n/a	n/a	TrialHappPreview	Gain
299.963	4.012	0.021	866.837	46.0	2	-16.99	-6.0	18.7973	70.0	1.68	Outcome1	-16.99	4.5	3.84125	Yes	n/a	-21.485260770975103	n/a	n/a	592.0	TrialHappiness	Gain
299.963	2.3	n/a	867.285	46.0	2	-16.99	-6.0	18.7973	70.0	1.68	Outcome1	-16.99	4.5	3.84125	Yes	n/a	-21.485260770975103	n/a	n/a	592.0	TrialHappinessSliderResponse	Gain
303.975	7.365	4.012	870.849	46.0	2	-16.99	-6.0	18.7973	70.0	1.68	Outcome1	-16.99	4.5	3.84125	Yes	n/a	-21.485260770975103	n/a	n/a	n/a	ISIRate	Gain
311.363	3.0	0.023	878.237	47.0	2	-11.72	-1.0	17.3323	70.0	4.2	Outcome1	-11.72	10.1	0.0	No	2.0	-21.823129251700696	1.355	312.718	n/a	GetAnswer	Gain
312.734	4.0	0.016	879.608	47.0	2	-11.72	-1.0	17.3323	70.0	4.2	Outcome1	-11.72	10.1	0.0	No	n/a	-21.823129251700696	n/a	n/a	n/a	ShowChoice	Gain
316.746	1.0	0.012	883.62	47.0	2	-11.72	-1.0	17.3323	70.0	4.2	Outcome1	-11.72	10.1	0.0	No	n/a	-21.823129251700696	n/a	n/a	n/a	ShowResult	Gain
317.766	2.0	0.02	884.64	47.0	2	-11.72	-1.0	17.3323	70.0	4.2	Outcome1	-11.72	10.1	0.0	No	n/a	-21.823129251700696	n/a	n/a	n/a	ISITrial	Gain
319.789	3.0	0.023	886.663	48.0	2	1.0	1.0	17.4573	70.0	1.82	Certain	-0.57	2.68	2.83175	Yes	4.0	3.24886621315193	1.385	321.174	n/a	GetAnswer	Loss
321.193	4.0	0.019	888.067	48.0	2	1.0	1.0	17.4573	70.0	1.82	Certain	-0.57	2.68	2.83175	Yes	n/a	3.24886621315193	n/a	n/a	n/a	ShowChoice	Loss
325.205	1.0	0.012	892.079	48.0	2	1.0	1.0	17.4573	70.0	1.82	Certain	-0.57	2.68	2.83175	Yes	n/a	3.24886621315193	n/a	n/a	n/a	ShowResult	Loss
326.224	3.692	0.019	893.098	48.0	2	1.0	1.0	17.4573	70.0	1.82	Certain	-0.57	2.68	2.83175	Yes	n/a	3.24886621315193	n/a	n/a	n/a	ISITrial	Loss
329.936	2.832	0.02	896.81	48.0	2	1.0	1.0	17.4573	70.0	1.82	Certain	-0.57	2.68	2.83175	Yes	n/a	3.24886621315193	n/a	n/a	n/a	TrialHappPreview	Loss
332.794	4.012	0.026	899.668	48.0	2	1.0	1.0	17.4573	70.0	1.82	Certain	-0.57	2.68	2.83175	Yes	n/a	3.24886621315193	n/a	n/a	584.0	TrialHappiness	Loss
332.795	0.579	n/a	900.05	48.0	2	1.0	1.0	17.4573	70.0	1.82	Certain	-0.57	2.68	2.83175	Yes	n/a	3.24886621315193	n/a	n/a	584.0	TrialHappinessSliderResponse	Loss
336.806	3.327	4.012	903.68	48.0	2	1.0	1.0	17.4573	70.0	1.82	Certain	-0.57	2.68	2.83175	Yes	n/a	3.24886621315193	n/a	n/a	n/a	ISIRate	Loss
340.149	3.0	0.016	907.023	49.0	2	-18.17	-6.0	15.186	70.0	1.82	Outcome2	4.7	-18.17	0.0	No	2.0	-22.8707482993197	1.454	341.603	n/a	GetAnswer	Gain
341.62	4.0	0.017	908.494	49.0	2	-18.17	-6.0	15.186	70.0	1.82	Outcome2	4.7	-18.17	0.0	No	n/a	-22.8707482993197	n/a	n/a	n/a	ShowChoice	Gain
345.632	1.0	0.012	912.506	49.0	2	-18.17	-6.0	15.186	70.0	1.82	Outcome2	4.7	-18.17	0.0	No	n/a	-22.8707482993197	n/a	n/a	n/a	ShowResult	Gain
346.652	8.0	0.02	913.526	49.0	2	-18.17	-6.0	15.186	70.0	1.82	Outcome2	4.7	-18.17	0.0	No	n/a	-22.8707482993197	n/a	n/a	n/a	ISITrial	Gain
354.676	3.0	0.024	921.55	50.0	2	0.0	0.0	15.186	70.0	2.8	Certain	-11.95	11.5	3.54725	Yes	4.0	-23.453514739229004	1.698	356.374	n/a	GetAnswer	Loss
356.398	4.0	0.024	923.272	50.0	2	0.0	0.0	15.186	70.0	2.8	Certain	-11.95	11.5	3.54725	Yes	n/a	-23.453514739229004	n/a	n/a	n/a	ShowChoice	Loss
360.41	1.0	0.012	927.284	50.0	2	0.0	0.0	15.186	70.0	2.8	Certain	-11.95	11.5	3.54725	Yes	n/a	-23.453514739229004	n/a	n/a	n/a	ShowResult	Loss
361.43	7.537	0.02	928.304	50.0	2	0.0	0.0	15.186	70.0	2.8	Certain	-11.95	11.5	3.54725	Yes	n/a	-23.453514739229004	n/a	n/a	n/a	ISITrial	Loss
368.986	3.547	0.019	935.86	50.0	2	0.0	0.0	15.186	70.0	2.8	Certain	-11.95	11.5	3.54725	Yes	n/a	-23.453514739229004	n/a	n/a	n/a	TrialHappPreview	Loss
372.563	4.012	0.03	939.437	50.0	2	0.0	0.0	15.186	70.0	2.8	Certain	-11.95	11.5	3.54725	Yes	n/a	-23.453514739229004	n/a	n/a	616.0	TrialHappiness	Loss
372.563	1.229	n/a	939.87	50.0	2	0.0	0.0	15.186	70.0	2.8	Certain	-11.95	11.5	3.54725	Yes	n/a	-23.453514739229004	n/a	n/a	616.0	TrialHappinessSliderResponse	Loss
376.575	6.189	4.012	943.449	50.0	2	0.0	0.0	15.186	70.0	2.8	Certain	-11.95	11.5	3.54725	Yes	n/a	-23.453514739229004	n/a	n/a	n/a	ISIRate	Loss
382.793	3.0	0.029	949.667	51.0	2	1.42	0.0	15.3635	70.0	3.16	Outcome1	1.42	-2.07	0.0	No	2.0	3.49281934996221	1.259	384.052	n/a	GetAnswer	Gain
384.064	4.0	0.012	950.938	51.0	2	1.42	0.0	15.3635	70.0	3.16	Outcome1	1.42	-2.07	0.0	No	n/a	3.49281934996221	n/a	n/a	n/a	ShowChoice	Gain
388.076	1.0	0.012	954.95	51.0	2	1.42	0.0	15.3635	70.0	3.16	Outcome1	1.42	-2.07	0.0	No	n/a	3.49281934996221	n/a	n/a	n/a	ShowResult	Gain
389.096	5.508	0.02	955.97	51.0	2	1.42	0.0	15.3635	70.0	3.16	Outcome1	1.42	-2.07	0.0	No	n/a	3.49281934996221	n/a	n/a	n/a	ISITrial	Gain
394.629	3.0	0.025	961.503	52.0	2	-9.0	-9.0	14.2385	70.0	0.52	Certain	3.1	-22.1	0.0	No	4.0	-25.1995464852608	1.592	396.221	n/a	GetAnswer	Mixed
396.234	4.0	0.013	963.108	52.0	2	-9.0	-9.0	14.2385	70.0	0.52	Certain	3.1	-22.1	0.0	No	n/a	-25.1995464852608	n/a	n/a	n/a	ShowChoice	Mixed
400.246	1.0	0.012	967.12	52.0	2	-9.0	-9.0	14.2385	70.0	0.52	Certain	3.1	-22.1	0.0	No	n/a	-25.1995464852608	n/a	n/a	n/a	ShowResult	Mixed
401.265	5.913	0.019	968.139	52.0	2	-9.0	-9.0	14.2385	70.0	0.52	Certain	3.1	-22.1	0.0	No	n/a	-25.1995464852608	n/a	n/a	n/a	ISITrial	Mixed
407.2	3.0	0.022	974.074	53.0	2	-12.0	-12.0	12.7385	70.0	0.2	Certain	-25.32	0.5	2.99675	Yes	4.0	-25.8185941043084	1.964	409.164	n/a	GetAnswer	Mixed
409.189	4.0	0.025	976.063	53.0	2	-12.0	-12.0	12.7385	70.0	0.2	Certain	-25.32	0.5	2.99675	Yes	n/a	-25.8185941043084	n/a	n/a	n/a	ShowChoice	Mixed
413.201	1.0	0.012	980.075	53.0	2	-12.0	-12.0	12.7385	70.0	0.2	Certain	-25.32	0.5	2.99675	Yes	n/a	-25.8185941043084	n/a	n/a	n/a	ShowResult	Mixed
414.221	3.66	0.02	981.095	53.0	2	-12.0	-12.0	12.7385	70.0	0.2	Certain	-25.32	0.5	2.99675	Yes	n/a	-25.8185941043084	n/a	n/a	n/a	ISITrial	Mixed
417.898	2.997	0.017	984.772	53.0	2	-12.0	-12.0	12.7385	70.0	0.2	Certain	-25.32	0.5	2.99675	Yes	n/a	-25.8185941043084	n/a	n/a	n/a	TrialHappPreview	Mixed
420.924	4.012	0.029	987.798	53.0	2	-12.0	-12.0	12.7385	70.0	0.2	Certain	-25.32	0.5	2.99675	Yes	n/a	-25.8185941043084	n/a	n/a	592.0	TrialHappiness	Mixed
420.925	2.837	n/a	988.379	53.0	2	-12.0	-12.0	12.7385	70.0	0.2	Certain	-25.32	0.5	2.99675	Yes	n/a	-25.8185941043084	n/a	n/a	592.0	TrialHappinessSliderResponse	Mixed
424.936	3.987	4.012	991.81	53.0	2	-12.0	-12.0	12.7385	70.0	0.2	Certain	-25.32	0.5	2.99675	Yes	n/a	-25.8185941043084	n/a	n/a	n/a	ISIRate	Mixed
428.948	3.0	0.025	995.822	54.0	2	1.0	1.0	12.8635	70.0	3.6	Certain	-12.13	13.9	0.0	No	4.0	-26.029478458049898	1.787	430.735	n/a	GetAnswer	Loss
430.753	4.0	0.018	997.627	54.0	2	1.0	1.0	12.8635	70.0	3.6	Certain	-12.13	13.9	0.0	No	n/a	-26.029478458049898	n/a	n/a	n/a	ShowChoice	Loss
434.765	1.0	0.012	1001.639	54.0	2	1.0	1.0	12.8635	70.0	3.6	Certain	-12.13	13.9	0.0	No	n/a	-26.029478458049898	n/a	n/a	n/a	ShowResult	Loss
435.785	8.0	0.02	1002.659	54.0	2	1.0	1.0	12.8635	70.0	3.6	Certain	-12.13	13.9	0.0	No	n/a	-26.029478458049898	n/a	n/a	n/a	ISITrial	Loss
499.242	1.959	n/a	1066.538	n/a	2	n/a	n/a	n/a	n/a	n/a	n/a	n/a	n/a	n/a	n/a	n/a	n/a	n/a	n/a	624.0	BlockStartHappinessSliderResponse	n/a
-79.989	-0.001	0.024	1010.683	n/a	3	n/a	n/a	n/a	n/a	n/a	n/a	n/a	n/a	n/a	n/a	{SPACE}	n/a	51.405	-28.584	n/a	Rest	n/a
-28.569	4.0	0.015	1062.103	n/a	3	n/a	n/a	n/a	n/a	n/a	n/a	n/a	n/a	n/a	n/a	n/a	n/a	n/a	n/a	n/a	BlockHappyPreview	n/a
-24.557	2.381	0.012	1066.115	n/a	3	n/a	n/a	n/a	n/a	n/a	n/a	n/a	n/a	n/a	n/a	n/a	n/a	n/a	n/a	624.0	BlockStartHappiness	n/a
-4.831	-0.001	0.025	1085.841	n/a	3	n/a	n/a	n/a	n/a	n/a	n/a	n/a	n/a	n/a	n/a	5.0	n/a	4.81	-0.021	n/a	ScanWait	n/a
0.0	10.0	0.021	1090.672	n/a	3	n/a	n/a	n/a	n/a	n/a	n/a	n/a	n/a	n/a	n/a	n/a	n/a	n/a	n/a	n/a	GetReady	n/a
10.013	3.0	0.013	1100.685	55.0	3	8.5	1.44	13.925999999999998	955.0	1.68	Outcome2	2.88	8.5	2.53325	Yes	2.0	5.62287655719139	1.143	11.156	n/a	GetAnswer	Gain
11.183	4.0	0.027	1101.855	55.0	3	8.5	1.44	13.925999999999998	955.0	1.68	Outcome2	2.88	8.5	2.53325	Yes	n/a	5.62287655719139	n/a	n/a	n/a	ShowChoice	Gain
15.195	1.0	0.012	1105.867	55.0	3	8.5	1.44	13.925999999999998	955.0	1.68	Outcome2	2.88	8.5	2.53325	Yes	n/a	5.62287655719139	n/a	n/a	n/a	ShowResult	Gain
16.215	7.709	0.02	1106.887	55.0	3	8.5	1.44	13.925999999999998	955.0	1.68	Outcome2	2.88	8.5	2.53325	Yes	n/a	5.62287655719139	n/a	n/a	n/a	ISITrial	Gain
23.938	2.533	0.014	1114.61	55.0	3	8.5	1.44	13.925999999999998	955.0	1.68	Outcome2	2.88	8.5	2.53325	Yes	n/a	5.62287655719139	n/a	n/a	n/a	TrialHappPreview	Gain
26.496	4.012	0.025	1117.168	55.0	3	8.5	1.44	13.925999999999998	955.0	1.68	Outcome2	2.88	8.5	2.53325	Yes	2{-2}2{-2}2{-2}	5.62287655719139	1.762	28.258	632.0	TrialHappiness	Gain
26.496	1.255	n/a	1117.675	55.0	3	8.5	1.44	13.925999999999998	955.0	1.68	Outcome2	2.88	8.5	2.53325	Yes	n/a	5.62287655719139	n/a	n/a	632.0	TrialHappinessSliderResponse	Gain
30.508	2.133	4.012	1121.18	55.0	3	8.5	1.44	13.925999999999998	955.0	1.68	Outcome2	2.88	8.5	2.53325	Yes	n/a	5.62287655719139	n/a	n/a	n/a	ISIRate	Gain
32.664	3.0	0.023	1123.336	56.0	3	2.1	-1.0	14.1885	955.0	1.5	Outcome2	-3.76	2.1	0.0	No	2.0	5.861834654586639	1.255	33.919	n/a	GetAnswer	Mixed
33.935	4.0	0.016	1124.607	56.0	3	2.1	-1.0	14.1885	955.0	1.5	Outcome2	-3.76	2.1	0.0	No	n/a	5.861834654586639	n/a	n/a	n/a	ShowChoice	Mixed
37.947	1.0	0.012	1128.619	56.0	3	2.1	-1.0	14.1885	955.0	1.5	Outcome2	-3.76	2.1	0.0	No	n/a	5.861834654586639	n/a	n/a	n/a	ShowResult	Mixed
38.966	4.697	0.019	1129.638	56.0	3	2.1	-1.0	14.1885	955.0	1.5	Outcome2	-3.76	2.1	0.0	No	n/a	5.861834654586639	n/a	n/a	n/a	ISITrial	Mixed
43.68	3.0	0.017	1134.352	57.0	3	5.9	-0.16	14.925999999999998	955.0	3.6	Outcome1	5.9	-0.33	0.0	No	2.0	6.22763306908267	1.366	45.046	n/a	GetAnswer	Gain
45.068	4.0	0.022	1135.74	57.0	3	5.9	-0.16	14.925999999999998	955.0	3.6	Outcome1	5.9	-0.33	0.0	No	n/a	6.22763306908267	n/a	n/a	n/a	ShowChoice	Gain
49.08	1.0	0.012	1139.752	57.0	3	5.9	-0.16	14.925999999999998	955.0	3.6	Outcome1	5.9	-0.33	0.0	No	n/a	6.22763306908267	n/a	n/a	n/a	ShowResult	Gain
50.1	4.291	0.02	1140.772	57.0	3	5.9	-0.16	14.925999999999998	955.0	3.6	Outcome1	5.9	-0.33	0.0	No	n/a	6.22763306908267	n/a	n/a	n/a	ISITrial	Gain
54.412	3.0	0.021	1145.084	58.0	3	11.7	2.56	16.3885	955.0	3.16	Outcome2	5.11	11.7	3.04575	Yes	2.0	6.59343148357871	1.079	55.491	n/a	GetAnswer	Loss
55.516	4.0	0.025	1146.188	58.0	3	11.7	2.56	16.3885	955.0	3.16	Outcome2	5.11	11.7	3.04575	Yes	n/a	6.59343148357871	n/a	n/a	n/a	ShowChoice	Loss
59.528	1.0	0.012	1150.2	58.0	3	11.7	2.56	16.3885	955.0	3.16	Outcome2	5.11	11.7	3.04575	Yes	n/a	6.59343148357871	n/a	n/a	n/a	ShowResult	Loss
60.547	2.037	0.019	1151.219	58.0	3	11.7	2.56	16.3885	955.0	3.16	Outcome2	5.11	11.7	3.04575	Yes	n/a	6.59343148357871	n/a	n/a	n/a	ISITrial	Loss
62.604	3.046	0.02	1153.276	58.0	3	11.7	2.56	16.3885	955.0	3.16	Outcome2	5.11	11.7	3.04575	Yes	n/a	6.59343148357871	n/a	n/a	n/a	TrialHappPreview	Loss
65.679	4.012	0.029	1156.351	58.0	3	11.7	2.56	16.3885	955.0	3.16	Outcome2	5.11	11.7	3.04575	Yes	n/a	6.59343148357871	n/a	n/a	648.0	TrialHappiness	Loss
65.68	2.169	n/a	1156.731	58.0	3	11.7	2.56	16.3885	955.0	3.16	Outcome2	5.11	11.7	3.04575	Yes	n/a	6.59343148357871	n/a	n/a	648.0	TrialHappinessSliderResponse	Loss
69.691	4.183	4.012	1160.363	58.0	3	11.7	2.56	16.3885	955.0	3.16	Outcome2	5.11	11.7	3.04575	Yes	n/a	6.59343148357871	n/a	n/a	n/a	ISIRate	Loss
73.904	3.0	0.03	1164.576	59.0	3	9.9	1.6	17.625999999999998	955.0	3.6	Outcome2	3.21	9.9	0.0	No	2.0	6.687429218573049	1.086	74.99	n/a	GetAnswer	Gain
75.007	4.0	0.017	1165.679	59.0	3	9.9	1.6	17.625999999999998	955.0	3.6	Outcome2	3.21	9.9	0.0	No	n/a	6.687429218573049	n/a	n/a	n/a	ShowChoice	Gain
79.019	1.0	0.012	1169.691	59.0	3	9.9	1.6	17.625999999999998	955.0	3.6	Outcome2	3.21	9.9	0.0	No	n/a	6.687429218573049	n/a	n/a	n/a	ShowResult	Gain
80.039	5.064	0.02	1170.711	59.0	3	9.9	1.6	17.625999999999998	955.0	3.6	Outcome2	3.21	9.9	0.0	No	n/a	6.687429218573049	n/a	n/a	n/a	ISITrial	Gain
85.121	3.0	0.018	1175.793	60.0	3	9.7	1.33	18.8385	955.0	3.16	Outcome1	9.7	2.66	3.5625	Yes	2.0	7.0351075877689695	1.189	86.31	n/a	GetAnswer	Gain
86.324	4.0	0.014	1176.996	60.0	3	9.7	1.33	18.8385	955.0	3.16	Outcome1	9.7	2.66	3.5625	Yes	n/a	7.0351075877689695	n/a	n/a	n/a	ShowChoice	Gain
90.336	1.0	0.012	1181.008	60.0	3	9.7	1.33	18.8385	955.0	3.16	Outcome1	9.7	2.66	3.5625	Yes	n/a	7.0351075877689695	n/a	n/a	n/a	ShowResult	Gain
91.356	8.0	0.02	1182.028	60.0	3	9.7	1.33	18.8385	955.0	3.16	Outcome1	9.7	2.66	3.5625	Yes	n/a	7.0351075877689695	n/a	n/a	n/a	ISITrial	Gain
99.38	3.562	0.024	1190.052	60.0	3	9.7	1.33	18.8385	955.0	3.16	Outcome1	9.7	2.66	3.5625	Yes	n/a	7.0351075877689695	n/a	n/a	n/a	TrialHappPreview	Gain
102.957	4.012	0.015	1193.629	60.0	3	9.7	1.33	18.8385	955.0	3.16	Outcome1	9.7	2.66	3.5625	Yes	n/a	7.0351075877689695	n/a	n/a	648.0	TrialHappiness	Gain
102.958	1.503	n/a	1194.057	60.0	3	9.7	1.33	18.8385	955.0	3.16	Outcome1	9.7	2.66	3.5625	Yes	n/a	7.0351075877689695	n/a	n/a	648.0	TrialHappinessSliderResponse	Gain
106.969	6.25	4.012	1197.641	60.0	3	9.7	1.33	18.8385	955.0	3.16	Outcome1	9.7	2.66	3.5625	Yes	n/a	7.0351075877689695	n/a	n/a	n/a	ISIRate	Gain
113.238	3.0	0.019	1203.91	61.0	3	1.9	-2.0	19.076	955.0	1.2	Outcome2	-5.48	1.9	0.0	No	2.0	7.38278595696489	1.259	114.497	n/a	GetAnswer	Mixed
114.509	4.0	0.012	1205.181	61.0	3	1.9	-2.0	19.076	955.0	1.2	Outcome2	-5.48	1.9	0.0	No	n/a	7.38278595696489	n/a	n/a	n/a	ShowChoice	Mixed
118.521	1.0	0.012	1209.193	61.0	3	1.9	-2.0	19.076	955.0	1.2	Outcome2	-5.48	1.9	0.0	No	n/a	7.38278595696489	n/a	n/a	n/a	ShowResult	Mixed
119.54	4.586	0.019	1210.212	61.0	3	1.9	-2.0	19.076	955.0	1.2	Outcome2	-5.48	1.9	0.0	No	n/a	7.38278595696489	n/a	n/a	n/a	ISITrial	Mixed
124.154	3.0	0.028	1214.826	62.0	3	-5.0	-5.0	18.451	955.0	0.2	Certain	-1.5	-9.23	3.74875	Yes	4.0	7.730464326160821	1.633	125.787	n/a	GetAnswer	Mixed
125.809	4.0	0.022	1216.481	62.0	3	-5.0	-5.0	18.451	955.0	0.2	Certain	-1.5	-9.23	3.74875	Yes	n/a	7.730464326160821	n/a	n/a	n/a	ShowChoice	Mixed
129.821	1.0	0.012	1220.493	62.0	3	-5.0	-5.0	18.451	955.0	0.2	Certain	-1.5	-9.23	3.74875	Yes	n/a	7.730464326160821	n/a	n/a	n/a	ShowResult	Mixed
130.841	5.212	0.02	1221.513	62.0	3	-5.0	-5.0	18.451	955.0	0.2	Certain	-1.5	-9.23	3.74875	Yes	n/a	7.730464326160821	n/a	n/a	n/a	ISITrial	Mixed
136.073	3.749	0.02	1226.745	62.0	3	-5.0	-5.0	18.451	955.0	0.2	Certain	-1.5	-9.23	3.74875	Yes	n/a	7.730464326160821	n/a	n/a	n/a	TrialHappPreview	Mixed
139.851	4.012	0.029	1230.523	62.0	3	-5.0	-5.0	18.451	955.0	0.2	Certain	-1.5	-9.23	3.74875	Yes	n/a	7.730464326160821	n/a	n/a	648.0	TrialHappiness	Mixed
139.851	1.125	n/a	1230.975	62.0	3	-5.0	-5.0	18.451	955.0	0.2	Certain	-1.5	-9.23	3.74875	Yes	n/a	7.730464326160821	n/a	n/a	648.0	TrialHappinessSliderResponse	Mixed
143.863	6.995	4.012	1234.535	62.0	3	-5.0	-5.0	18.451	955.0	0.2	Certain	-1.5	-9.23	3.74875	Yes	n/a	7.730464326160821	n/a	n/a	n/a	ISIRate	Mixed
150.884	3.0	0.026	1241.556	63.0	3	2.22	1.11	18.7285	955.0	1.0	Outcome1	2.22	3.7	0.0	No	2.0	-1.48442808607022	1.01	151.894	n/a	GetAnswer	Mixed
151.92	4.0	0.026	1242.592	63.0	3	2.22	1.11	18.7285	955.0	1.0	Outcome1	2.22	3.7	0.0	No	n/a	-1.48442808607022	n/a	n/a	n/a	ShowChoice	Mixed
155.932	1.0	0.012	1246.604	63.0	3	2.22	1.11	18.7285	955.0	1.0	Outcome1	2.22	3.7	0.0	No	n/a	-1.48442808607022	n/a	n/a	n/a	ShowResult	Mixed
156.952	5.595	0.02	1247.624	63.0	3	2.22	1.11	18.7285	955.0	1.0	Outcome1	2.22	3.7	0.0	No	n/a	-1.48442808607022	n/a	n/a	n/a	ISITrial	Mixed
162.569	3.0	0.022	1253.241	64.0	3	4.79	2.4	19.3273	955.0	5.0	Outcome2	6.3	4.79	0.0	No	2.0	-1.51340128350321	0.906	163.475	n/a	GetAnswer	Gain
163.488	4.0	0.013	1254.16	64.0	3	4.79	2.4	19.3273	955.0	5.0	Outcome2	6.3	4.79	0.0	No	n/a	-1.51340128350321	n/a	n/a	n/a	ShowChoice	Gain
167.5	1.0	0.012	1258.172	64.0	3	4.79	2.4	19.3273	955.0	5.0	Outcome2	6.3	4.79	0.0	No	n/a	-1.51340128350321	n/a	n/a	n/a	ShowResult	Gain
168.52	5.47	0.02	1259.192	64.0	3	4.79	2.4	19.3273	955.0	5.0	Outcome2	6.3	4.79	0.0	No	n/a	-1.51340128350321	n/a	n/a	n/a	ISITrial	Gain
174.02	3.0	0.03	1264.692	65.0	3	10.3	0.76	20.6148	955.0	5.0	Outcome2	1.53	10.3	2.99675	Yes	2.0	8.77349943374858	1.088	175.108	n/a	GetAnswer	Gain
175.123	4.0	0.015	1265.795	65.0	3	10.3	0.76	20.6148	955.0	5.0	Outcome2	1.53	10.3	2.99675	Yes	n/a	8.77349943374858	n/a	n/a	n/a	ShowChoice	Gain
179.135	1.0	0.012	1269.807	65.0	3	10.3	0.76	20.6148	955.0	5.0	Outcome2	1.53	10.3	2.99675	Yes	n/a	8.77349943374858	n/a	n/a	n/a	ShowResult	Gain
180.155	3.344	0.02	1270.827	65.0	3	10.3	0.76	20.6148	955.0	5.0	Outcome2	1.53	10.3	2.99675	Yes	n/a	8.77349943374858	n/a	n/a	n/a	ISITrial	Gain
183.515	2.997	0.016	1274.187	65.0	3	10.3	0.76	20.6148	955.0	5.0	Outcome2	1.53	10.3	2.99675	Yes	n/a	8.77349943374858	n/a	n/a	n/a	TrialHappPreview	Gain
186.54	4.012	0.028	1277.212	65.0	3	10.3	0.76	20.6148	955.0	5.0	Outcome2	1.53	10.3	2.99675	Yes	n/a	8.77349943374858	n/a	n/a	656.0	TrialHappiness	Gain
186.541	1.107	n/a	1277.633	65.0	3	10.3	0.76	20.6148	955.0	5.0	Outcome2	1.53	10.3	2.99675	Yes	n/a	8.77349943374858	n/a	n/a	656.0	TrialHappinessSliderResponse	Gain
190.552	3.987	4.012	1281.224	65.0	3	10.3	0.76	20.6148	955.0	5.0	Outcome2	1.53	10.3	2.99675	Yes	n/a	8.77349943374858	n/a	n/a	n/a	ISIRate	Gain
194.564	3.0	0.025	1285.236	66.0	3	-0.84	0.0	20.5098	955.0	0.3	Outcome1	-0.84	0.7	0.0	No	2.0	-1.53888259720649	1.086	195.65	n/a	GetAnswer	Mixed
195.668	4.0	0.018	1286.34	66.0	3	-0.84	0.0	20.5098	955.0	0.3	Outcome1	-0.84	0.7	0.0	No	n/a	-1.53888259720649	n/a	n/a	n/a	ShowChoice	Mixed
199.68	1.0	0.012	1290.352	66.0	3	-0.84	0.0	20.5098	955.0	0.3	Outcome1	-0.84	0.7	0.0	No	n/a	-1.53888259720649	n/a	n/a	n/a	ShowResult	Mixed
200.699	3.959	0.019	1291.371	66.0	3	-0.84	0.0	20.5098	955.0	0.3	Outcome1	-0.84	0.7	0.0	No	n/a	-1.53888259720649	n/a	n/a	n/a	ISITrial	Mixed
204.678	3.0	0.02	1295.35	67.0	3	2.0	2.0	20.7598	955.0	1.68	Certain	6.5	-2.82	2.9185	Yes	4.0	9.32389580973952	1.253	205.931	n/a	GetAnswer	Gain
205.948	4.0	0.017	1296.62	67.0	3	2.0	2.0	20.7598	955.0	1.68	Certain	6.5	-2.82	2.9185	Yes	n/a	9.32389580973952	n/a	n/a	n/a	ShowChoice	Gain
209.96	1.0	0.012	1300.632	67.0	3	2.0	2.0	20.7598	955.0	1.68	Certain	6.5	-2.82	2.9185	Yes	n/a	9.32389580973952	n/a	n/a	n/a	ShowResult	Gain
210.98	4.199	0.02	1301.652	67.0	3	2.0	2.0	20.7598	955.0	1.68	Certain	6.5	-2.82	2.9185	Yes	n/a	9.32389580973952	n/a	n/a	n/a	ISITrial	Gain
215.193	2.918	0.014	1305.865	67.0	3	2.0	2.0	20.7598	955.0	1.68	Certain	6.5	-2.82	2.9185	Yes	n/a	9.32389580973952	n/a	n/a	n/a	TrialHappPreview	Gain
218.135	4.012	0.024	1308.807	67.0	3	2.0	2.0	20.7598	955.0	1.68	Certain	6.5	-2.82	2.9185	Yes	n/a	9.32389580973952	n/a	n/a	624.0	TrialHappiness	Gain
218.135	1.031	n/a	1309.254	67.0	3	2.0	2.0	20.7598	955.0	1.68	Certain	6.5	-2.82	2.9185	Yes	n/a	9.32389580973952	n/a	n/a	624.0	TrialHappinessSliderResponse	Gain
222.147	3.674	4.012	1312.819	67.0	3	2.0	2.0	20.7598	955.0	1.68	Certain	6.5	-2.82	2.9185	Yes	n/a	9.32389580973952	n/a	n/a	n/a	ISIRate	Gain
225.841	3.0	0.02	1316.513	68.0	3	2.7	-2.0	21.0973	955.0	0.3	Outcome2	-7.51	2.7	0.0	No	2.0	10.2061155152888	1.403	227.244	n/a	GetAnswer	Mixed
227.262	4.0	0.018	1317.934	68.0	3	2.7	-2.0	21.0973	955.0	0.3	Outcome2	-7.51	2.7	0.0	No	n/a	10.2061155152888	n/a	n/a	n/a	ShowChoice	Mixed
231.274	1.0	0.012	1321.946	68.0	3	2.7	-2.0	21.0973	955.0	0.3	Outcome2	-7.51	2.7	0.0	No	n/a	10.2061155152888	n/a	n/a	n/a	ShowResult	Mixed
232.294	2.185	0.02	1322.966	68.0	3	2.7	-2.0	21.0973	955.0	0.3	Outcome2	-7.51	2.7	0.0	No	n/a	10.2061155152888	n/a	n/a	n/a	ISITrial	Mixed
234.5	3.0	0.021	1325.172	69.0	3	1.7	-3.0	21.3098	955.0	1.0	Outcome2	-8.88	1.7	0.0	No	2.0	10.5809739524349	1.325	235.825	n/a	GetAnswer	Mixed
235.838	4.0	0.013	1326.51	69.0	3	1.7	-3.0	21.3098	955.0	1.0	Outcome2	-8.88	1.7	0.0	No	n/a	10.5809739524349	n/a	n/a	n/a	ShowChoice	Mixed
239.85	1.0	0.012	1330.522	69.0	3	1.7	-3.0	21.3098	955.0	1.0	Outcome2	-8.88	1.7	0.0	No	n/a	10.5809739524349	n/a	n/a	n/a	ShowResult	Mixed
240.869	2.0	0.019	1331.541	69.0	3	1.7	-3.0	21.3098	955.0	1.0	Outcome2	-8.88	1.7	0.0	No	n/a	10.5809739524349	n/a	n/a	n/a	ISITrial	Mixed
242.892	3.0	0.023	1333.564	70.0	3	7.1	1.0	22.1973	955.0	2.22	Outcome2	-3.86	7.1	3.65125	Yes	2.0	10.955832389581	1.455	244.347	n/a	GetAnswer	Gain
244.363	4.0	0.016	1335.035	70.0	3	7.1	1.0	22.1973	955.0	2.22	Outcome2	-3.86	7.1	3.65125	Yes	n/a	10.955832389581	n/a	n/a	n/a	ShowChoice	Gain
248.375	1.0	0.012	1339.047	70.0	3	7.1	1.0	22.1973	955.0	2.22	Outcome2	-3.86	7.1	3.65125	Yes	n/a	10.955832389581	n/a	n/a	n/a	ShowResult	Gain
249.395	2.623	0.02	1340.067	70.0	3	7.1	1.0	22.1973	955.0	2.22	Outcome2	-3.86	7.1	3.65125	Yes	n/a	10.955832389581	n/a	n/a	n/a	ISITrial	Gain
252.036	3.651	0.018	1342.708	70.0	3	7.1	1.0	22.1973	955.0	2.22	Outcome2	-3.86	7.1	3.65125	Yes	n/a	10.955832389581	n/a	n/a	n/a	TrialHappPreview	Gain
255.714	4.012	0.027	1346.386	70.0	3	7.1	1.0	22.1973	955.0	2.22	Outcome2	-3.86	7.1	3.65125	Yes	n/a	10.955832389581	n/a	n/a	680.0	TrialHappiness	Gain
255.714	3.335	n/a	1346.802	70.0	3	7.1	1.0	22.1973	955.0	2.22	Outcome2	-3.86	7.1	3.65125	Yes	n/a	10.955832389581	n/a	n/a	680.0	TrialHappinessSliderResponse	Gain
259.726	6.605	4.012	1350.398	70.0	3	7.1	1.0	22.1973	955.0	2.22	Outcome2	-3.86	7.1	3.65125	Yes	n/a	10.955832389581	n/a	n/a	n/a	ISIRate	Gain
266.362	3.0	0.031	1357.034	71.0	3	-2.0	-2.0	21.9473	955.0	0.3	Certain	-2.89	-1.3	0.0	No	4.0	-1.5916383540958898	1.698	268.06	n/a	GetAnswer	Mixed
268.084	4.0	0.023	1358.756	71.0	3	-2.0	-2.0	21.9473	955.0	0.3	Certain	-2.89	-1.3	0.0	No	n/a	-1.5916383540958898	n/a	n/a	n/a	ShowChoice	Mixed
272.096	1.0	0.012	1362.768	71.0	3	-2.0	-2.0	21.9473	955.0	0.3	Certain	-2.89	-1.3	0.0	No	n/a	-1.5916383540958898	n/a	n/a	n/a	ShowResult	Mixed
273.116	5.499	0.02	1363.788	71.0	3	-2.0	-2.0	21.9473	955.0	0.3	Certain	-2.89	-1.3	0.0	No	n/a	-1.5916383540958898	n/a	n/a	n/a	ISITrial	Mixed
278.632	3.0	0.017	1369.304	72.0	3	-0.32	0.0	21.9073	955.0	0.66	Outcome1	-0.32	1.3	3.0805	Yes	2.0	-1.6175915439788602	1.696	280.328	n/a	GetAnswer	Mixed
280.354	4.0	0.026	1371.026	72.0	3	-0.32	0.0	21.9073	955.0	0.66	Outcome1	-0.32	1.3	3.0805	Yes	n/a	-1.6175915439788602	n/a	n/a	n/a	ShowChoice	Mixed
284.366	1.0	0.012	1375.038	72.0	3	-0.32	0.0	21.9073	955.0	0.66	Outcome1	-0.32	1.3	3.0805	Yes	n/a	-1.6175915439788602	n/a	n/a	n/a	ShowResult	Mixed
285.386	5.672	0.02	1376.058	72.0	3	-0.32	0.0	21.9073	955.0	0.66	Outcome1	-0.32	1.3	3.0805	Yes	n/a	-1.6175915439788602	n/a	n/a	n/a	ISITrial	Mixed
291.086	3.08	0.028	1381.758	72.0	3	-0.32	0.0	21.9073	955.0	0.66	Outcome1	-0.32	1.3	3.0805	Yes	n/a	-1.6175915439788602	n/a	n/a	n/a	TrialHappPreview	Mixed
294.195	4.012	0.029	1384.867	72.0	3	-0.32	0.0	21.9073	955.0	0.66	Outcome1	-0.32	1.3	3.0805	Yes	2{-2}2{-2}2{-2}2{-2}2{-2}	-1.6175915439788602	2.514	296.709	648.0	TrialHappiness	Mixed
294.196	1.903	n/a	1385.479	72.0	3	-0.32	0.0	21.9073	955.0	0.66	Outcome1	-0.32	1.3	3.0805	Yes	n/a	-1.6175915439788602	n/a	n/a	648.0	TrialHappinessSliderResponse	Mixed
298.207	4.322	4.012	1388.879	72.0	3	-0.32	0.0	21.9073	955.0	0.66	Outcome1	-0.32	1.3	3.0805	Yes	n/a	-1.6175915439788602	n/a	n/a	n/a	ISIRate	Mixed
302.553	3.0	0.024	1393.225	73.0	3	3.3	-2.0	22.3198	955.0	0.66	Outcome1	3.3	-8.25	0.0	No	2.0	11.5458663646659	1.408	303.961	n/a	GetAnswer	Mixed
303.974	4.0	0.013	1394.646	73.0	3	3.3	-2.0	22.3198	955.0	0.66	Outcome1	3.3	-8.25	0.0	No	n/a	11.5458663646659	n/a	n/a	n/a	ShowChoice	Mixed
307.986	1.0	0.012	1398.658	73.0	3	3.3	-2.0	22.3198	955.0	0.66	Outcome1	3.3	-8.25	0.0	No	n/a	11.5458663646659	n/a	n/a	n/a	ShowResult	Mixed
309.006	4.616	0.02	1399.678	73.0	3	3.3	-2.0	22.3198	955.0	0.66	Outcome1	3.3	-8.25	0.0	No	n/a	11.5458663646659	n/a	n/a	n/a	ISITrial	Mixed
313.653	3.0	0.031	1404.325	74.0	3	0.1	-6.0	22.3323	955.0	1.5	Outcome1	0.1	-11.79	3.05625	Yes	2.0	11.893544733861802	1.929	315.582	n/a	GetAnswer	Mixed
315.609	4.0	0.027	1406.281	74.0	3	0.1	-6.0	22.3323	955.0	1.5	Outcome1	0.1	-11.79	3.05625	Yes	n/a	11.893544733861802	n/a	n/a	n/a	ShowChoice	Mixed
319.621	1.0	0.012	1410.293	74.0	3	0.1	-6.0	22.3323	955.0	1.5	Outcome1	0.1	-11.79	3.05625	Yes	n/a	11.893544733861802	n/a	n/a	n/a	ShowResult	Mixed
320.641	3.909	0.02	1411.313	74.0	3	0.1	-6.0	22.3323	955.0	1.5	Outcome1	0.1	-11.79	3.05625	Yes	n/a	11.893544733861802	n/a	n/a	n/a	ISITrial	Mixed
324.569	3.056	0.019	1415.241	74.0	3	0.1	-6.0	22.3323	955.0	1.5	Outcome1	0.1	-11.79	3.05625	Yes	n/a	11.893544733861802	n/a	n/a	n/a	TrialHappPreview	Mixed
327.645	4.012	0.02	1418.317	74.0	3	0.1	-6.0	22.3323	955.0	1.5	Outcome1	0.1	-11.79	3.05625	Yes	n/a	11.893544733861802	n/a	n/a	680.0	TrialHappiness	Mixed
327.646	1.602	n/a	1418.679	74.0	3	0.1	-6.0	22.3323	955.0	1.5	Outcome1	0.1	-11.79	3.05625	Yes	n/a	11.893544733861802	n/a	n/a	680.0	TrialHappinessSliderResponse	Mixed
331.657	4.225	4.012	1422.329	74.0	3	0.1	-6.0	22.3323	955.0	1.5	Outcome1	0.1	-11.79	3.05625	Yes	n/a	11.893544733861802	n/a	n/a	n/a	ISIRate	Mixed
335.903	3.0	0.021	1426.575	75.0	3	13.3	0.8	23.9948	955.0	2.48	Outcome1	13.3	1.6	0.0	No	2.0	11.6976217440544	1.241	337.144	n/a	GetAnswer	Loss
337.157	4.0	0.013	1427.829	75.0	3	13.3	0.8	23.9948	955.0	2.48	Outcome1	13.3	1.6	0.0	No	n/a	11.6976217440544	n/a	n/a	n/a	ShowChoice	Loss
341.169	1.0	0.012	1431.841	75.0	3	13.3	0.8	23.9948	955.0	2.48	Outcome1	13.3	1.6	0.0	No	n/a	11.6976217440544	n/a	n/a	n/a	ShowResult	Loss
342.188	4.979	0.019	1432.86	75.0	3	13.3	0.8	23.9948	955.0	2.48	Outcome1	13.3	1.6	0.0	No	n/a	11.6976217440544	n/a	n/a	n/a	ISITrial	Loss
347.187	3.0	0.02	1437.859	76.0	3	5.17	2.58	24.641	955.0	2.0	Outcome2	6.9	5.17	0.0	No	2.0	-1.7274443186108	1.002	348.189	n/a	GetAnswer	Gain
348.206	4.0	0.017	1438.878	76.0	3	5.17	2.58	24.641	955.0	2.0	Outcome2	6.9	5.17	0.0	No	n/a	-1.7274443186108	n/a	n/a	n/a	ShowChoice	Gain
352.218	1.0	0.012	1442.89	76.0	3	5.17	2.58	24.641	955.0	2.0	Outcome2	6.9	5.17	0.0	No	n/a	-1.7274443186108	n/a	n/a	n/a	ShowResult	Gain
353.238	3.931	0.02	1443.91	76.0	3	5.17	2.58	24.641	955.0	2.0	Outcome2	6.9	5.17	0.0	No	n/a	-1.7274443186108	n/a	n/a	n/a	ISITrial	Gain
357.2	3.0	0.031	1447.872	77.0	3	5.1	-1.0	25.2785	955.0	2.22	Outcome1	5.1	-7.22	4.0	Yes	2.0	12.320498301245802	1.326	358.526	n/a	GetAnswer	Gain
358.537	4.0	0.011	1449.209	77.0	3	5.1	-1.0	25.2785	955.0	2.22	Outcome1	5.1	-7.22	4.0	Yes	n/a	12.320498301245802	n/a	n/a	n/a	ShowChoice	Gain
362.549	1.0	0.012	1453.221	77.0	3	5.1	-1.0	25.2785	955.0	2.22	Outcome1	5.1	-7.22	4.0	Yes	n/a	12.320498301245802	n/a	n/a	n/a	ShowResult	Gain
363.569	7.022	0.02	1454.241	77.0	3	5.1	-1.0	25.2785	955.0	2.22	Outcome1	5.1	-7.22	4.0	Yes	n/a	12.320498301245802	n/a	n/a	n/a	ISITrial	Gain
370.607	4.0	0.016	1461.279	77.0	3	5.1	-1.0	25.2785	955.0	2.22	Outcome1	5.1	-7.22	4.0	Yes	n/a	12.320498301245802	n/a	n/a	n/a	TrialHappPreview	Gain
374.635	4.012	0.028	1465.307	77.0	3	5.1	-1.0	25.2785	955.0	2.22	Outcome1	5.1	-7.22	4.0	Yes	n/a	12.320498301245802	n/a	n/a	704.0	TrialHappiness	Gain
374.636	2.132	n/a	1465.875	77.0	3	5.1	-1.0	25.2785	955.0	2.22	Outcome1	5.1	-7.22	4.0	Yes	n/a	12.320498301245802	n/a	n/a	704.0	TrialHappinessSliderResponse	Gain
378.647	8.0	4.012	1469.319	77.0	3	5.1	-1.0	25.2785	955.0	2.22	Outcome1	5.1	-7.22	4.0	Yes	n/a	12.320498301245802	n/a	n/a	n/a	ISIRate	Gain
386.671	3.0	0.024	1477.343	78.0	3	13.1	0.44	26.916	955.0	2.22	Outcome1	13.1	0.88	0.0	No	2.0	12.224235560588902	1.22	387.891	n/a	GetAnswer	Loss
387.908	4.0	0.017	1478.58	78.0	3	13.1	0.44	26.916	955.0	2.22	Outcome1	13.1	0.88	0.0	No	n/a	12.224235560588902	n/a	n/a	n/a	ShowChoice	Loss
391.92	1.0	0.012	1482.592	78.0	3	13.1	0.44	26.916	955.0	2.22	Outcome1	13.1	0.88	0.0	No	n/a	12.224235560588902	n/a	n/a	n/a	ShowResult	Loss
392.94	2.078	0.02	1483.612	78.0	3	13.1	0.44	26.916	955.0	2.22	Outcome1	13.1	0.88	0.0	No	n/a	12.224235560588902	n/a	n/a	n/a	ISITrial	Loss
395.046	3.0	0.028	1485.718	79.0	3	12.7	0.1	28.5035	955.0	1.82	Outcome2	0.19	12.7	2.7295	Yes	2.0	12.5084937712344	1.009	396.055	n/a	GetAnswer	Loss
396.083	4.0	0.028	1486.755	79.0	3	12.7	0.1	28.5035	955.0	1.82	Outcome2	0.19	12.7	2.7295	Yes	n/a	12.5084937712344	n/a	n/a	n/a	ShowChoice	Loss
400.095	1.0	0.012	1490.767	79.0	3	12.7	0.1	28.5035	955.0	1.82	Outcome2	0.19	12.7	2.7295	Yes	n/a	12.5084937712344	n/a	n/a	n/a	ShowResult	Loss
401.114	3.829	0.019	1491.786	79.0	3	12.7	0.1	28.5035	955.0	1.82	Outcome2	0.19	12.7	2.7295	Yes	n/a	12.5084937712344	n/a	n/a	n/a	ISITrial	Loss
404.959	2.73	0.016	1495.631	79.0	3	12.7	0.1	28.5035	955.0	1.82	Outcome2	0.19	12.7	2.7295	Yes	n/a	12.5084937712344	n/a	n/a	n/a	TrialHappPreview	Loss
407.718	4.012	0.029	1498.39	79.0	3	12.7	0.1	28.5035	955.0	1.82	Outcome2	0.19	12.7	2.7295	Yes	n/a	12.5084937712344	n/a	n/a	696.0	TrialHappiness	Loss
407.718	3.096	n/a	1498.945	79.0	3	12.7	0.1	28.5035	955.0	1.82	Outcome2	0.19	12.7	2.7295	Yes	n/a	12.5084937712344	n/a	n/a	696.0	TrialHappinessSliderResponse	Loss
411.73	2.918	4.012	1502.402	79.0	3	12.7	0.1	28.5035	955.0	1.82	Outcome2	0.19	12.7	2.7295	Yes	n/a	12.5084937712344	n/a	n/a	n/a	ISIRate	Loss
414.672	3.0	0.024	1505.344	80.0	3	7.1	0.0	29.391	955.0	2.22	Outcome1	7.1	-5.83	0.0	No	2.0	12.9286523216308	1.239	415.911	n/a	GetAnswer	Gain
415.925	4.0	0.014	1506.597	80.0	3	7.1	0.0	29.391	955.0	2.22	Outcome1	7.1	-5.83	0.0	No	n/a	12.9286523216308	n/a	n/a	n/a	ShowChoice	Gain
419.937	1.0	0.012	1510.609	80.0	3	7.1	0.0	29.391	955.0	2.22	Outcome1	7.1	-5.83	0.0	No	n/a	12.9286523216308	n/a	n/a	n/a	ShowResult	Gain
420.957	3.336	0.02	1511.629	80.0	3	7.1	0.0	29.391	955.0	2.22	Outcome1	7.1	-5.83	0.0	No	n/a	12.9286523216308	n/a	n/a	n/a	ISITrial	Gain
424.317	3.0	0.024	1514.989	81.0	3	-5.0	-5.0	28.766	955.0	0.4	Certain	-12.32	0.9	3.92375	Yes	4.0	13.2219705549264	1.957	426.274	n/a	GetAnswer	Mixed
426.29	4.0	0.016	1516.962	81.0	3	-5.0	-5.0	28.766	955.0	0.4	Certain	-12.32	0.9	3.92375	Yes	n/a	13.2219705549264	n/a	n/a	n/a	ShowChoice	Mixed
430.302	1.0	0.012	1520.974	81.0	3	-5.0	-5.0	28.766	955.0	0.4	Certain	-12.32	0.9	3.92375	Yes	n/a	13.2219705549264	n/a	n/a	n/a	ShowResult	Mixed
431.321	3.919	0.019	1521.993	81.0	3	-5.0	-5.0	28.766	955.0	0.4	Certain	-12.32	0.9	3.92375	Yes	n/a	13.2219705549264	n/a	n/a	n/a	ISITrial	Mixed
435.266	3.924	0.026	1525.938	81.0	3	-5.0	-5.0	28.766	955.0	0.4	Certain	-12.32	0.9	3.92375	Yes	n/a	13.2219705549264	n/a	n/a	n/a	TrialHappPreview	Mixed
439.212	4.012	0.022	1529.884	81.0	3	-5.0	-5.0	28.766	955.0	0.4	Certain	-12.32	0.9	3.92375	Yes	n/a	13.2219705549264	n/a	n/a	696.0	TrialHappiness	Mixed
439.212	2.015	n/a	1530.601	81.0	3	-5.0	-5.0	28.766	955.0	0.4	Certain	-12.32	0.9	3.92375	Yes	n/a	13.2219705549264	n/a	n/a	696.0	TrialHappinessSliderResponse	Mixed
443.224	7.695	4.012	1533.896	81.0	3	-5.0	-5.0	28.766	955.0	0.4	Certain	-12.32	0.9	3.92375	Yes	n/a	13.2219705549264	n/a	n/a	n/a	ISIRate	Mixed
450.947	3.0	0.028	1541.619	n/a	3	n/a	n/a	n/a	n/a	n/a	n/a	n/a	n/a	n/a	n/a	n/a	n/a	n/a	n/a	n/a	CurrentEarnings	n/a
453.972	-0.001	0.025	1544.644	n/a	3	n/a	n/a	n/a	n/a	n/a	n/a	n/a	n/a	n/a	n/a	{SPACE}	n/a	12.967	466.939	n/a	Goodbye	n/a
