onset	duration	onset_delay	onset_unadjusted	trial_number	block	amount_change	certain_amount	current_amount	mood_target	multiplier	outcome	outcome1_amount	outcome2_amount	question_duration	rating	response	rpe	rt	rt_time	slider_response	trial_phase	trial_type
-46.723	-0.001	0.022	28.714	n/a	0	n/a	n/a	n/a	n/a	n/a	n/a	n/a	n/a	n/a	n/a	{SPACE}	n/a	3.532	-43.191	n/a	Welcome	n/a
-43.163	5.0	0.028	32.274	n/a	0	n/a	n/a	n/a	n/a	n/a	n/a	n/a	n/a	n/a	n/a	n/a	n/a	n/a	n/a	n/a	LifeHappyPreview	n/a
-38.131	2.717	0.032	37.306	n/a	0	n/a	n/a	n/a	n/a	n/a	n/a	n/a	n/a	n/a	n/a	n/a	n/a	n/a	n/a	728.0	LifeHappiness	n/a
-38.13	2.091	n/a	37.933	n/a	0	n/a	n/a	n/a	n/a	n/a	n/a	n/a	n/a	n/a	n/a	n/a	n/a	n/a	n/a	728.0	LifeHappinessSliderResponse	n/a
-25.744	4.0	0.023	49.693	n/a	0	n/a	n/a	n/a	n/a	n/a	n/a	n/a	n/a	n/a	n/a	n/a	n/a	n/a	n/a	n/a	BlockHappyPreview	n/a
-21.732	1.461	0.012	53.705	n/a	0	n/a	n/a	n/a	n/a	n/a	n/a	n/a	n/a	n/a	n/a	n/a	n/a	n/a	n/a	736.0	BlockStartHappiness	n/a
-21.731	1.45	n/a	53.717	n/a	0	n/a	n/a	n/a	n/a	n/a	n/a	n/a	n/a	n/a	n/a	n/a	n/a	n/a	n/a	736.0	BlockStartHappinessSliderResponse	n/a
-10.649	-0.001	0.014	64.788	n/a	0	n/a	n/a	n/a	n/a	n/a	n/a	n/a	n/a	n/a	n/a	5.0	n/a	10.634	-0.015	n/a	ScanWait	n/a
0.0	10.0	0.015	75.437	n/a	1	n/a	n/a	n/a	n/a	n/a	n/a	n/a	n/a	n/a	n/a	n/a	n/a	n/a	n/a	n/a	GetReady	n/a
10.03	3.0	0.03	85.467	1.0	1	2.5	0.0	10.3125	955.0	0.2	Outcome2	-1.22	2.5	0.0	No	2.0	3.7202718006795	1.86	11.89	n/a	GetAnswer	Mixed
11.902	4.0	0.012	87.339	1.0	1	2.5	0.0	10.3125	955.0	0.2	Outcome2	-1.22	2.5	0.0	No	n/a	3.7202718006795	n/a	n/a	n/a	ShowChoice	Mixed
15.914	1.0	0.012	91.351	1.0	1	2.5	0.0	10.3125	955.0	0.2	Outcome2	-1.22	2.5	0.0	No	n/a	3.7202718006795	n/a	n/a	n/a	ShowResult	Mixed
16.934	2.431	0.02	92.371	1.0	1	2.5	0.0	10.3125	955.0	0.2	Outcome2	-1.22	2.5	0.0	No	n/a	3.7202718006795	n/a	n/a	n/a	ISITrial	Mixed
19.391	3.0	0.026	94.828	2.0	1	12.1	4.07	11.825	955.0	4.2	Outcome1	12.1	8.13	0.0	No	2.0	3.9682899207248	1.506	20.897	n/a	GetAnswer	Loss
20.912	4.0	0.015	96.349	2.0	1	12.1	4.07	11.825	955.0	4.2	Outcome1	12.1	8.13	0.0	No	n/a	3.9682899207248	n/a	n/a	n/a	ShowChoice	Loss
24.924	1.0	0.012	100.361	2.0	1	12.1	4.07	11.825	955.0	4.2	Outcome1	12.1	8.13	0.0	No	n/a	3.9682899207248	n/a	n/a	n/a	ShowResult	Loss
25.944	4.568	0.02	101.381	2.0	1	12.1	4.07	11.825	955.0	4.2	Outcome1	12.1	8.13	0.0	No	n/a	3.9682899207248	n/a	n/a	n/a	ISITrial	Loss
30.541	3.0	0.029	105.978	3.0	1	6.5	1.14	12.6375	955.0	1.68	Outcome2	2.28	6.5	2.868	Yes	2.0	4.216308040770101	1.292	31.833	n/a	GetAnswer	Gain
31.845	4.0	0.012	107.282	3.0	1	6.5	1.14	12.6375	955.0	1.68	Outcome2	2.28	6.5	2.868	Yes	n/a	4.216308040770101	n/a	n/a	n/a	ShowChoice	Gain
35.857	1.0	0.012	111.294	3.0	1	6.5	1.14	12.6375	955.0	1.68	Outcome2	2.28	6.5	2.868	Yes	n/a	4.216308040770101	n/a	n/a	n/a	ShowResult	Gain
36.877	3.243	0.02	112.314	3.0	1	6.5	1.14	12.6375	955.0	1.68	Outcome2	2.28	6.5	2.868	Yes	n/a	4.216308040770101	n/a	n/a	n/a	ISITrial	Gain
40.137	2.868	0.017	115.574	3.0	1	6.5	1.14	12.6375	955.0	1.68	Outcome2	2.28	6.5	2.868	Yes	n/a	4.216308040770101	n/a	n/a	n/a	TrialHappPreview	Gain
43.029	4.012	0.024	118.466	3.0	1	6.5	1.14	12.6375	955.0	1.68	Outcome2	2.28	6.5	2.868	Yes	n/a	4.216308040770101	n/a	n/a	752.0	TrialHappiness	Gain
43.029	2.869	n/a	118.898	3.0	1	6.5	1.14	12.6375	955.0	1.68	Outcome2	2.28	6.5	2.868	Yes	n/a	4.216308040770101	n/a	n/a	752.0	TrialHappinessSliderResponse	Gain
47.041	3.472	4.012	122.478	3.0	1	6.5	1.14	12.6375	955.0	1.68	Outcome2	2.28	6.5	2.868	Yes	n/a	4.216308040770101	n/a	n/a	n/a	ISIRate	Gain
50.534	3.0	0.021	125.971	4.0	1	10.9	3.36	14.0	955.0	2.0	Outcome1	10.9	6.71	0.0	No	2.0	4.1925254813137	1.126	51.66	n/a	GetAnswer	Loss
51.688	4.0	0.027	127.125	4.0	1	10.9	3.36	14.0	955.0	2.0	Outcome1	10.9	6.71	0.0	No	n/a	4.1925254813137	n/a	n/a	n/a	ShowChoice	Loss
55.7	1.0	0.012	131.137	4.0	1	10.9	3.36	14.0	955.0	2.0	Outcome1	10.9	6.71	0.0	No	n/a	4.1925254813137	n/a	n/a	n/a	ShowResult	Loss
56.72	2.011	0.02	132.157	4.0	1	10.9	3.36	14.0	955.0	2.0	Outcome1	10.9	6.71	0.0	No	n/a	4.1925254813137	n/a	n/a	n/a	ISITrial	Loss
58.759	3.0	0.028	134.196	5.0	1	10.8	5.4	15.35	955.0	3.16	Outcome1	10.8	11.7	2.5825	Yes	2.0	-0.9049641374103442	1.393	60.152	n/a	GetAnswer	Loss
60.18	4.0	0.028	135.617	5.0	1	10.8	5.4	15.35	955.0	3.16	Outcome1	10.8	11.7	2.5825	Yes	n/a	-0.9049641374103442	n/a	n/a	n/a	ShowChoice	Loss
64.192	1.0	0.012	139.629	5.0	1	10.8	5.4	15.35	955.0	3.16	Outcome1	10.8	11.7	2.5825	Yes	n/a	-0.9049641374103442	n/a	n/a	n/a	ShowResult	Loss
65.212	5.129	0.02	140.649	5.0	1	10.8	5.4	15.35	955.0	3.16	Outcome1	10.8	11.7	2.5825	Yes	n/a	-0.9049641374103442	n/a	n/a	n/a	ISITrial	Loss
70.36	2.582	0.019	145.797	5.0	1	10.8	5.4	15.35	955.0	3.16	Outcome1	10.8	11.7	2.5825	Yes	n/a	-0.9049641374103442	n/a	n/a	n/a	TrialHappPreview	Loss
72.968	4.012	0.026	148.405	5.0	1	10.8	5.4	15.35	955.0	3.16	Outcome1	10.8	11.7	2.5825	Yes	n/a	-0.9049641374103442	n/a	n/a	768.0	TrialHappiness	Loss
72.969	2.548	n/a	148.44	5.0	1	10.8	5.4	15.35	955.0	3.16	Outcome1	10.8	11.7	2.5825	Yes	n/a	-0.9049641374103442	n/a	n/a	768.0	TrialHappinessSliderResponse	Loss
76.98	2.33	4.012	152.417	5.0	1	10.8	5.4	15.35	955.0	3.16	Outcome1	10.8	11.7	2.5825	Yes	n/a	-0.9049641374103442	n/a	n/a	n/a	ISIRate	Loss
79.337	3.0	0.027	154.774	6.0	1	7.7	1.66	16.3125	955.0	3.16	Outcome1	7.7	3.32	0.0	No	2.0	4.38052095130238	1.512	80.849	n/a	GetAnswer	Gain
80.875	4.0	0.026	156.312	6.0	1	7.7	1.66	16.3125	955.0	3.16	Outcome1	7.7	3.32	0.0	No	n/a	4.38052095130238	n/a	n/a	n/a	ShowChoice	Gain
84.887	1.0	0.012	160.324	6.0	1	7.7	1.66	16.3125	955.0	3.16	Outcome1	7.7	3.32	0.0	No	n/a	4.38052095130238	n/a	n/a	n/a	ShowResult	Gain
85.907	6.232	0.02	161.344	6.0	1	7.7	1.66	16.3125	955.0	3.16	Outcome1	7.7	3.32	0.0	No	n/a	4.38052095130238	n/a	n/a	n/a	ISITrial	Gain
92.159	3.0	0.02	167.596	7.0	1	12.3	3.86	17.85	955.0	5.0	Outcome2	7.71	12.3	0.0	No	2.0	4.59229898074745	0.932	93.091	n/a	GetAnswer	Loss
93.112	4.0	0.021	168.549	7.0	1	12.3	3.86	17.85	955.0	5.0	Outcome2	7.71	12.3	0.0	No	n/a	4.59229898074745	n/a	n/a	n/a	ShowChoice	Loss
97.124	1.0	0.012	172.561	7.0	1	12.3	3.86	17.85	955.0	5.0	Outcome2	7.71	12.3	0.0	No	n/a	4.59229898074745	n/a	n/a	n/a	ShowResult	Loss
98.144	2.305	0.02	173.581	7.0	1	12.3	3.86	17.85	955.0	5.0	Outcome2	7.71	12.3	0.0	No	n/a	4.59229898074745	n/a	n/a	n/a	ISITrial	Loss
100.467	3.0	0.018	175.904	8.0	1	8.7	1.95	18.9375	955.0	1.82	Outcome1	8.7	3.9	3.1125	Yes	2.0	4.80407701019253	1.002	101.469	n/a	GetAnswer	Gain
101.487	4.0	0.018	176.924	8.0	1	8.7	1.95	18.9375	955.0	1.82	Outcome1	8.7	3.9	3.1125	Yes	n/a	4.80407701019253	n/a	n/a	n/a	ShowChoice	Gain
105.499	1.0	0.012	180.936	8.0	1	8.7	1.95	18.9375	955.0	1.82	Outcome1	8.7	3.9	3.1125	Yes	n/a	4.80407701019253	n/a	n/a	n/a	ShowResult	Gain
106.519	3.506	0.02	181.956	8.0	1	8.7	1.95	18.9375	955.0	1.82	Outcome1	8.7	3.9	3.1125	Yes	n/a	4.80407701019253	n/a	n/a	n/a	ISITrial	Gain
110.046	3.112	0.021	185.483	8.0	1	8.7	1.95	18.9375	955.0	1.82	Outcome1	8.7	3.9	3.1125	Yes	n/a	4.80407701019253	n/a	n/a	n/a	TrialHappPreview	Gain
113.172	4.012	0.014	188.609	8.0	1	8.7	1.95	18.9375	955.0	1.82	Outcome1	8.7	3.9	3.1125	Yes	n/a	4.80407701019253	n/a	n/a	832.0	TrialHappiness	Gain
113.173	1.229	n/a	188.959	8.0	1	8.7	1.95	18.9375	955.0	1.82	Outcome1	8.7	3.9	3.1125	Yes	n/a	4.80407701019253	n/a	n/a	832.0	TrialHappinessSliderResponse	Gain
117.184	4.45	4.012	192.621	8.0	1	8.7	1.95	18.9375	955.0	1.82	Outcome1	8.7	3.9	3.1125	Yes	n/a	4.80407701019253	n/a	n/a	n/a	ISIRate	Gain
121.664	3.0	0.03	197.101	9.0	1	-1.0	-1.0	18.8125	955.0	0.3	Certain	0.7	-3.23	0.0	No	4.0	3.9286523216308	1.972	123.636	n/a	GetAnswer	Mixed
123.653	4.0	0.017	199.09	9.0	1	-1.0	-1.0	18.8125	955.0	0.3	Certain	0.7	-3.23	0.0	No	n/a	3.9286523216308	n/a	n/a	n/a	ShowChoice	Mixed
127.665	1.0	0.012	203.102	9.0	1	-1.0	-1.0	18.8125	955.0	0.3	Certain	0.7	-3.23	0.0	No	n/a	3.9286523216308	n/a	n/a	n/a	ShowResult	Mixed
128.685	2.0	0.02	204.122	9.0	1	-1.0	-1.0	18.8125	955.0	0.3	Certain	0.7	-3.23	0.0	No	n/a	3.9286523216308	n/a	n/a	n/a	ISITrial	Mixed
130.708	3.0	0.023	206.145	10.0	1	3.44	1.72	19.2425	955.0	1.5	Outcome1	3.44	4.1	4.0	Yes	2.0	-0.6640241600604	1.573	132.281	n/a	GetAnswer	Mixed
132.296	4.0	0.015	207.733	10.0	1	3.44	1.72	19.2425	955.0	1.5	Outcome1	3.44	4.1	4.0	Yes	n/a	-0.6640241600604	n/a	n/a	n/a	ShowChoice	Mixed
136.308	1.0	0.012	211.745	10.0	1	3.44	1.72	19.2425	955.0	1.5	Outcome1	3.44	4.1	4.0	Yes	n/a	-0.6640241600604	n/a	n/a	n/a	ShowResult	Mixed
137.328	2.0	0.02	212.765	10.0	1	3.44	1.72	19.2425	955.0	1.5	Outcome1	3.44	4.1	4.0	Yes	n/a	-0.6640241600604	n/a	n/a	n/a	ISITrial	Mixed
139.35	4.0	0.022	214.787	10.0	1	3.44	1.72	19.2425	955.0	1.5	Outcome1	3.44	4.1	4.0	Yes	n/a	-0.6640241600604	n/a	n/a	n/a	TrialHappPreview	Mixed
143.379	4.012	0.029	218.816	10.0	1	3.44	1.72	19.2425	955.0	1.5	Outcome1	3.44	4.1	4.0	Yes	n/a	-0.6640241600604	n/a	n/a	800.0	TrialHappiness	Mixed
143.38	3.189	n/a	219.113	10.0	1	3.44	1.72	19.2425	955.0	1.5	Outcome1	3.44	4.1	4.0	Yes	n/a	-0.6640241600604	n/a	n/a	800.0	TrialHappinessSliderResponse	Mixed
147.391	8.0	4.012	222.828	10.0	1	3.44	1.72	19.2425	955.0	1.5	Outcome1	3.44	4.1	4.0	Yes	n/a	-0.6640241600604	n/a	n/a	n/a	ISIRate	Mixed
155.415	3.0	0.024	230.852	11.0	1	8.1	1.68	20.255	955.0	4.2	Outcome1	8.1	3.35	0.0	No	2.0	4.750849377123441	0.979	156.394	n/a	GetAnswer	Gain
156.418	4.0	0.024	231.855	11.0	1	8.1	1.68	20.255	955.0	4.2	Outcome1	8.1	3.35	0.0	No	n/a	4.750849377123441	n/a	n/a	n/a	ShowChoice	Gain
160.43	1.0	0.012	235.867	11.0	1	8.1	1.68	20.255	955.0	4.2	Outcome1	8.1	3.35	0.0	No	n/a	4.750849377123441	n/a	n/a	n/a	ShowResult	Gain
161.45	3.324	0.02	236.887	11.0	1	8.1	1.68	20.255	955.0	4.2	Outcome1	8.1	3.35	0.0	No	n/a	4.750849377123441	n/a	n/a	n/a	ISITrial	Gain
164.793	3.0	0.019	240.23	12.0	1	-1.0	-1.0	20.13	955.0	0.3	Certain	-1.3	-2.12	2.61875	Yes	4.0	-0.820120800302001	1.949	166.742	n/a	GetAnswer	Mixed
166.766	4.0	0.024	242.203	12.0	1	-1.0	-1.0	20.13	955.0	0.3	Certain	-1.3	-2.12	2.61875	Yes	n/a	-0.820120800302001	n/a	n/a	n/a	ShowChoice	Mixed
170.778	1.0	0.012	246.215	12.0	1	-1.0	-1.0	20.13	955.0	0.3	Certain	-1.3	-2.12	2.61875	Yes	n/a	-0.820120800302001	n/a	n/a	n/a	ShowResult	Mixed
171.797	6.642	0.019	247.234	12.0	1	-1.0	-1.0	20.13	955.0	0.3	Certain	-1.3	-2.12	2.61875	Yes	n/a	-0.820120800302001	n/a	n/a	n/a	ISITrial	Mixed
178.451	2.619	0.012	253.888	12.0	1	-1.0	-1.0	20.13	955.0	0.3	Certain	-1.3	-2.12	2.61875	Yes	n/a	-0.820120800302001	n/a	n/a	n/a	TrialHappPreview	Mixed
181.092	4.012	0.022	256.529	12.0	1	-1.0	-1.0	20.13	955.0	0.3	Certain	-1.3	-2.12	2.61875	Yes	2{-2}2{-2}2{-2}2{-2}4{-4}2{-2}	-0.820120800302001	2.983	184.075	796.0	TrialHappiness	Mixed
181.093	2.645	n/a	256.868	12.0	1	-1.0	-1.0	20.13	955.0	0.3	Certain	-1.3	-2.12	2.61875	Yes	n/a	-0.820120800302001	n/a	n/a	796.0	TrialHappinessSliderResponse	Mixed
185.104	2.475	4.012	260.541	12.0	1	-1.0	-1.0	20.13	955.0	0.3	Certain	-1.3	-2.12	2.61875	Yes	n/a	-0.820120800302001	n/a	n/a	n/a	ISIRate	Mixed
187.595	3.0	0.016	263.032	13.0	1	13.05	6.52	21.7612	955.0	3.6	Outcome2	13.9	13.05	0.0	No	2.0	-0.850981502453756	1.39	188.985	n/a	GetAnswer	Loss
188.999	4.0	0.014	264.436	13.0	1	13.05	6.52	21.7612	955.0	3.6	Outcome2	13.9	13.05	0.0	No	n/a	-0.850981502453756	n/a	n/a	n/a	ShowChoice	Loss
193.011	1.0	0.012	268.448	13.0	1	13.05	6.52	21.7612	955.0	3.6	Outcome2	13.9	13.05	0.0	No	n/a	-0.850981502453756	n/a	n/a	n/a	ShowResult	Loss
194.031	3.48	0.02	269.468	13.0	1	13.05	6.52	21.7612	955.0	3.6	Outcome2	13.9	13.05	0.0	No	n/a	-0.850981502453756	n/a	n/a	n/a	ISITrial	Loss
197.541	3.0	0.03	272.978	14.0	1	12.9	3.78	23.3737	955.0	2.0	Outcome2	7.55	12.9	0.0	No	2.0	5.34994337485844	1.202	198.743	n/a	GetAnswer	Loss
198.761	4.0	0.018	274.198	14.0	1	12.9	3.78	23.3737	955.0	2.0	Outcome2	7.55	12.9	0.0	No	n/a	5.34994337485844	n/a	n/a	n/a	ShowChoice	Loss
202.773	1.0	0.012	278.21	14.0	1	12.9	3.78	23.3737	955.0	2.0	Outcome2	7.55	12.9	0.0	No	n/a	5.34994337485844	n/a	n/a	n/a	ShowResult	Loss
203.793	5.019	0.02	279.23	14.0	1	12.9	3.78	23.3737	955.0	2.0	Outcome2	7.55	12.9	0.0	No	n/a	5.34994337485844	n/a	n/a	n/a	ISITrial	Loss
208.842	3.0	0.03	284.279	15.0	1	0.9	-2.0	23.4862	955.0	0.4	Outcome2	-4.63	0.9	3.3485	Yes	2.0	5.53001132502831	2.71	211.552	n/a	GetAnswer	Mixed
211.566	4.0	0.014	287.003	15.0	1	0.9	-2.0	23.4862	955.0	0.4	Outcome2	-4.63	0.9	3.3485	Yes	n/a	5.53001132502831	n/a	n/a	n/a	ShowChoice	Mixed
215.578	1.0	0.012	291.015	15.0	1	0.9	-2.0	23.4862	955.0	0.4	Outcome2	-4.63	0.9	3.3485	Yes	n/a	5.53001132502831	n/a	n/a	n/a	ShowResult	Mixed
216.598	7.614	0.02	292.035	15.0	1	0.9	-2.0	23.4862	955.0	0.4	Outcome2	-4.63	0.9	3.3485	Yes	n/a	5.53001132502831	n/a	n/a	n/a	ISITrial	Mixed
224.238	3.348	0.026	299.675	15.0	1	0.9	-2.0	23.4862	955.0	0.4	Outcome2	-4.63	0.9	3.3485	Yes	n/a	5.53001132502831	n/a	n/a	n/a	TrialHappPreview	Mixed
227.615	4.012	0.029	303.052	15.0	1	0.9	-2.0	23.4862	955.0	0.4	Outcome2	-4.63	0.9	3.3485	Yes	n/a	5.53001132502831	n/a	n/a	776.0	TrialHappiness	Mixed
227.615	1.383	n/a	303.245	15.0	1	0.9	-2.0	23.4862	955.0	0.4	Outcome2	-4.63	0.9	3.3485	Yes	n/a	5.53001132502831	n/a	n/a	776.0	TrialHappinessSliderResponse	Mixed
231.627	5.394	4.012	307.064	15.0	1	0.9	-2.0	23.4862	955.0	0.4	Outcome2	-4.63	0.9	3.3485	Yes	n/a	5.53001132502831	n/a	n/a	n/a	ISIRate	Mixed
237.043	3.0	0.022	312.48	16.0	1	8.5	1.23	24.5487	955.0	1.68	Outcome2	2.45	8.5	0.0	No	2.0	6.04983012457531	1.523	238.566	n/a	GetAnswer	Gain
238.581	4.0	0.015	314.018	16.0	1	8.5	1.23	24.5487	955.0	1.68	Outcome2	2.45	8.5	0.0	No	n/a	6.04983012457531	n/a	n/a	n/a	ShowChoice	Gain
242.593	1.0	0.012	318.03	16.0	1	8.5	1.23	24.5487	955.0	1.68	Outcome2	2.45	8.5	0.0	No	n/a	6.04983012457531	n/a	n/a	n/a	ShowResult	Gain
243.612	3.008	0.019	319.049	16.0	1	8.5	1.23	24.5487	955.0	1.68	Outcome2	2.45	8.5	0.0	No	n/a	6.04983012457531	n/a	n/a	n/a	ISITrial	Gain
246.638	3.0	0.018	322.075	17.0	1	0.0	0.0	24.5487	955.0	2.0	Certain	-0.69	0.3	3.0415	Yes	4.0	-0.9940543601359	2.638	249.276	n/a	GetAnswer	Mixed
249.296	4.0	0.02	324.733	17.0	1	0.0	0.0	24.5487	955.0	2.0	Certain	-0.69	0.3	3.0415	Yes	n/a	-0.9940543601359	n/a	n/a	n/a	ShowChoice	Mixed
253.308	1.0	0.012	328.745	17.0	1	0.0	0.0	24.5487	955.0	2.0	Certain	-0.69	0.3	3.0415	Yes	n/a	-0.9940543601359	n/a	n/a	n/a	ShowResult	Mixed
254.328	3.566	0.02	329.765	17.0	1	0.0	0.0	24.5487	955.0	2.0	Certain	-0.69	0.3	3.0415	Yes	n/a	-0.9940543601359	n/a	n/a	n/a	ISITrial	Mixed
257.905	3.042	0.011	333.342	17.0	1	0.0	0.0	24.5487	955.0	2.0	Certain	-0.69	0.3	3.0415	Yes	n/a	-0.9940543601359	n/a	n/a	n/a	TrialHappPreview	Mixed
260.964	4.012	0.017	336.401	17.0	1	0.0	0.0	24.5487	955.0	2.0	Certain	-0.69	0.3	3.0415	Yes	2{-2}2{-2}2{-2}2{-2}	-0.9940543601359	3.585	264.549	776.0	TrialHappiness	Mixed
260.965	3.281	n/a	336.706	17.0	1	0.0	0.0	24.5487	955.0	2.0	Certain	-0.69	0.3	3.0415	Yes	n/a	-0.9940543601359	n/a	n/a	776.0	TrialHappinessSliderResponse	Mixed
264.976	4.166	4.012	340.413	17.0	1	0.0	0.0	24.5487	955.0	2.0	Certain	-0.69	0.3	3.0415	Yes	n/a	-0.9940543601359	n/a	n/a	n/a	ISIRate	Mixed
269.172	3.0	0.03	344.609	18.0	1	10.49	5.24	25.8599	955.0	2.8	Outcome2	11.5	10.49	0.0	No	2.0	-1.01094752736882	1.177	270.349	n/a	GetAnswer	Loss
270.376	4.0	0.027	345.813	18.0	1	10.49	5.24	25.8599	955.0	2.8	Outcome2	11.5	10.49	0.0	No	n/a	-1.01094752736882	n/a	n/a	n/a	ShowChoice	Loss
274.388	1.0	0.012	349.825	18.0	1	10.49	5.24	25.8599	955.0	2.8	Outcome2	11.5	10.49	0.0	No	n/a	-1.01094752736882	n/a	n/a	n/a	ShowResult	Loss
275.408	6.787	0.02	350.845	18.0	1	10.49	5.24	25.8599	955.0	2.8	Outcome2	11.5	10.49	0.0	No	n/a	-1.01094752736882	n/a	n/a	n/a	ISITrial	Loss
282.211	3.0	0.016	357.648	19.0	1	1.9	-1.0	26.0974	955.0	1.2	Outcome1	1.9	-4.76	0.0	No	2.0	6.657984144960361	1.715	283.926	n/a	GetAnswer	Mixed
283.95	4.0	0.024	359.387	19.0	1	1.9	-1.0	26.0974	955.0	1.2	Outcome1	1.9	-4.76	0.0	No	n/a	6.657984144960361	n/a	n/a	n/a	ShowChoice	Mixed
287.962	1.0	0.012	363.399	19.0	1	1.9	-1.0	26.0974	955.0	1.2	Outcome1	1.9	-4.76	0.0	No	n/a	6.657984144960361	n/a	n/a	n/a	ShowResult	Mixed
288.982	2.0	0.02	364.419	19.0	1	1.9	-1.0	26.0974	955.0	1.2	Outcome1	1.9	-4.76	0.0	No	n/a	6.657984144960361	n/a	n/a	n/a	ISITrial	Mixed
291.004	3.0	0.022	366.441	20.0	1	-1.5	-5.0	25.9099	955.0	0.2	Outcome1	-1.5	-8.36	2.92125	Yes	2.0	6.86070215175538	2.529	293.533	n/a	GetAnswer	Mixed
293.545	4.0	0.012	368.982	20.0	1	-1.5	-5.0	25.9099	955.0	0.2	Outcome1	-1.5	-8.36	2.92125	Yes	n/a	6.86070215175538	n/a	n/a	n/a	ShowChoice	Mixed
297.557	1.0	0.012	372.994	20.0	1	-1.5	-5.0	25.9099	955.0	0.2	Outcome1	-1.5	-8.36	2.92125	Yes	n/a	6.86070215175538	n/a	n/a	n/a	ShowResult	Mixed
298.577	8.0	0.02	374.014	20.0	1	-1.5	-5.0	25.9099	955.0	0.2	Outcome1	-1.5	-8.36	2.92125	Yes	n/a	6.86070215175538	n/a	n/a	n/a	ISITrial	Mixed
306.601	2.921	0.024	382.038	20.0	1	-1.5	-5.0	25.9099	955.0	0.2	Outcome1	-1.5	-8.36	2.92125	Yes	n/a	6.86070215175538	n/a	n/a	n/a	TrialHappPreview	Mixed
309.543	4.012	0.021	384.98	20.0	1	-1.5	-5.0	25.9099	955.0	0.2	Outcome1	-1.5	-8.36	2.92125	Yes	n/a	6.86070215175538	n/a	n/a	764.0	TrialHappiness	Mixed
309.544	2.239	n/a	385.198	20.0	1	-1.5	-5.0	25.9099	955.0	0.2	Outcome1	-1.5	-8.36	2.92125	Yes	n/a	6.86070215175538	n/a	n/a	764.0	TrialHappinessSliderResponse	Mixed
313.555	3.685	4.012	388.992	20.0	1	-1.5	-5.0	25.9099	955.0	0.2	Outcome1	-1.5	-8.36	2.92125	Yes	n/a	6.86070215175538	n/a	n/a	n/a	ISIRate	Mixed
317.266	3.0	0.026	392.703	21.0	1	9.19	4.6	27.0587	955.0	5.0	Outcome2	10.3	9.19	0.0	No	2.0	-1.1103246508116298	1.553	318.819	n/a	GetAnswer	Gain
318.838	4.0	0.019	394.275	21.0	1	9.19	4.6	27.0587	955.0	5.0	Outcome2	10.3	9.19	0.0	No	n/a	-1.1103246508116298	n/a	n/a	n/a	ShowChoice	Gain
322.85	1.0	0.012	398.287	21.0	1	9.19	4.6	27.0587	955.0	5.0	Outcome2	10.3	9.19	0.0	No	n/a	-1.1103246508116298	n/a	n/a	n/a	ShowResult	Gain
323.869	3.555	0.019	399.306	21.0	1	9.19	4.6	27.0587	955.0	5.0	Outcome2	10.3	9.19	0.0	No	n/a	-1.1103246508116298	n/a	n/a	n/a	ISITrial	Gain
327.447	3.0	0.023	402.884	22.0	1	9.57	4.78	28.2549	955.0	1.82	Outcome1	9.57	10.7	3.2195	Yes	2.0	-1.1283503208758	1.235	328.682	n/a	GetAnswer	Loss
328.7	4.0	0.018	404.137	22.0	1	9.57	4.78	28.2549	955.0	1.82	Outcome1	9.57	10.7	3.2195	Yes	n/a	-1.1283503208758	n/a	n/a	n/a	ShowChoice	Loss
332.712	1.0	0.012	408.149	22.0	1	9.57	4.78	28.2549	955.0	1.82	Outcome1	9.57	10.7	3.2195	Yes	n/a	-1.1283503208758	n/a	n/a	n/a	ShowResult	Loss
333.732	6.793	0.02	409.169	22.0	1	9.57	4.78	28.2549	955.0	1.82	Outcome1	9.57	10.7	3.2195	Yes	n/a	-1.1283503208758	n/a	n/a	n/a	ISITrial	Loss
340.536	3.22	0.011	415.973	22.0	1	9.57	4.78	28.2549	955.0	1.82	Outcome1	9.57	10.7	3.2195	Yes	n/a	-1.1283503208758	n/a	n/a	n/a	TrialHappPreview	Loss
343.779	4.012	0.023	419.216	22.0	1	9.57	4.78	28.2549	955.0	1.82	Outcome1	9.57	10.7	3.2195	Yes	n/a	-1.1283503208758	n/a	n/a	776.0	TrialHappiness	Loss
343.779	0.69	n/a	419.635	22.0	1	9.57	4.78	28.2549	955.0	1.82	Outcome1	9.57	10.7	3.2195	Yes	n/a	-1.1283503208758	n/a	n/a	776.0	TrialHappinessSliderResponse	Loss
347.791	4.878	4.012	423.228	22.0	1	9.57	4.78	28.2549	955.0	1.82	Outcome1	9.57	10.7	3.2195	Yes	n/a	-1.1283503208758	n/a	n/a	n/a	ISIRate	Loss
352.689	3.0	0.02	428.126	23.0	1	5.5	2.0	28.9424	955.0	2.8	Outcome1	5.5	-2.0	0.0	No	2.0	7.496036240090599	1.551	354.24	n/a	GetAnswer	Gain
354.26	4.0	0.02	429.697	23.0	1	5.5	2.0	28.9424	955.0	2.8	Outcome1	5.5	-2.0	0.0	No	n/a	7.496036240090599	n/a	n/a	n/a	ShowChoice	Gain
358.272	1.0	0.012	433.709	23.0	1	5.5	2.0	28.9424	955.0	2.8	Outcome1	5.5	-2.0	0.0	No	n/a	7.496036240090599	n/a	n/a	n/a	ShowResult	Gain
359.292	8.0	0.02	434.729	23.0	1	5.5	2.0	28.9424	955.0	2.8	Outcome1	5.5	-2.0	0.0	No	n/a	7.496036240090599	n/a	n/a	n/a	ISITrial	Gain
367.316	3.0	0.024	442.753	24.0	1	10.1	1.2	30.2049	955.0	4.2	Outcome2	2.4	10.1	3.255	Yes	2.0	7.69875424688562	1.208	368.524	n/a	GetAnswer	Gain
368.553	4.0	0.029	443.99	24.0	1	10.1	1.2	30.2049	955.0	4.2	Outcome2	2.4	10.1	3.255	Yes	n/a	7.69875424688562	n/a	n/a	n/a	ShowChoice	Gain
372.565	1.0	0.012	448.002	24.0	1	10.1	1.2	30.2049	955.0	4.2	Outcome2	2.4	10.1	3.255	Yes	n/a	7.69875424688562	n/a	n/a	n/a	ShowResult	Gain
373.585	2.0	0.02	449.022	24.0	1	10.1	1.2	30.2049	955.0	4.2	Outcome2	2.4	10.1	3.255	Yes	n/a	7.69875424688562	n/a	n/a	n/a	ISITrial	Gain
375.607	3.255	0.022	451.044	24.0	1	10.1	1.2	30.2049	955.0	4.2	Outcome2	2.4	10.1	3.255	Yes	n/a	7.69875424688562	n/a	n/a	n/a	TrialHappPreview	Gain
378.884	4.029	0.022	454.321	24.0	1	10.1	1.2	30.2049	955.0	4.2	Outcome2	2.4	10.1	3.255	Yes	n/a	7.69875424688562	n/a	n/a	760.0	TrialHappiness	Gain
378.885	3.567	n/a	454.661	24.0	1	10.1	1.2	30.2049	955.0	4.2	Outcome2	2.4	10.1	3.255	Yes	n/a	7.69875424688562	n/a	n/a	760.0	TrialHappinessSliderResponse	Gain
382.913	5.02	4.029	458.35	24.0	1	10.1	1.2	30.2049	955.0	4.2	Outcome2	2.4	10.1	3.255	Yes	n/a	7.69875424688562	n/a	n/a	n/a	ISIRate	Gain
387.961	3.0	0.028	463.398	25.0	1	2.0	2.0	30.4549	955.0	4.2	Certain	-2.07	6.1	0.0	No	4.0	8.17327293318233	2.035	389.996	n/a	GetAnswer	Gain
390.017	4.0	0.021	465.454	25.0	1	2.0	2.0	30.4549	955.0	4.2	Certain	-2.07	6.1	0.0	No	n/a	8.17327293318233	n/a	n/a	n/a	ShowChoice	Gain
394.046	1.0	0.029	469.483	25.0	1	2.0	2.0	30.4549	955.0	4.2	Certain	-2.07	6.1	0.0	No	n/a	8.17327293318233	n/a	n/a	n/a	ShowResult	Gain
395.066	3.749	0.02	470.503	25.0	1	2.0	2.0	30.4549	955.0	4.2	Certain	-2.07	6.1	0.0	No	n/a	8.17327293318233	n/a	n/a	n/a	ISITrial	Gain
398.844	3.0	0.029	474.281	26.0	1	13.7	2.66	32.1674	955.0	3.16	Outcome1	13.7	5.31	0.0	No	2.0	8.39411098527746	1.061	399.905	n/a	GetAnswer	Loss
399.93	4.0	0.025	475.367	26.0	1	13.7	2.66	32.1674	955.0	3.16	Outcome1	13.7	5.31	0.0	No	n/a	8.39411098527746	n/a	n/a	n/a	ShowChoice	Loss
403.959	1.0	0.029	479.396	26.0	1	13.7	2.66	32.1674	955.0	3.16	Outcome1	13.7	5.31	0.0	No	n/a	8.39411098527746	n/a	n/a	n/a	ShowResult	Loss
404.979	7.834	0.02	480.416	26.0	1	13.7	2.66	32.1674	955.0	3.16	Outcome1	13.7	5.31	0.0	No	n/a	8.39411098527746	n/a	n/a	n/a	ISITrial	Loss
412.836	3.0	0.023	488.273	27.0	1	11.47	5.74	33.6012	955.0	1.82	Outcome2	12.7	11.47	2.54975	Yes	2.0	-1.23320120800302	1.274	414.11	n/a	GetAnswer	Loss
414.139	4.0	0.029	489.576	27.0	1	11.47	5.74	33.6012	955.0	1.82	Outcome2	12.7	11.47	2.54975	Yes	n/a	-1.23320120800302	n/a	n/a	n/a	ShowChoice	Loss
418.168	1.0	0.029	493.605	27.0	1	11.47	5.74	33.6012	955.0	1.82	Outcome2	12.7	11.47	2.54975	Yes	n/a	-1.23320120800302	n/a	n/a	n/a	ShowResult	Loss
419.188	4.225	0.02	494.625	27.0	1	11.47	5.74	33.6012	955.0	1.82	Outcome2	12.7	11.47	2.54975	Yes	n/a	-1.23320120800302	n/a	n/a	n/a	ISITrial	Loss
423.434	2.55	0.021	498.871	27.0	1	11.47	5.74	33.6012	955.0	1.82	Outcome2	12.7	11.47	2.54975	Yes	n/a	-1.23320120800302	n/a	n/a	n/a	TrialHappPreview	Loss
426.008	4.029	0.024	501.445	27.0	1	11.47	5.74	33.6012	955.0	1.82	Outcome2	12.7	11.47	2.54975	Yes	n/a	-1.23320120800302	n/a	n/a	784.0	TrialHappiness	Loss
426.009	1.776	n/a	501.767	27.0	1	11.47	5.74	33.6012	955.0	1.82	Outcome2	12.7	11.47	2.54975	Yes	n/a	-1.23320120800302	n/a	n/a	784.0	TrialHappinessSliderResponse	Loss
430.037	2.199	4.029	505.474	27.0	1	11.47	5.74	33.6012	955.0	1.82	Outcome2	12.7	11.47	2.54975	Yes	n/a	-1.23320120800302	n/a	n/a	n/a	ISIRate	Loss
528.298	1.426	n/a	606.091	n/a	1	n/a	n/a	n/a	n/a	n/a	n/a	n/a	n/a	n/a	n/a	n/a	n/a	n/a	n/a	704.0	BlockStartHappinessSliderResponse	n/a
-106.352	-0.001	0.024	507.697	n/a	2	n/a	n/a	n/a	n/a	n/a	n/a	n/a	n/a	n/a	n/a	{SPACE}	n/a	92.01	-14.342	n/a	Rest	n/a
-14.326	4.0	0.016	599.723	n/a	2	n/a	n/a	n/a	n/a	n/a	n/a	n/a	n/a	n/a	n/a	n/a	n/a	n/a	n/a	n/a	BlockHappyPreview	n/a
-10.314	3.782	0.012	603.735	n/a	2	n/a	n/a	n/a	n/a	n/a	n/a	n/a	n/a	n/a	n/a	n/a	n/a	n/a	n/a	704.0	BlockStartHappiness	n/a
-2.073	-0.001	0.013	611.976	n/a	2	n/a	n/a	n/a	n/a	n/a	n/a	n/a	n/a	n/a	n/a	5.0	n/a	2.054	-0.019	n/a	ScanWait	n/a
0.0	10.0	0.019	614.049	n/a	2	n/a	n/a	n/a	n/a	n/a	n/a	n/a	n/a	n/a	n/a	n/a	n/a	n/a	n/a	n/a	GetReady	n/a
10.03	3.0	0.03	624.079	28.0	2	-11.68	-6.0	32.1412	70.0	0.52	Outcome1	-11.68	-0.9	0.0	No	2.0	-10.7823129251701	2.582	12.612	n/a	GetAnswer	Mixed
12.638	4.0	0.026	626.687	28.0	2	-11.68	-6.0	32.1412	70.0	0.52	Outcome1	-11.68	-0.9	0.0	No	n/a	-10.7823129251701	n/a	n/a	n/a	ShowChoice	Mixed
16.65	1.0	0.012	630.699	28.0	2	-11.68	-6.0	32.1412	70.0	0.52	Outcome1	-11.68	-0.9	0.0	No	n/a	-10.7823129251701	n/a	n/a	n/a	ShowResult	Mixed
17.67	3.575	0.02	631.719	28.0	2	-11.68	-6.0	32.1412	70.0	0.52	Outcome1	-11.68	-0.9	0.0	No	n/a	-10.7823129251701	n/a	n/a	n/a	ISITrial	Mixed
21.264	3.0	0.019	635.313	29.0	2	0.0	0.0	32.1412	70.0	0.4	Certain	-1.92	0.72	3.529	Yes	4.0	2.63567649281935	2.076	23.34	n/a	GetAnswer	Mixed
23.353	4.0	0.013	637.402	29.0	2	0.0	0.0	32.1412	70.0	0.4	Certain	-1.92	0.72	3.529	Yes	n/a	2.63567649281935	n/a	n/a	n/a	ShowChoice	Mixed
27.365	1.0	0.012	641.414	29.0	2	0.0	0.0	32.1412	70.0	0.4	Certain	-1.92	0.72	3.529	Yes	n/a	2.63567649281935	n/a	n/a	n/a	ShowResult	Mixed
28.385	3.955	0.02	642.434	29.0	2	0.0	0.0	32.1412	70.0	0.4	Certain	-1.92	0.72	3.529	Yes	n/a	2.63567649281935	n/a	n/a	n/a	ISITrial	Mixed
32.364	3.529	0.024	646.413	29.0	2	0.0	0.0	32.1412	70.0	0.4	Certain	-1.92	0.72	3.529	Yes	n/a	2.63567649281935	n/a	n/a	n/a	TrialHappPreview	Mixed
35.908	4.028	0.015	649.957	29.0	2	0.0	0.0	32.1412	70.0	0.4	Certain	-1.92	0.72	3.529	Yes	n/a	2.63567649281935	n/a	n/a	696.0	TrialHappiness	Mixed
35.908	1.953	n/a	650.212	29.0	2	0.0	0.0	32.1412	70.0	0.4	Certain	-1.92	0.72	3.529	Yes	n/a	2.63567649281935	n/a	n/a	696.0	TrialHappinessSliderResponse	Mixed
39.936	6.116	4.028	653.985	29.0	2	0.0	0.0	32.1412	70.0	0.4	Certain	-1.92	0.72	3.529	Yes	n/a	2.63567649281935	n/a	n/a	n/a	ISIRate	Mixed
46.071	3.0	0.019	660.12	30.0	2	-12.18	-6.0	30.6187	70.0	1.2	Outcome1	-12.18	-0.1	0.0	No	2.0	-12.0839002267574	1.549	47.62	n/a	GetAnswer	Mixed
47.643	4.0	0.023	661.692	30.0	2	-12.18	-6.0	30.6187	70.0	1.2	Outcome1	-12.18	-0.1	0.0	No	n/a	-12.0839002267574	n/a	n/a	n/a	ShowChoice	Mixed
51.671	1.0	0.028	665.72	30.0	2	-12.18	-6.0	30.6187	70.0	1.2	Outcome1	-12.18	-0.1	0.0	No	n/a	-12.0839002267574	n/a	n/a	n/a	ShowResult	Mixed
52.691	4.453	0.02	666.74	30.0	2	-12.18	-6.0	30.6187	70.0	1.2	Outcome1	-12.18	-0.1	0.0	No	n/a	-12.0839002267574	n/a	n/a	n/a	ISITrial	Mixed
57.171	3.0	0.027	671.22	31.0	2	0.31	0.16	30.6575	70.0	2.22	Outcome2	13.1	0.31	2.50325	Yes	2.0	-12.7936507936508	1.534	58.705	n/a	GetAnswer	Loss
58.726	4.0	0.021	672.775	31.0	2	0.31	0.16	30.6575	70.0	2.22	Outcome2	13.1	0.31	2.50325	Yes	n/a	-12.7936507936508	n/a	n/a	n/a	ShowChoice	Loss
62.738	1.0	0.012	676.787	31.0	2	0.31	0.16	30.6575	70.0	2.22	Outcome2	13.1	0.31	2.50325	Yes	n/a	-12.7936507936508	n/a	n/a	n/a	ShowResult	Loss
63.758	4.786	0.02	677.807	31.0	2	0.31	0.16	30.6575	70.0	2.22	Outcome2	13.1	0.31	2.50325	Yes	n/a	-12.7936507936508	n/a	n/a	n/a	ISITrial	Loss
68.572	2.503	0.028	682.621	31.0	2	0.31	0.16	30.6575	70.0	2.22	Outcome2	13.1	0.31	2.50325	Yes	n/a	-12.7936507936508	n/a	n/a	n/a	TrialHappPreview	Loss
71.096	4.012	0.021	685.145	31.0	2	0.31	0.16	30.6575	70.0	2.22	Outcome2	13.1	0.31	2.50325	Yes	n/a	-12.7936507936508	n/a	n/a	720.0	TrialHappiness	Loss
71.097	2.076	n/a	685.618	31.0	2	0.31	0.16	30.6575	70.0	2.22	Outcome2	13.1	0.31	2.50325	Yes	n/a	-12.7936507936508	n/a	n/a	720.0	TrialHappinessSliderResponse	Loss
75.108	2.013	4.012	689.157	31.0	2	0.31	0.16	30.6575	70.0	2.22	Outcome2	13.1	0.31	2.50325	Yes	n/a	-12.7936507936508	n/a	n/a	n/a	ISIRate	Loss
77.148	3.0	0.027	691.197	32.0	2	2.98	1.0	31.03	70.0	3.6	Outcome1	2.98	0.1	0.0	No	2.0	2.87887377173091	1.285	78.433	n/a	GetAnswer	Loss
78.452	4.0	0.019	692.501	32.0	2	2.98	1.0	31.03	70.0	3.6	Outcome1	2.98	0.1	0.0	No	n/a	2.87887377173091	n/a	n/a	n/a	ShowChoice	Loss
82.464	1.0	0.012	696.513	32.0	2	2.98	1.0	31.03	70.0	3.6	Outcome1	2.98	0.1	0.0	No	n/a	2.87887377173091	n/a	n/a	n/a	ShowResult	Loss
83.483	2.0	0.019	697.532	32.0	2	2.98	1.0	31.03	70.0	3.6	Outcome1	2.98	0.1	0.0	No	n/a	2.87887377173091	n/a	n/a	n/a	ISITrial	Loss
85.506	3.0	0.023	699.555	33.0	2	-14.55	-7.0	29.2112	70.0	1.5	Outcome2	0.1	-14.55	0.0	No	2.0	-14.6485260770975	1.739	87.245	n/a	GetAnswer	Mixed
87.261	4.0	0.016	701.31	33.0	2	-14.55	-7.0	29.2112	70.0	1.5	Outcome2	0.1	-14.55	0.0	No	n/a	-14.6485260770975	n/a	n/a	n/a	ShowChoice	Mixed
91.273	1.0	0.012	705.322	33.0	2	-14.55	-7.0	29.2112	70.0	1.5	Outcome2	0.1	-14.55	0.0	No	n/a	-14.6485260770975	n/a	n/a	n/a	ShowResult	Mixed
92.293	5.099	0.02	706.342	33.0	2	-14.55	-7.0	29.2112	70.0	1.5	Outcome2	0.1	-14.55	0.0	No	n/a	-14.6485260770975	n/a	n/a	n/a	ISITrial	Mixed
97.408	3.0	0.016	711.457	34.0	2	1.0	1.0	29.3362	70.0	3.6	Certain	-0.52	2.48	3.2315	Yes	4.0	3.0017006802721102	2.688	100.096	n/a	GetAnswer	Gain
100.116	4.0	0.02	714.165	34.0	2	1.0	1.0	29.3362	70.0	3.6	Certain	-0.52	2.48	3.2315	Yes	n/a	3.0017006802721102	n/a	n/a	n/a	ShowChoice	Gain
104.128	1.0	0.012	718.177	34.0	2	1.0	1.0	29.3362	70.0	3.6	Certain	-0.52	2.48	3.2315	Yes	n/a	3.0017006802721102	n/a	n/a	n/a	ShowResult	Gain
105.148	4.784	0.02	719.197	34.0	2	1.0	1.0	29.3362	70.0	3.6	Certain	-0.52	2.48	3.2315	Yes	n/a	3.0017006802721102	n/a	n/a	n/a	ISITrial	Gain
109.946	3.232	0.014	723.995	34.0	2	1.0	1.0	29.3362	70.0	3.6	Certain	-0.52	2.48	3.2315	Yes	n/a	3.0017006802721102	n/a	n/a	n/a	TrialHappPreview	Gain
113.206	4.012	0.028	727.255	34.0	2	1.0	1.0	29.3362	70.0	3.6	Certain	-0.52	2.48	3.2315	Yes	n/a	3.0017006802721102	n/a	n/a	600.0	TrialHappiness	Gain
113.206	0.322	n/a	727.674	34.0	2	1.0	1.0	29.3362	70.0	3.6	Certain	-0.52	2.48	3.2315	Yes	n/a	3.0017006802721102	n/a	n/a	600.0	TrialHappinessSliderResponse	Gain
117.218	4.926	4.012	731.267	34.0	2	1.0	1.0	29.3362	70.0	3.6	Certain	-0.52	2.48	3.2315	Yes	n/a	3.0017006802721102	n/a	n/a	n/a	ISIRate	Gain
122.166	3.0	0.022	736.215	35.0	2	-7.38	0.0	28.4137	70.0	1.82	Outcome2	6.7	-7.38	0.0	No	2.0	-14.0816326530612	2.021	124.187	n/a	GetAnswer	Gain
124.205	4.0	0.018	738.254	35.0	2	-7.38	0.0	28.4137	70.0	1.82	Outcome2	6.7	-7.38	0.0	No	n/a	-14.0816326530612	n/a	n/a	n/a	ShowChoice	Gain
128.217	1.0	0.012	742.266	35.0	2	-7.38	0.0	28.4137	70.0	1.82	Outcome2	6.7	-7.38	0.0	No	n/a	-14.0816326530612	n/a	n/a	n/a	ShowResult	Gain
129.237	2.098	0.02	743.286	35.0	2	-7.38	0.0	28.4137	70.0	1.82	Outcome2	6.7	-7.38	0.0	No	n/a	-14.0816326530612	n/a	n/a	n/a	ISITrial	Gain
131.36	3.0	0.025	745.409	36.0	2	1.82	0.0	28.6412	70.0	2.48	Outcome2	-0.81	1.82	3.33575	Yes	2.0	2.62566137566138	2.063	133.423	n/a	GetAnswer	Gain
133.45	4.0	0.027	747.499	36.0	2	1.82	0.0	28.6412	70.0	2.48	Outcome2	-0.81	1.82	3.33575	Yes	n/a	2.62566137566138	n/a	n/a	n/a	ShowChoice	Gain
137.462	1.0	0.012	751.511	36.0	2	1.82	0.0	28.6412	70.0	2.48	Outcome2	-0.81	1.82	3.33575	Yes	n/a	2.62566137566138	n/a	n/a	n/a	ShowResult	Gain
138.481	5.156	0.019	752.53	36.0	2	1.82	0.0	28.6412	70.0	2.48	Outcome2	-0.81	1.82	3.33575	Yes	n/a	2.62566137566138	n/a	n/a	n/a	ISITrial	Gain
143.663	3.336	0.026	757.712	36.0	2	1.82	0.0	28.6412	70.0	2.48	Outcome2	-0.81	1.82	3.33575	Yes	n/a	2.62566137566138	n/a	n/a	n/a	TrialHappPreview	Gain
147.024	4.012	0.025	761.073	36.0	2	1.82	0.0	28.6412	70.0	2.48	Outcome2	-0.81	1.82	3.33575	Yes	n/a	2.62566137566138	n/a	n/a	616.0	TrialHappiness	Gain
147.024	2.535	n/a	761.52	36.0	2	1.82	0.0	28.6412	70.0	2.48	Outcome2	-0.81	1.82	3.33575	Yes	n/a	2.62566137566138	n/a	n/a	616.0	TrialHappinessSliderResponse	Gain
151.036	5.343	4.012	765.085	36.0	2	1.82	0.0	28.6412	70.0	2.48	Outcome2	-0.81	1.82	3.33575	Yes	n/a	2.62566137566138	n/a	n/a	n/a	ISIRate	Gain
156.402	3.0	0.023	770.451	37.0	2	2.78	1.0	28.9887	70.0	2.22	Outcome2	0.04	2.78	0.0	No	2.0	2.7407407407407405	1.178	157.58	n/a	GetAnswer	Loss
157.605	4.0	0.025	771.654	37.0	2	2.78	1.0	28.9887	70.0	2.22	Outcome2	0.04	2.78	0.0	No	n/a	2.7407407407407405	n/a	n/a	n/a	ShowChoice	Loss
161.617	1.0	0.012	775.666	37.0	2	2.78	1.0	28.9887	70.0	2.22	Outcome2	0.04	2.78	0.0	No	n/a	2.7407407407407405	n/a	n/a	n/a	ShowResult	Loss
162.637	3.598	0.02	776.686	37.0	2	2.78	1.0	28.9887	70.0	2.22	Outcome2	0.04	2.78	0.0	No	n/a	2.7407407407407405	n/a	n/a	n/a	ISITrial	Loss
166.264	3.0	0.029	780.313	38.0	2	0.0	0.0	28.9887	70.0	2.0	Certain	1.23	-1.56	0.0	No	4.0	2.79232804232804	2.307	168.571	n/a	GetAnswer	Gain
168.588	4.0	0.017	782.637	38.0	2	0.0	0.0	28.9887	70.0	2.0	Certain	1.23	-1.56	0.0	No	n/a	2.79232804232804	n/a	n/a	n/a	ShowChoice	Gain
172.6	1.0	0.012	786.649	38.0	2	0.0	0.0	28.9887	70.0	2.0	Certain	1.23	-1.56	0.0	No	n/a	2.79232804232804	n/a	n/a	n/a	ShowResult	Gain
173.62	4.787	0.02	787.669	38.0	2	0.0	0.0	28.9887	70.0	2.0	Certain	1.23	-1.56	0.0	No	n/a	2.79232804232804	n/a	n/a	n/a	ISITrial	Gain
178.434	3.0	0.027	792.483	39.0	2	-7.29	1.0	28.0775	70.0	2.8	Outcome2	9.5	-7.29	2.86425	Yes	2.0	-16.7936507936508	2.5	180.934	n/a	GetAnswer	Gain
180.958	4.0	0.024	795.007	39.0	2	-7.29	1.0	28.0775	70.0	2.8	Outcome2	9.5	-7.29	2.86425	Yes	n/a	-16.7936507936508	n/a	n/a	n/a	ShowChoice	Gain
184.97	1.0	0.012	799.019	39.0	2	-7.29	1.0	28.0775	70.0	2.8	Outcome2	9.5	-7.29	2.86425	Yes	n/a	-16.7936507936508	n/a	n/a	n/a	ShowResult	Gain
185.99	2.348	0.02	800.039	39.0	2	-7.29	1.0	28.0775	70.0	2.8	Outcome2	9.5	-7.29	2.86425	Yes	n/a	-16.7936507936508	n/a	n/a	n/a	ISITrial	Gain
188.364	2.864	0.026	802.413	39.0	2	-7.29	1.0	28.0775	70.0	2.8	Outcome2	9.5	-7.29	2.86425	Yes	n/a	-16.7936507936508	n/a	n/a	n/a	TrialHappPreview	Gain
191.256	4.012	0.028	805.305	39.0	2	-7.29	1.0	28.0775	70.0	2.8	Outcome2	9.5	-7.29	2.86425	Yes	n/a	-16.7936507936508	n/a	n/a	604.0	TrialHappiness	Gain
191.257	2.423	n/a	806.827	39.0	2	-7.29	1.0	28.0775	70.0	2.8	Outcome2	9.5	-7.29	2.86425	Yes	n/a	-16.7936507936508	n/a	n/a	604.0	TrialHappinessSliderResponse	Gain
195.268	3.457	4.012	809.317	39.0	2	-7.29	1.0	28.0775	70.0	2.8	Outcome2	9.5	-7.29	2.86425	Yes	n/a	-16.7936507936508	n/a	n/a	n/a	ISIRate	Gain
198.745	3.0	0.02	812.794	40.0	2	-14.91	-6.0	26.2137	70.0	2.0	Outcome1	-14.91	2.3	0.0	No	2.0	-17.2086167800454	2.072	200.817	n/a	GetAnswer	Mixed
200.835	4.0	0.018	814.884	40.0	2	-14.91	-6.0	26.2137	70.0	2.0	Outcome1	-14.91	2.3	0.0	No	n/a	-17.2086167800454	n/a	n/a	n/a	ShowChoice	Mixed
204.847	1.0	0.012	818.896	40.0	2	-14.91	-6.0	26.2137	70.0	2.0	Outcome1	-14.91	2.3	0.0	No	n/a	-17.2086167800454	n/a	n/a	n/a	ShowResult	Mixed
205.866	3.158	0.019	819.915	40.0	2	-14.91	-6.0	26.2137	70.0	2.0	Outcome1	-14.91	2.3	0.0	No	n/a	-17.2086167800454	n/a	n/a	n/a	ISITrial	Mixed
209.042	3.0	0.018	823.091	41.0	2	-13.91	-5.0	24.4749	70.0	1.2	Outcome2	3.9	-13.91	4.0	Yes	2.0	-17.8140589569161	2.0	211.042	n/a	GetAnswer	Mixed
211.065	4.0	0.022	825.114	41.0	2	-13.91	-5.0	24.4749	70.0	1.2	Outcome2	3.9	-13.91	4.0	Yes	n/a	-17.8140589569161	n/a	n/a	n/a	ShowChoice	Mixed
215.077	1.0	0.012	829.126	41.0	2	-13.91	-5.0	24.4749	70.0	1.2	Outcome2	3.9	-13.91	4.0	Yes	n/a	-17.8140589569161	n/a	n/a	n/a	ShowResult	Mixed
216.097	4.506	0.02	830.146	41.0	2	-13.91	-5.0	24.4749	70.0	1.2	Outcome2	3.9	-13.91	4.0	Yes	n/a	-17.8140589569161	n/a	n/a	n/a	ISITrial	Mixed
220.627	4.0	0.024	834.676	41.0	2	-13.91	-5.0	24.4749	70.0	1.2	Outcome2	3.9	-13.91	4.0	Yes	n/a	-17.8140589569161	n/a	n/a	n/a	TrialHappPreview	Mixed
224.656	4.012	0.029	838.705	41.0	2	-13.91	-5.0	24.4749	70.0	1.2	Outcome2	3.9	-13.91	4.0	Yes	n/a	-17.8140589569161	n/a	n/a	484.0	TrialHappiness	Mixed
224.656	2.29	n/a	839.377	41.0	2	-13.91	-5.0	24.4749	70.0	1.2	Outcome2	3.9	-13.91	4.0	Yes	n/a	-17.8140589569161	n/a	n/a	484.0	TrialHappinessSliderResponse	Mixed
228.668	8.0	4.012	842.717	41.0	2	-13.91	-5.0	24.4749	70.0	1.2	Outcome2	3.9	-13.91	4.0	Yes	n/a	-17.8140589569161	n/a	n/a	n/a	ISIRate	Mixed
236.692	3.0	0.024	850.741	42.0	2	2.82	1.0	24.8274	70.0	2.48	Outcome2	0.36	2.82	0.0	No	2.0	2.46012849584278	1.576	238.268	n/a	GetAnswer	Loss
238.28	4.0	0.012	852.329	42.0	2	2.82	1.0	24.8274	70.0	2.48	Outcome2	0.36	2.82	0.0	No	n/a	2.46012849584278	n/a	n/a	n/a	ShowChoice	Loss
242.292	1.0	0.012	856.341	42.0	2	2.82	1.0	24.8274	70.0	2.48	Outcome2	0.36	2.82	0.0	No	n/a	2.46012849584278	n/a	n/a	n/a	ShowResult	Loss
243.312	6.248	0.02	857.361	42.0	2	2.82	1.0	24.8274	70.0	2.48	Outcome2	0.36	2.82	0.0	No	n/a	2.46012849584278	n/a	n/a	n/a	ISITrial	Loss
249.58	3.0	0.02	863.629	43.0	2	-12.35	-4.0	23.2836	70.0	1.68	Outcome2	4.5	-12.35	2.77575	Yes	2.0	-16.8480725623583	1.871	251.451	n/a	GetAnswer	Gain
251.469	4.0	0.018	865.518	43.0	2	-12.35	-4.0	23.2836	70.0	1.68	Outcome2	4.5	-12.35	2.77575	Yes	n/a	-16.8480725623583	n/a	n/a	n/a	ShowChoice	Gain
255.481	1.0	0.012	869.53	43.0	2	-12.35	-4.0	23.2836	70.0	1.68	Outcome2	4.5	-12.35	2.77575	Yes	n/a	-16.8480725623583	n/a	n/a	n/a	ShowResult	Gain
256.501	4.596	0.02	870.55	43.0	2	-12.35	-4.0	23.2836	70.0	1.68	Outcome2	4.5	-12.35	2.77575	Yes	n/a	-16.8480725623583	n/a	n/a	n/a	ISITrial	Gain
261.115	2.776	0.018	875.164	43.0	2	-12.35	-4.0	23.2836	70.0	1.68	Outcome2	4.5	-12.35	2.77575	Yes	n/a	-16.8480725623583	n/a	n/a	n/a	TrialHappPreview	Gain
263.907	4.012	0.016	877.956	43.0	2	-12.35	-4.0	23.2836	70.0	1.68	Outcome2	4.5	-12.35	2.77575	Yes	n/a	-16.8480725623583	n/a	n/a	448.0	TrialHappiness	Gain
263.907	3.193	n/a	878.24	43.0	2	-12.35	-4.0	23.2836	70.0	1.68	Outcome2	4.5	-12.35	2.77575	Yes	n/a	-16.8480725623583	n/a	n/a	448.0	TrialHappinessSliderResponse	Gain
267.919	3.103	4.012	881.968	43.0	2	-12.35	-4.0	23.2836	70.0	1.68	Outcome2	4.5	-12.35	2.77575	Yes	n/a	-16.8480725623583	n/a	n/a	n/a	ISIRate	Gain
271.045	3.0	0.023	885.094	44.0	2	-10.81	-2.0	21.9324	70.0	3.6	Outcome1	-10.81	5.9	0.0	No	2.0	-16.7052154195011	2.152	273.197	n/a	GetAnswer	Gain
273.218	4.0	0.021	887.267	44.0	2	-10.81	-2.0	21.9324	70.0	3.6	Outcome1	-10.81	5.9	0.0	No	n/a	-16.7052154195011	n/a	n/a	n/a	ShowChoice	Gain
277.23	1.0	0.012	891.279	44.0	2	-10.81	-2.0	21.9324	70.0	3.6	Outcome1	-10.81	5.9	0.0	No	n/a	-16.7052154195011	n/a	n/a	n/a	ShowResult	Gain
278.25	2.42	0.02	892.299	44.0	2	-10.81	-2.0	21.9324	70.0	3.6	Outcome1	-10.81	5.9	0.0	No	n/a	-16.7052154195011	n/a	n/a	n/a	ISITrial	Gain
280.69	3.0	0.02	894.739	45.0	2	2.0	2.0	22.1824	70.0	1.68	Certain	-6.63	10.5	0.0	No	4.0	-17.1337868480726	1.098	281.788	n/a	GetAnswer	Loss
281.81	4.0	0.022	895.859	45.0	2	2.0	2.0	22.1824	70.0	1.68	Certain	-6.63	10.5	0.0	No	n/a	-17.1337868480726	n/a	n/a	n/a	ShowChoice	Loss
285.822	1.0	0.012	899.871	45.0	2	2.0	2.0	22.1824	70.0	1.68	Certain	-6.63	10.5	0.0	No	n/a	-17.1337868480726	n/a	n/a	n/a	ShowResult	Loss
286.842	3.144	0.02	900.891	45.0	2	2.0	2.0	22.1824	70.0	1.68	Certain	-6.63	10.5	0.0	No	n/a	-17.1337868480726	n/a	n/a	n/a	ISITrial	Loss
290.001	3.0	0.015	904.05	46.0	2	1.08	0.0	22.3174	70.0	2.0	Outcome1	1.08	-1.38	3.84125	Yes	2.0	2.4635298563870003	2.223	292.224	n/a	GetAnswer	Mixed
292.242	4.0	0.018	906.291	46.0	2	1.08	0.0	22.3174	70.0	2.0	Outcome1	1.08	-1.38	3.84125	Yes	n/a	2.4635298563870003	n/a	n/a	n/a	ShowChoice	Mixed
296.254	1.0	0.012	910.303	46.0	2	1.08	0.0	22.3174	70.0	2.0	Outcome1	1.08	-1.38	3.84125	Yes	n/a	2.4635298563870003	n/a	n/a	n/a	ShowResult	Mixed
297.273	2.246	0.019	911.322	46.0	2	1.08	0.0	22.3174	70.0	2.0	Outcome1	1.08	-1.38	3.84125	Yes	n/a	2.4635298563870003	n/a	n/a	n/a	ISITrial	Mixed
299.53	3.841	0.011	913.579	46.0	2	1.08	0.0	22.3174	70.0	2.0	Outcome1	1.08	-1.38	3.84125	Yes	n/a	2.4635298563870003	n/a	n/a	n/a	TrialHappPreview	Mixed
303.392	4.012	0.021	917.441	46.0	2	1.08	0.0	22.3174	70.0	2.0	Outcome1	1.08	-1.38	3.84125	Yes	n/a	2.4635298563870003	n/a	n/a	512.0	TrialHappiness	Mixed
303.392	0.0	n/a	917.441	46.0	2	1.08	0.0	22.3174	70.0	2.0	Outcome1	1.08	-1.38	3.84125	Yes	n/a	2.4635298563870003	n/a	n/a	512.0	TrialHappinessSliderResponse	Mixed
307.404	7.365	4.012	921.453	46.0	2	1.08	0.0	22.3174	70.0	2.0	Outcome1	1.08	-1.38	3.84125	Yes	n/a	2.4635298563870003	n/a	n/a	n/a	ISIRate	Mixed
314.792	3.0	0.023	928.841	47.0	2	-11.98	-2.0	20.8199	70.0	2.22	Outcome1	-11.98	7.1	0.0	No	2.0	-19.0793650793651	1.521	316.313	n/a	GetAnswer	Gain
316.33	4.0	0.017	930.379	47.0	2	-11.98	-2.0	20.8199	70.0	2.22	Outcome1	-11.98	7.1	0.0	No	n/a	-19.0793650793651	n/a	n/a	n/a	ShowChoice	Gain
320.342	1.0	0.012	934.391	47.0	2	-11.98	-2.0	20.8199	70.0	2.22	Outcome1	-11.98	7.1	0.0	No	n/a	-19.0793650793651	n/a	n/a	n/a	ShowResult	Gain
321.362	2.0	0.02	935.411	47.0	2	-11.98	-2.0	20.8199	70.0	2.22	Outcome1	-11.98	7.1	0.0	No	n/a	-19.0793650793651	n/a	n/a	n/a	ISITrial	Gain
323.385	3.0	0.023	937.434	48.0	2	-8.0	-8.0	19.8199	70.0	0.66	Certain	-18.28	1.3	2.83175	Yes	4.0	-19.5804988662132	1.749	325.134	n/a	GetAnswer	Mixed
325.157	4.0	0.023	939.206	48.0	2	-8.0	-8.0	19.8199	70.0	0.66	Certain	-18.28	1.3	2.83175	Yes	n/a	-19.5804988662132	n/a	n/a	n/a	ShowChoice	Mixed
329.169	1.0	0.012	943.218	48.0	2	-8.0	-8.0	19.8199	70.0	0.66	Certain	-18.28	1.3	2.83175	Yes	n/a	-19.5804988662132	n/a	n/a	n/a	ShowResult	Mixed
330.188	3.692	0.019	944.237	48.0	2	-8.0	-8.0	19.8199	70.0	0.66	Certain	-18.28	1.3	2.83175	Yes	n/a	-19.5804988662132	n/a	n/a	n/a	ISITrial	Mixed
333.9	2.832	0.02	947.949	48.0	2	-8.0	-8.0	19.8199	70.0	0.66	Certain	-18.28	1.3	2.83175	Yes	n/a	-19.5804988662132	n/a	n/a	n/a	TrialHappPreview	Mixed
336.758	4.012	0.026	950.807	48.0	2	-8.0	-8.0	19.8199	70.0	0.66	Certain	-18.28	1.3	2.83175	Yes	n/a	-19.5804988662132	n/a	n/a	372.0	TrialHappiness	Mixed
336.759	1.611	n/a	950.832	48.0	2	-8.0	-8.0	19.8199	70.0	0.66	Certain	-18.28	1.3	2.83175	Yes	n/a	-19.5804988662132	n/a	n/a	372.0	TrialHappinessSliderResponse	Mixed
340.77	3.327	4.012	954.819	48.0	2	-8.0	-8.0	19.8199	70.0	0.66	Certain	-18.28	1.3	2.83175	Yes	n/a	-19.5804988662132	n/a	n/a	n/a	ISIRate	Mixed
344.113	3.0	0.016	958.162	49.0	2	-0.18	-1.0	19.7974	70.0	0.66	Outcome1	-0.18	-2.45	0.0	No	2.0	2.2739984882842	2.96	347.073	n/a	GetAnswer	Mixed
347.089	4.0	0.016	961.138	49.0	2	-0.18	-1.0	19.7974	70.0	0.66	Outcome1	-0.18	-2.45	0.0	No	n/a	2.2739984882842	n/a	n/a	n/a	ShowChoice	Mixed
351.101	1.0	0.012	965.15	49.0	2	-0.18	-1.0	19.7974	70.0	0.66	Outcome1	-0.18	-2.45	0.0	No	n/a	2.2739984882842	n/a	n/a	n/a	ShowResult	Mixed
352.121	8.0	0.02	966.17	49.0	2	-0.18	-1.0	19.7974	70.0	0.66	Outcome1	-0.18	-2.45	0.0	No	n/a	2.2739984882842	n/a	n/a	n/a	ISITrial	Mixed
360.145	3.0	0.024	974.194	50.0	2	-8.34	0.0	18.7549	70.0	3.16	Outcome2	9.7	-8.34	3.54725	Yes	2.0	-18.0430839002268	2.971	363.116	n/a	GetAnswer	Gain
363.137	4.0	0.021	977.186	50.0	2	-8.34	0.0	18.7549	70.0	3.16	Outcome2	9.7	-8.34	3.54725	Yes	n/a	-18.0430839002268	n/a	n/a	n/a	ShowChoice	Gain
367.149	1.0	0.012	981.198	50.0	2	-8.34	0.0	18.7549	70.0	3.16	Outcome2	9.7	-8.34	3.54725	Yes	n/a	-18.0430839002268	n/a	n/a	n/a	ShowResult	Gain
368.169	7.537	0.02	982.218	50.0	2	-8.34	0.0	18.7549	70.0	3.16	Outcome2	9.7	-8.34	3.54725	Yes	n/a	-18.0430839002268	n/a	n/a	n/a	ISITrial	Gain
375.725	3.547	0.019	989.774	50.0	2	-8.34	0.0	18.7549	70.0	3.16	Outcome2	9.7	-8.34	3.54725	Yes	n/a	-18.0430839002268	n/a	n/a	n/a	TrialHappPreview	Gain
379.302	4.012	0.03	993.351	50.0	2	-8.34	0.0	18.7549	70.0	3.16	Outcome2	9.7	-8.34	3.54725	Yes	4{-4}4{-4}	-18.0430839002268	2.911	382.213	404.0	TrialHappiness	Gain
379.303	2.557	n/a	993.706	50.0	2	-8.34	0.0	18.7549	70.0	3.16	Outcome2	9.7	-8.34	3.54725	Yes	n/a	-18.0430839002268	n/a	n/a	404.0	TrialHappinessSliderResponse	Gain
383.314	6.189	4.012	997.363	50.0	2	-8.34	0.0	18.7549	70.0	3.16	Outcome2	9.7	-8.34	3.54725	Yes	n/a	-18.0430839002268	n/a	n/a	n/a	ISIRate	Gain
389.533	3.0	0.03	1003.582	51.0	2	0.0	0.0	18.7549	70.0	2.22	Certain	9.1	-9.83	0.0	No	4.0	-18.9297052154195	2.466	391.999	n/a	GetAnswer	Gain
392.024	4.0	0.025	1006.073	51.0	2	0.0	0.0	18.7549	70.0	2.22	Certain	9.1	-9.83	0.0	No	n/a	-18.9297052154195	n/a	n/a	n/a	ShowChoice	Gain
396.036	1.0	0.012	1010.085	51.0	2	0.0	0.0	18.7549	70.0	2.22	Certain	9.1	-9.83	0.0	No	n/a	-18.9297052154195	n/a	n/a	n/a	ShowResult	Gain
397.055	5.508	0.019	1011.104	51.0	2	0.0	0.0	18.7549	70.0	2.22	Certain	9.1	-9.83	0.0	No	n/a	-18.9297052154195	n/a	n/a	n/a	ISITrial	Gain
402.588	3.0	0.025	1016.637	52.0	2	-19.81	-10.0	16.2786	70.0	0.82	Outcome1	-19.81	-0.5	0.0	No	n/a	-19.3083900226757	n/a	n/a	n/a	GetAnswer	Mixed
405.614	4.0	0.026	1019.663	52.0	2	-19.81	-10.0	16.2786	70.0	0.82	Outcome1	-19.81	-0.5	0.0	No	n/a	-19.3083900226757	n/a	n/a	n/a	ShowChoice	Mixed
409.626	1.0	0.012	1023.675	52.0	2	-19.81	-10.0	16.2786	70.0	0.82	Outcome1	-19.81	-0.5	0.0	No	n/a	-19.3083900226757	n/a	n/a	n/a	ShowResult	Mixed
410.646	5.913	0.02	1024.695	52.0	2	-19.81	-10.0	16.2786	70.0	0.82	Outcome1	-19.81	-0.5	0.0	No	n/a	-19.3083900226757	n/a	n/a	n/a	ISITrial	Mixed
416.58	3.0	0.021	1030.629	53.0	2	-10.39	0.0	14.9798	70.0	2.48	Outcome2	9.3	-10.39	2.99675	Yes	2.0	-19.687074829932	1.964	418.544	n/a	GetAnswer	Gain
418.57	4.0	0.026	1032.619	53.0	2	-10.39	0.0	14.9798	70.0	2.48	Outcome2	9.3	-10.39	2.99675	Yes	n/a	-19.687074829932	n/a	n/a	n/a	ShowChoice	Gain
422.582	1.0	0.012	1036.631	53.0	2	-10.39	0.0	14.9798	70.0	2.48	Outcome2	9.3	-10.39	2.99675	Yes	n/a	-19.687074829932	n/a	n/a	n/a	ShowResult	Gain
423.601	3.66	0.019	1037.65	53.0	2	-10.39	0.0	14.9798	70.0	2.48	Outcome2	9.3	-10.39	2.99675	Yes	n/a	-19.687074829932	n/a	n/a	n/a	ISITrial	Gain
427.279	2.997	0.018	1041.328	53.0	2	-10.39	0.0	14.9798	70.0	2.48	Outcome2	9.3	-10.39	2.99675	Yes	n/a	-19.687074829932	n/a	n/a	n/a	TrialHappPreview	Gain
430.305	4.012	0.029	1044.354	53.0	2	-10.39	0.0	14.9798	70.0	2.48	Outcome2	9.3	-10.39	2.99675	Yes	n/a	-19.687074829932	n/a	n/a	336.0	TrialHappiness	Gain
430.305	0.515	n/a	1044.597	53.0	2	-10.39	0.0	14.9798	70.0	2.48	Outcome2	9.3	-10.39	2.99675	Yes	n/a	-19.687074829932	n/a	n/a	336.0	TrialHappinessSliderResponse	Gain
434.317	3.987	4.012	1048.366	53.0	2	-10.39	0.0	14.9798	70.0	2.48	Outcome2	9.3	-10.39	2.99675	Yes	n/a	-19.687074829932	n/a	n/a	n/a	ISIRate	Gain
438.329	3.0	0.025	1052.378	54.0	2	-17.21	-8.0	12.8286	70.0	1.0	Outcome2	1.7	-17.21	0.0	No	2.0	-18.9092970521542	2.193	440.522	n/a	GetAnswer	Mixed
440.535	4.0	0.013	1054.584	54.0	2	-17.21	-8.0	12.8286	70.0	1.0	Outcome2	1.7	-17.21	0.0	No	n/a	-18.9092970521542	n/a	n/a	n/a	ShowChoice	Mixed
444.547	1.0	0.012	1058.596	54.0	2	-17.21	-8.0	12.8286	70.0	1.0	Outcome2	1.7	-17.21	0.0	No	n/a	-18.9092970521542	n/a	n/a	n/a	ShowResult	Mixed
445.567	8.0	0.02	1059.616	54.0	2	-17.21	-8.0	12.8286	70.0	1.0	Outcome2	1.7	-17.21	0.0	No	n/a	-18.9092970521542	n/a	n/a	n/a	ISITrial	Mixed
526.894	1.24	n/a	1143.57	n/a	2	n/a	n/a	n/a	n/a	n/a	n/a	n/a	n/a	n/a	n/a	n/a	n/a	n/a	n/a	448.0	BlockStartHappinessSliderResponse	n/a
-84.67	-0.001	0.024	1067.64	n/a	3	n/a	n/a	n/a	n/a	n/a	n/a	n/a	n/a	n/a	n/a	{SPACE}	n/a	69.272	-15.398	n/a	Rest	n/a
-15.379	4.0	0.019	1136.931	n/a	3	n/a	n/a	n/a	n/a	n/a	n/a	n/a	n/a	n/a	n/a	n/a	n/a	n/a	n/a	n/a	BlockHappyPreview	n/a
-11.367	3.867	0.012	1140.943	n/a	3	n/a	n/a	n/a	n/a	n/a	n/a	n/a	n/a	n/a	n/a	n/a	n/a	n/a	n/a	448.0	BlockStartHappiness	n/a
-2.892	-0.001	0.01	1149.418	n/a	3	n/a	n/a	n/a	n/a	n/a	n/a	n/a	n/a	n/a	n/a	5.0	n/a	2.882	-0.01	n/a	ScanWait	n/a
0.0	10.0	0.01	1152.31	n/a	3	n/a	n/a	n/a	n/a	n/a	n/a	n/a	n/a	n/a	n/a	n/a	n/a	n/a	n/a	n/a	GetReady	n/a
10.014	3.0	0.014	1162.324	55.0	3	8.9	0.14	13.9411	955.0	2.0	Outcome2	0.29	8.9	2.53325	Yes	2.0	8.61268403171008	1.222	11.236	n/a	GetAnswer	Gain
11.251	4.0	0.015	1163.561	55.0	3	8.9	0.14	13.9411	955.0	2.0	Outcome2	0.29	8.9	2.53325	Yes	n/a	8.61268403171008	n/a	n/a	n/a	ShowChoice	Gain
15.263	1.0	0.012	1167.573	55.0	3	8.9	0.14	13.9411	955.0	2.0	Outcome2	0.29	8.9	2.53325	Yes	n/a	8.61268403171008	n/a	n/a	n/a	ShowResult	Gain
16.282	7.709	0.019	1168.592	55.0	3	8.9	0.14	13.9411	955.0	2.0	Outcome2	0.29	8.9	2.53325	Yes	n/a	8.61268403171008	n/a	n/a	n/a	ISITrial	Gain
24.005	2.533	0.014	1176.315	55.0	3	8.9	0.14	13.9411	955.0	2.0	Outcome2	0.29	8.9	2.53325	Yes	n/a	8.61268403171008	n/a	n/a	n/a	TrialHappPreview	Gain
26.563	4.012	0.025	1178.873	55.0	3	8.9	0.14	13.9411	955.0	2.0	Outcome2	0.29	8.9	2.53325	Yes	n/a	8.61268403171008	n/a	n/a	512.0	TrialHappiness	Gain
26.564	0.0	n/a	1178.874	55.0	3	8.9	0.14	13.9411	955.0	2.0	Outcome2	0.29	8.9	2.53325	Yes	n/a	8.61268403171008	n/a	n/a	512.0	TrialHappinessSliderResponse	Gain
30.575	2.133	4.012	1182.885	55.0	3	8.9	0.14	13.9411	955.0	2.0	Outcome2	0.29	8.9	2.53325	Yes	n/a	8.61268403171008	n/a	n/a	n/a	ISIRate	Gain
32.732	3.0	0.024	1185.042	56.0	3	10.65	5.32	15.2723	955.0	1.68	Outcome1	10.65	12.5	0.0	No	2.0	-1.84560211400529	1.321	34.053	n/a	GetAnswer	Loss
34.069	4.0	0.016	1186.379	56.0	3	10.65	5.32	15.2723	955.0	1.68	Outcome1	10.65	12.5	0.0	No	n/a	-1.84560211400529	n/a	n/a	n/a	ShowChoice	Loss
38.081	1.0	0.012	1190.391	56.0	3	10.65	5.32	15.2723	955.0	1.68	Outcome1	10.65	12.5	0.0	No	n/a	-1.84560211400529	n/a	n/a	n/a	ShowResult	Loss
39.101	4.697	0.02	1191.411	56.0	3	10.65	5.32	15.2723	955.0	1.68	Outcome1	10.65	12.5	0.0	No	n/a	-1.84560211400529	n/a	n/a	n/a	ISITrial	Loss
43.815	3.0	0.017	1196.125	57.0	3	8.3	-0.15	16.3098	955.0	5.0	Outcome1	8.3	-0.3	0.0	No	2.0	8.60135900339751	1.77	45.585	n/a	GetAnswer	Gain
45.603	4.0	0.018	1197.913	57.0	3	8.3	-0.15	16.3098	955.0	5.0	Outcome1	8.3	-0.3	0.0	No	n/a	8.60135900339751	n/a	n/a	n/a	ShowChoice	Gain
49.615	1.0	0.012	1201.925	57.0	3	8.3	-0.15	16.3098	955.0	5.0	Outcome1	8.3	-0.3	0.0	No	n/a	8.60135900339751	n/a	n/a	n/a	ShowResult	Gain
50.635	4.291	0.02	1202.945	57.0	3	8.3	-0.15	16.3098	955.0	5.0	Outcome1	8.3	-0.3	0.0	No	n/a	8.60135900339751	n/a	n/a	n/a	ISITrial	Gain
54.948	3.0	0.022	1207.258	58.0	3	13.3	2.1	17.9723	955.0	2.48	Outcome1	13.3	4.2	3.04575	Yes	2.0	9.103057757644391	1.188	56.136	n/a	GetAnswer	Loss
56.152	4.0	0.016	1208.462	58.0	3	13.3	2.1	17.9723	955.0	2.48	Outcome1	13.3	4.2	3.04575	Yes	n/a	9.103057757644391	n/a	n/a	n/a	ShowChoice	Loss
60.164	1.0	0.012	1212.474	58.0	3	13.3	2.1	17.9723	955.0	2.48	Outcome1	13.3	4.2	3.04575	Yes	n/a	9.103057757644391	n/a	n/a	n/a	ShowResult	Loss
61.183	2.037	0.019	1213.493	58.0	3	13.3	2.1	17.9723	955.0	2.48	Outcome1	13.3	4.2	3.04575	Yes	n/a	9.103057757644391	n/a	n/a	n/a	ISITrial	Loss
63.24	3.046	0.02	1215.55	58.0	3	13.3	2.1	17.9723	955.0	2.48	Outcome1	13.3	4.2	3.04575	Yes	n/a	9.103057757644391	n/a	n/a	n/a	TrialHappPreview	Loss
66.315	4.012	0.029	1218.625	58.0	3	13.3	2.1	17.9723	955.0	2.48	Outcome1	13.3	4.2	3.04575	Yes	n/a	9.103057757644391	n/a	n/a	632.0	TrialHappiness	Loss
66.316	1.76	n/a	1219.063	58.0	3	13.3	2.1	17.9723	955.0	2.48	Outcome1	13.3	4.2	3.04575	Yes	n/a	9.103057757644391	n/a	n/a	632.0	TrialHappinessSliderResponse	Loss
70.327	4.183	4.012	1222.637	58.0	3	13.3	2.1	17.9723	955.0	2.48	Outcome1	13.3	4.2	3.04575	Yes	n/a	9.103057757644391	n/a	n/a	n/a	ISIRate	Loss
74.54	3.0	0.03	1226.85	59.0	3	1.5	-2.0	18.1598	955.0	0.82	Outcome1	1.5	-6.07	0.0	No	2.0	7.566251415628541	2.088	76.628	n/a	GetAnswer	Mixed
76.646	4.0	0.018	1228.956	59.0	3	1.5	-2.0	18.1598	955.0	0.82	Outcome1	1.5	-6.07	0.0	No	n/a	7.566251415628541	n/a	n/a	n/a	ShowChoice	Mixed
80.658	1.0	0.012	1232.968	59.0	3	1.5	-2.0	18.1598	955.0	0.82	Outcome1	1.5	-6.07	0.0	No	n/a	7.566251415628541	n/a	n/a	n/a	ShowResult	Mixed
81.678	5.064	0.02	1233.988	59.0	3	1.5	-2.0	18.1598	955.0	0.82	Outcome1	1.5	-6.07	0.0	No	n/a	7.566251415628541	n/a	n/a	n/a	ISITrial	Mixed
86.76	3.0	0.018	1239.07	60.0	3	0.0	0.0	18.1598	955.0	0.2	Certain	-1.01	0.5	3.5625	Yes	4.0	-1.51453378633447	1.743	88.503	n/a	GetAnswer	Mixed
88.515	4.0	0.012	1240.825	60.0	3	0.0	0.0	18.1598	955.0	0.2	Certain	-1.01	0.5	3.5625	Yes	n/a	-1.51453378633447	n/a	n/a	n/a	ShowChoice	Mixed
92.527	1.0	0.012	1244.837	60.0	3	0.0	0.0	18.1598	955.0	0.2	Certain	-1.01	0.5	3.5625	Yes	n/a	-1.51453378633447	n/a	n/a	n/a	ShowResult	Mixed
93.547	8.0	0.02	1245.857	60.0	3	0.0	0.0	18.1598	955.0	0.2	Certain	-1.01	0.5	3.5625	Yes	n/a	-1.51453378633447	n/a	n/a	n/a	ISITrial	Mixed
101.571	3.562	0.024	1253.881	60.0	3	0.0	0.0	18.1598	955.0	0.2	Certain	-1.01	0.5	3.5625	Yes	n/a	-1.51453378633447	n/a	n/a	n/a	TrialHappPreview	Mixed
105.148	4.012	0.015	1257.458	60.0	3	0.0	0.0	18.1598	955.0	0.2	Certain	-1.01	0.5	3.5625	Yes	n/a	-1.51453378633447	n/a	n/a	512.0	TrialHappiness	Mixed
105.149	0.0	n/a	1257.459	60.0	3	0.0	0.0	18.1598	955.0	0.2	Certain	-1.01	0.5	3.5625	Yes	n/a	-1.51453378633447	n/a	n/a	512.0	TrialHappinessSliderResponse	Mixed
109.16	6.25	4.012	1261.47	60.0	3	0.0	0.0	18.1598	955.0	0.2	Certain	-1.01	0.5	3.5625	Yes	n/a	-1.51453378633447	n/a	n/a	n/a	ISIRate	Mixed
115.429	3.0	0.019	1267.739	61.0	3	2.0	2.0	18.4098	955.0	0.66	Certain	3.3	1.27	0.0	No	4.0	-2.03199320498301	2.173	117.602	n/a	GetAnswer	Mixed
117.619	4.0	0.017	1269.929	61.0	3	2.0	2.0	18.4098	955.0	0.66	Certain	3.3	1.27	0.0	No	n/a	-2.03199320498301	n/a	n/a	n/a	ShowChoice	Mixed
121.631	1.0	0.012	1273.941	61.0	3	2.0	2.0	18.4098	955.0	0.66	Certain	3.3	1.27	0.0	No	n/a	-2.03199320498301	n/a	n/a	n/a	ShowResult	Mixed
122.651	4.586	0.02	1274.961	61.0	3	2.0	2.0	18.4098	955.0	0.66	Certain	3.3	1.27	0.0	No	n/a	-2.03199320498301	n/a	n/a	n/a	ISITrial	Mixed
127.265	3.0	0.028	1279.575	62.0	3	2.1	-3.0	18.6723	955.0	1.5	Outcome1	2.1	-8.74	3.74875	Yes	2.0	10.8380520951302	2.01	129.275	n/a	GetAnswer	Mixed
129.287	4.0	0.012	1281.597	62.0	3	2.1	-3.0	18.6723	955.0	1.5	Outcome1	2.1	-8.74	3.74875	Yes	n/a	10.8380520951302	n/a	n/a	n/a	ShowChoice	Mixed
133.299	1.0	0.012	1285.609	62.0	3	2.1	-3.0	18.6723	955.0	1.5	Outcome1	2.1	-8.74	3.74875	Yes	n/a	10.8380520951302	n/a	n/a	n/a	ShowResult	Mixed
134.319	5.212	0.02	1286.629	62.0	3	2.1	-3.0	18.6723	955.0	1.5	Outcome1	2.1	-8.74	3.74875	Yes	n/a	10.8380520951302	n/a	n/a	n/a	ISITrial	Mixed
139.551	3.749	0.02	1291.861	62.0	3	2.1	-3.0	18.6723	955.0	1.5	Outcome1	2.1	-8.74	3.74875	Yes	n/a	10.8380520951302	n/a	n/a	n/a	TrialHappPreview	Mixed
143.329	4.012	0.029	1295.639	62.0	3	2.1	-3.0	18.6723	955.0	1.5	Outcome1	2.1	-8.74	3.74875	Yes	n/a	10.8380520951302	n/a	n/a	612.0	TrialHappiness	Mixed
143.33	2.816	n/a	1295.991	62.0	3	2.1	-3.0	18.6723	955.0	1.5	Outcome1	2.1	-8.74	3.74875	Yes	n/a	10.8380520951302	n/a	n/a	612.0	TrialHappinessSliderResponse	Mixed
147.341	6.995	4.012	1299.651	62.0	3	2.1	-3.0	18.6723	955.0	1.5	Outcome1	2.1	-8.74	3.74875	Yes	n/a	10.8380520951302	n/a	n/a	n/a	ISIRate	Mixed
154.362	3.0	0.026	1306.672	63.0	3	4.7	0.0	19.2598	955.0	1.82	Outcome2	-4.94	4.7	0.0	No	2.0	9.64099660249151	2.167	156.529	n/a	GetAnswer	Gain
156.552	4.0	0.023	1308.862	63.0	3	4.7	0.0	19.2598	955.0	1.82	Outcome2	-4.94	4.7	0.0	No	n/a	9.64099660249151	n/a	n/a	n/a	ShowChoice	Gain
160.564	1.0	0.012	1312.874	63.0	3	4.7	0.0	19.2598	955.0	1.82	Outcome2	-4.94	4.7	0.0	No	n/a	9.64099660249151	n/a	n/a	n/a	ShowResult	Gain
161.584	5.595	0.02	1313.894	63.0	3	4.7	0.0	19.2598	955.0	1.82	Outcome2	-4.94	4.7	0.0	No	n/a	9.64099660249151	n/a	n/a	n/a	ISITrial	Gain
167.201	3.0	0.022	1319.511	64.0	3	1.96	0.98	19.5048	955.0	1.0	Outcome1	1.96	3.7	0.0	No	2.0	-1.74216685541714	1.57	168.771	n/a	GetAnswer	Mixed
168.789	4.0	0.018	1321.099	64.0	3	1.96	0.98	19.5048	955.0	1.0	Outcome1	1.96	3.7	0.0	No	n/a	-1.74216685541714	n/a	n/a	n/a	ShowChoice	Mixed
172.801	1.0	0.012	1325.111	64.0	3	1.96	0.98	19.5048	955.0	1.0	Outcome1	1.96	3.7	0.0	No	n/a	-1.74216685541714	n/a	n/a	n/a	ShowResult	Mixed
173.821	5.47	0.02	1326.131	64.0	3	1.96	0.98	19.5048	955.0	1.0	Outcome1	1.96	3.7	0.0	No	n/a	-1.74216685541714	n/a	n/a	n/a	ISITrial	Mixed
179.32	3.0	0.029	1331.63	65.0	3	5.3	0.0	20.1673	955.0	2.48	Outcome1	5.3	-5.12	2.99675	Yes	2.0	10.4178935447339	1.482	180.802	n/a	GetAnswer	Gain
180.825	4.0	0.022	1333.135	65.0	3	5.3	0.0	20.1673	955.0	2.48	Outcome1	5.3	-5.12	2.99675	Yes	n/a	10.4178935447339	n/a	n/a	n/a	ShowChoice	Gain
184.837	1.0	0.012	1337.147	65.0	3	5.3	0.0	20.1673	955.0	2.48	Outcome1	5.3	-5.12	2.99675	Yes	n/a	10.4178935447339	n/a	n/a	n/a	ShowResult	Gain
185.857	3.344	0.02	1338.167	65.0	3	5.3	0.0	20.1673	955.0	2.48	Outcome1	5.3	-5.12	2.99675	Yes	n/a	10.4178935447339	n/a	n/a	n/a	ISITrial	Gain
189.217	2.997	0.016	1341.527	65.0	3	5.3	0.0	20.1673	955.0	2.48	Outcome1	5.3	-5.12	2.99675	Yes	n/a	10.4178935447339	n/a	n/a	n/a	TrialHappPreview	Gain
192.242	4.012	0.028	1344.552	65.0	3	5.3	0.0	20.1673	955.0	2.48	Outcome1	5.3	-5.12	2.99675	Yes	n/a	10.4178935447339	n/a	n/a	736.0	TrialHappiness	Gain
192.243	3.579	n/a	1344.642	65.0	3	5.3	0.0	20.1673	955.0	2.48	Outcome1	5.3	-5.12	2.99675	Yes	n/a	10.4178935447339	n/a	n/a	736.0	TrialHappinessSliderResponse	Gain
196.254	3.987	4.012	1348.564	65.0	3	5.3	0.0	20.1673	955.0	2.48	Outcome1	5.3	-5.12	2.99675	Yes	n/a	10.4178935447339	n/a	n/a	n/a	ISIRate	Gain
200.266	3.0	0.025	1352.576	66.0	3	3.1	-1.0	20.5548	955.0	0.52	Outcome2	-5.6	3.1	0.0	No	2.0	8.69988674971687	2.018	202.284	n/a	GetAnswer	Mixed
202.306	4.0	0.022	1354.616	66.0	3	3.1	-1.0	20.5548	955.0	0.52	Outcome2	-5.6	3.1	0.0	No	n/a	8.69988674971687	n/a	n/a	n/a	ShowChoice	Mixed
206.318	1.0	0.012	1358.628	66.0	3	3.1	-1.0	20.5548	955.0	0.52	Outcome2	-5.6	3.1	0.0	No	n/a	8.69988674971687	n/a	n/a	n/a	ShowResult	Mixed
207.338	3.959	0.02	1359.648	66.0	3	3.1	-1.0	20.5548	955.0	0.52	Outcome2	-5.6	3.1	0.0	No	n/a	8.69988674971687	n/a	n/a	n/a	ISITrial	Mixed
211.316	3.0	0.019	1363.626	67.0	3	2.0	2.0	20.8048	955.0	5.0	Certain	6.3	-2.65	2.9185	Yes	4.0	8.947904869762171	2.307	213.623	n/a	GetAnswer	Gain
213.64	4.0	0.017	1365.95	67.0	3	2.0	2.0	20.8048	955.0	5.0	Certain	6.3	-2.65	2.9185	Yes	n/a	8.947904869762171	n/a	n/a	n/a	ShowChoice	Gain
217.652	1.0	0.012	1369.962	67.0	3	2.0	2.0	20.8048	955.0	5.0	Certain	6.3	-2.65	2.9185	Yes	n/a	8.947904869762171	n/a	n/a	n/a	ShowResult	Gain
218.671	4.199	0.019	1370.981	67.0	3	2.0	2.0	20.8048	955.0	5.0	Certain	6.3	-2.65	2.9185	Yes	n/a	8.947904869762171	n/a	n/a	n/a	ISITrial	Gain
222.884	2.918	0.014	1375.194	67.0	3	2.0	2.0	20.8048	955.0	5.0	Certain	6.3	-2.65	2.9185	Yes	n/a	8.947904869762171	n/a	n/a	n/a	TrialHappPreview	Gain
225.826	4.012	0.024	1378.136	67.0	3	2.0	2.0	20.8048	955.0	5.0	Certain	6.3	-2.65	2.9185	Yes	2{-2}2{-2}2{-2}2{-2}2{-2}2{-2}	8.947904869762171	2.682	228.508	728.0	TrialHappiness	Gain
225.827	2.119	n/a	1378.7	67.0	3	2.0	2.0	20.8048	955.0	5.0	Certain	6.3	-2.65	2.9185	Yes	n/a	8.947904869762171	n/a	n/a	728.0	TrialHappinessSliderResponse	Gain
229.838	3.674	4.012	1382.148	67.0	3	2.0	2.0	20.8048	955.0	5.0	Certain	6.3	-2.65	2.9185	Yes	n/a	8.947904869762171	n/a	n/a	n/a	ISIRate	Gain
233.533	3.0	0.021	1385.843	68.0	3	1.0	1.0	20.9298	955.0	3.16	Certain	-3.63	5.7	0.0	No	4.0	9.33182332955832	1.675	235.208	n/a	GetAnswer	Gain
235.221	4.0	0.013	1387.531	68.0	3	1.0	1.0	20.9298	955.0	3.16	Certain	-3.63	5.7	0.0	No	n/a	9.33182332955832	n/a	n/a	n/a	ShowChoice	Gain
239.233	1.0	0.012	1391.543	68.0	3	1.0	1.0	20.9298	955.0	3.16	Certain	-3.63	5.7	0.0	No	n/a	9.33182332955832	n/a	n/a	n/a	ShowResult	Gain
240.253	2.185	0.02	1392.563	68.0	3	1.0	1.0	20.9298	955.0	3.16	Certain	-3.63	5.7	0.0	No	n/a	9.33182332955832	n/a	n/a	n/a	ISITrial	Gain
242.459	3.0	0.021	1394.769	69.0	3	2.7	-2.0	21.2673	955.0	0.3	Outcome2	-6.89	2.7	0.0	No	2.0	9.58890147225368	1.391	243.85	n/a	GetAnswer	Mixed
243.864	4.0	0.014	1396.174	69.0	3	2.7	-2.0	21.2673	955.0	0.3	Outcome2	-6.89	2.7	0.0	No	n/a	9.58890147225368	n/a	n/a	n/a	ShowChoice	Mixed
247.876	1.0	0.012	1400.186	69.0	3	2.7	-2.0	21.2673	955.0	0.3	Outcome2	-6.89	2.7	0.0	No	n/a	9.58890147225368	n/a	n/a	n/a	ShowResult	Mixed
248.895	2.0	0.019	1401.205	69.0	3	2.7	-2.0	21.2673	955.0	0.3	Outcome2	-6.89	2.7	0.0	No	n/a	9.58890147225368	n/a	n/a	n/a	ISITrial	Mixed
250.918	3.0	0.023	1403.228	70.0	3	7.9	-0.98	22.2548	955.0	3.6	Outcome2	-1.95	7.9	3.65125	Yes	2.0	9.84597961494904	1.264	252.182	n/a	GetAnswer	Gain
252.205	4.0	0.023	1404.515	70.0	3	7.9	-0.98	22.2548	955.0	3.6	Outcome2	-1.95	7.9	3.65125	Yes	n/a	9.84597961494904	n/a	n/a	n/a	ShowChoice	Gain
256.217	1.0	0.012	1408.527	70.0	3	7.9	-0.98	22.2548	955.0	3.6	Outcome2	-1.95	7.9	3.65125	Yes	n/a	9.84597961494904	n/a	n/a	n/a	ShowResult	Gain
257.237	2.623	0.02	1409.547	70.0	3	7.9	-0.98	22.2548	955.0	3.6	Outcome2	-1.95	7.9	3.65125	Yes	n/a	9.84597961494904	n/a	n/a	n/a	ISITrial	Gain
259.878	3.651	0.018	1412.188	70.0	3	7.9	-0.98	22.2548	955.0	3.6	Outcome2	-1.95	7.9	3.65125	Yes	n/a	9.84597961494904	n/a	n/a	n/a	TrialHappPreview	Gain
263.556	4.012	0.027	1415.866	70.0	3	7.9	-0.98	22.2548	955.0	3.6	Outcome2	-1.95	7.9	3.65125	Yes	n/a	9.84597961494904	n/a	n/a	764.0	TrialHappiness	Gain
263.556	2.087	n/a	1416.173	70.0	3	7.9	-0.98	22.2548	955.0	3.6	Outcome2	-1.95	7.9	3.65125	Yes	n/a	9.84597961494904	n/a	n/a	764.0	TrialHappinessSliderResponse	Gain
267.568	6.605	4.012	1419.878	70.0	3	7.9	-0.98	22.2548	955.0	3.6	Outcome2	-1.95	7.9	3.65125	Yes	n/a	9.84597961494904	n/a	n/a	n/a	ISIRate	Gain
274.204	3.0	0.031	1426.514	71.0	3	1.1	-3.0	22.3923	955.0	0.52	Outcome2	-8.39	1.1	0.0	No	2.0	9.49150622876557	2.187	276.391	n/a	GetAnswer	Mixed
276.411	4.0	0.02	1428.721	71.0	3	1.1	-3.0	22.3923	955.0	0.52	Outcome2	-8.39	1.1	0.0	No	n/a	9.49150622876557	n/a	n/a	n/a	ShowChoice	Mixed
280.423	1.0	0.012	1432.733	71.0	3	1.1	-3.0	22.3923	955.0	0.52	Outcome2	-8.39	1.1	0.0	No	n/a	9.49150622876557	n/a	n/a	n/a	ShowResult	Mixed
281.443	5.499	0.02	1433.753	71.0	3	1.1	-3.0	22.3923	955.0	0.52	Outcome2	-8.39	1.1	0.0	No	n/a	9.49150622876557	n/a	n/a	n/a	ISITrial	Mixed
286.959	3.0	0.017	1439.269	72.0	3	7.5	2.0	23.3298	955.0	2.8	Outcome1	7.5	-2.21	3.0805	Yes	2.0	9.707814269535673	1.496	288.455	n/a	GetAnswer	Gain
288.48	4.0	0.025	1440.79	72.0	3	7.5	2.0	23.3298	955.0	2.8	Outcome1	7.5	-2.21	3.0805	Yes	n/a	9.707814269535673	n/a	n/a	n/a	ShowChoice	Gain
292.492	1.0	0.012	1444.802	72.0	3	7.5	2.0	23.3298	955.0	2.8	Outcome1	7.5	-2.21	3.0805	Yes	n/a	9.707814269535673	n/a	n/a	n/a	ShowResult	Gain
293.512	5.672	0.02	1445.822	72.0	3	7.5	2.0	23.3298	955.0	2.8	Outcome1	7.5	-2.21	3.0805	Yes	n/a	9.707814269535673	n/a	n/a	n/a	ISITrial	Gain
299.196	3.08	0.012	1451.506	72.0	3	7.5	2.0	23.3298	955.0	2.8	Outcome1	7.5	-2.21	3.0805	Yes	n/a	9.707814269535673	n/a	n/a	n/a	TrialHappPreview	Gain
302.305	4.012	0.029	1454.615	72.0	3	7.5	2.0	23.3298	955.0	2.8	Outcome1	7.5	-2.21	3.0805	Yes	n/a	9.707814269535673	n/a	n/a	808.0	TrialHappiness	Gain
302.306	3.074	n/a	1454.827	72.0	3	7.5	2.0	23.3298	955.0	2.8	Outcome1	7.5	-2.21	3.0805	Yes	n/a	9.707814269535673	n/a	n/a	808.0	TrialHappinessSliderResponse	Gain
306.317	4.322	4.012	1458.627	72.0	3	7.5	2.0	23.3298	955.0	2.8	Outcome1	7.5	-2.21	3.0805	Yes	n/a	9.707814269535673	n/a	n/a	n/a	ISIRate	Gain
310.664	3.0	0.025	1462.974	73.0	3	6.9	2.0	24.1923	955.0	2.0	Outcome1	6.9	-2.28	0.0	No	2.0	9.176670441676109	1.337	312.001	n/a	GetAnswer	Gain
312.018	4.0	0.017	1464.328	73.0	3	6.9	2.0	24.1923	955.0	2.0	Outcome1	6.9	-2.28	0.0	No	n/a	9.176670441676109	n/a	n/a	n/a	ShowChoice	Gain
316.03	1.0	0.012	1468.34	73.0	3	6.9	2.0	24.1923	955.0	2.0	Outcome1	6.9	-2.28	0.0	No	n/a	9.176670441676109	n/a	n/a	n/a	ShowResult	Gain
317.049	4.616	0.019	1469.359	73.0	3	6.9	2.0	24.1923	955.0	2.0	Outcome1	6.9	-2.28	0.0	No	n/a	9.176670441676109	n/a	n/a	n/a	ISITrial	Gain
321.697	3.0	0.032	1474.007	74.0	3	-1.1	-6.0	24.0548	955.0	0.4	Outcome2	-10.44	-1.1	3.05625	Yes	2.0	9.343148357870891	2.285	323.982	n/a	GetAnswer	Mixed
324.003	4.0	0.021	1476.313	74.0	3	-1.1	-6.0	24.0548	955.0	0.4	Outcome2	-10.44	-1.1	3.05625	Yes	n/a	9.343148357870891	n/a	n/a	n/a	ShowChoice	Mixed
328.015	1.0	0.012	1480.325	74.0	3	-1.1	-6.0	24.0548	955.0	0.4	Outcome2	-10.44	-1.1	3.05625	Yes	n/a	9.343148357870891	n/a	n/a	n/a	ShowResult	Mixed
329.035	3.909	0.02	1481.345	74.0	3	-1.1	-6.0	24.0548	955.0	0.4	Outcome2	-10.44	-1.1	3.05625	Yes	n/a	9.343148357870891	n/a	n/a	n/a	ISITrial	Mixed
332.964	3.056	0.02	1485.274	74.0	3	-1.1	-6.0	24.0548	955.0	0.4	Outcome2	-10.44	-1.1	3.05625	Yes	n/a	9.343148357870891	n/a	n/a	n/a	TrialHappPreview	Mixed
336.039	4.012	0.019	1488.349	74.0	3	-1.1	-6.0	24.0548	955.0	0.4	Outcome2	-10.44	-1.1	3.05625	Yes	n/a	9.343148357870891	n/a	n/a	772.0	TrialHappiness	Mixed
336.04	3.531	n/a	1488.805	74.0	3	-1.1	-6.0	24.0548	955.0	0.4	Outcome2	-10.44	-1.1	3.05625	Yes	n/a	9.343148357870891	n/a	n/a	772.0	TrialHappinessSliderResponse	Mixed
340.051	4.225	4.012	1492.361	74.0	3	-1.1	-6.0	24.0548	955.0	0.4	Outcome2	-10.44	-1.1	3.05625	Yes	n/a	9.343148357870891	n/a	n/a	n/a	ISIRate	Mixed
344.298	3.0	0.022	1496.608	75.0	3	5.1	0.0	24.6923	955.0	2.22	Outcome1	5.1	-5.02	0.0	No	2.0	10.1211778029445	1.467	345.765	n/a	GetAnswer	Gain
345.785	4.0	0.02	1498.095	75.0	3	5.1	0.0	24.6923	955.0	2.22	Outcome1	5.1	-5.02	0.0	No	n/a	10.1211778029445	n/a	n/a	n/a	ShowChoice	Gain
349.797	1.0	0.012	1502.107	75.0	3	5.1	0.0	24.6923	955.0	2.22	Outcome1	5.1	-5.02	0.0	No	n/a	10.1211778029445	n/a	n/a	n/a	ShowResult	Gain
350.817	4.979	0.02	1503.127	75.0	3	5.1	0.0	24.6923	955.0	2.22	Outcome1	5.1	-5.02	0.0	No	n/a	10.1211778029445	n/a	n/a	n/a	ISITrial	Gain
355.815	3.0	0.019	1508.125	76.0	3	3.5	-1.0	25.1298	955.0	0.82	Outcome1	3.5	-6.83	0.0	No	2.0	10.3284258210646	1.339	357.154	n/a	GetAnswer	Mixed
357.169	4.0	0.015	1509.479	76.0	3	3.5	-1.0	25.1298	955.0	0.82	Outcome1	3.5	-6.83	0.0	No	n/a	10.3284258210646	n/a	n/a	n/a	ShowChoice	Mixed
361.181	1.0	0.012	1513.491	76.0	3	3.5	-1.0	25.1298	955.0	0.82	Outcome1	3.5	-6.83	0.0	No	n/a	10.3284258210646	n/a	n/a	n/a	ShowResult	Mixed
362.201	3.931	0.02	1514.511	76.0	3	3.5	-1.0	25.1298	955.0	0.82	Outcome1	3.5	-6.83	0.0	No	n/a	10.3284258210646	n/a	n/a	n/a	ISITrial	Mixed
366.163	3.0	0.031	1518.473	77.0	3	13.5	1.48	26.8173	955.0	2.8	Outcome1	13.5	2.96	4.0	Yes	2.0	10.5356738391846	1.103	367.266	n/a	GetAnswer	Loss
367.283	4.0	0.017	1519.593	77.0	3	13.5	1.48	26.8173	955.0	2.8	Outcome1	13.5	2.96	4.0	Yes	n/a	10.5356738391846	n/a	n/a	n/a	ShowChoice	Loss
371.295	1.0	0.012	1523.605	77.0	3	13.5	1.48	26.8173	955.0	2.8	Outcome1	13.5	2.96	4.0	Yes	n/a	10.5356738391846	n/a	n/a	n/a	ShowResult	Loss
372.315	7.022	0.02	1524.625	77.0	3	13.5	1.48	26.8173	955.0	2.8	Outcome1	13.5	2.96	4.0	Yes	n/a	10.5356738391846	n/a	n/a	n/a	ISITrial	Loss
379.353	4.0	0.016	1531.663	77.0	3	13.5	1.48	26.8173	955.0	2.8	Outcome1	13.5	2.96	4.0	Yes	n/a	10.5356738391846	n/a	n/a	n/a	TrialHappPreview	Loss
383.381	4.012	0.028	1535.691	77.0	3	13.5	1.48	26.8173	955.0	2.8	Outcome1	13.5	2.96	4.0	Yes	n/a	10.5356738391846	n/a	n/a	792.0	TrialHappiness	Loss
383.382	1.884	n/a	1535.788	77.0	3	13.5	1.48	26.8173	955.0	2.8	Outcome1	13.5	2.96	4.0	Yes	n/a	10.5356738391846	n/a	n/a	792.0	TrialHappinessSliderResponse	Loss
387.393	8.0	4.012	1539.703	77.0	3	13.5	1.48	26.8173	955.0	2.8	Outcome1	13.5	2.96	4.0	Yes	n/a	10.5356738391846	n/a	n/a	n/a	ISIRate	Loss
395.417	3.0	0.024	1547.727	78.0	3	-1.6	-1.0	26.6173	955.0	1.0	Outcome2	-0.3	-1.6	0.0	No	2.0	-1.29765949414874	2.495	397.912	n/a	GetAnswer	Mixed
397.925	4.0	0.013	1550.235	78.0	3	-1.6	-1.0	26.6173	955.0	1.0	Outcome2	-0.3	-1.6	0.0	No	n/a	-1.29765949414874	n/a	n/a	n/a	ShowChoice	Mixed
401.937	1.0	0.012	1554.247	78.0	3	-1.6	-1.0	26.6173	955.0	1.0	Outcome2	-0.3	-1.6	0.0	No	n/a	-1.29765949414874	n/a	n/a	n/a	ShowResult	Mixed
402.956	2.078	0.019	1555.266	78.0	3	-1.6	-1.0	26.6173	955.0	1.0	Outcome2	-0.3	-1.6	0.0	No	n/a	-1.29765949414874	n/a	n/a	n/a	ISITrial	Mixed
405.063	3.0	0.029	1557.373	79.0	3	4.1	-1.0	27.1298	955.0	1.5	Outcome2	-6.49	4.1	2.7295	Yes	2.0	10.5877689694224	1.467	406.53	n/a	GetAnswer	Mixed
406.551	4.0	0.021	1558.861	79.0	3	4.1	-1.0	27.1298	955.0	1.5	Outcome2	-6.49	4.1	2.7295	Yes	n/a	10.5877689694224	n/a	n/a	n/a	ShowChoice	Mixed
410.563	1.0	0.012	1562.873	79.0	3	4.1	-1.0	27.1298	955.0	1.5	Outcome2	-6.49	4.1	2.7295	Yes	n/a	10.5877689694224	n/a	n/a	n/a	ShowResult	Mixed
411.582	3.829	0.019	1563.892	79.0	3	4.1	-1.0	27.1298	955.0	1.5	Outcome2	-6.49	4.1	2.7295	Yes	n/a	10.5877689694224	n/a	n/a	n/a	ISITrial	Mixed
415.427	2.73	0.016	1567.737	79.0	3	4.1	-1.0	27.1298	955.0	1.5	Outcome2	-6.49	4.1	2.7295	Yes	n/a	10.5877689694224	n/a	n/a	n/a	TrialHappPreview	Mixed
418.185	4.012	0.028	1570.495	79.0	3	4.1	-1.0	27.1298	955.0	1.5	Outcome2	-6.49	4.1	2.7295	Yes	n/a	10.5877689694224	n/a	n/a	768.0	TrialHappiness	Mixed
418.186	2.71	n/a	1570.869	79.0	3	4.1	-1.0	27.1298	955.0	1.5	Outcome2	-6.49	4.1	2.7295	Yes	n/a	10.5877689694224	n/a	n/a	768.0	TrialHappinessSliderResponse	Mixed
422.197	2.918	4.012	1574.507	79.0	3	4.1	-1.0	27.1298	955.0	1.5	Outcome2	-6.49	4.1	2.7295	Yes	n/a	10.5877689694224	n/a	n/a	n/a	ISIRate	Mixed
425.14	3.0	0.025	1577.45	80.0	3	0.0	0.0	27.1298	955.0	2.48	Certain	-5.88	5.3	0.0	No	4.0	11.1800679501699	2.764	427.904	n/a	GetAnswer	Gain
427.914	4.0	0.01	1580.224	80.0	3	0.0	0.0	27.1298	955.0	2.48	Certain	-5.88	5.3	0.0	No	n/a	11.1800679501699	n/a	n/a	n/a	ShowChoice	Gain
431.926	1.0	0.012	1584.236	80.0	3	0.0	0.0	27.1298	955.0	2.48	Certain	-5.88	5.3	0.0	No	n/a	11.1800679501699	n/a	n/a	n/a	ShowResult	Gain
432.946	3.336	0.02	1585.256	80.0	3	0.0	0.0	27.1298	955.0	2.48	Certain	-5.88	5.3	0.0	No	n/a	11.1800679501699	n/a	n/a	n/a	ISITrial	Gain
436.306	3.0	0.024	1588.616	81.0	3	0.9	-5.0	27.2423	955.0	0.4	Outcome1	0.9	-10.49	3.92375	Yes	2.0	11.3918459796149	2.804	439.11	n/a	GetAnswer	Mixed
439.131	4.0	0.021	1591.441	81.0	3	0.9	-5.0	27.2423	955.0	0.4	Outcome1	0.9	-10.49	3.92375	Yes	n/a	11.3918459796149	n/a	n/a	n/a	ShowChoice	Mixed
443.143	1.0	0.012	1595.453	81.0	3	0.9	-5.0	27.2423	955.0	0.4	Outcome1	0.9	-10.49	3.92375	Yes	n/a	11.3918459796149	n/a	n/a	n/a	ShowResult	Mixed
444.163	3.919	0.02	1596.473	81.0	3	0.9	-5.0	27.2423	955.0	0.4	Outcome1	0.9	-10.49	3.92375	Yes	n/a	11.3918459796149	n/a	n/a	n/a	ISITrial	Mixed
448.108	3.924	0.026	1600.418	81.0	3	0.9	-5.0	27.2423	955.0	0.4	Outcome1	0.9	-10.49	3.92375	Yes	n/a	11.3918459796149	n/a	n/a	n/a	TrialHappPreview	Mixed
452.053	4.012	0.021	1604.363	81.0	3	0.9	-5.0	27.2423	955.0	0.4	Outcome1	0.9	-10.49	3.92375	Yes	n/a	11.3918459796149	n/a	n/a	736.0	TrialHappiness	Mixed
452.054	1.615	n/a	1604.696	81.0	3	0.9	-5.0	27.2423	955.0	0.4	Outcome1	0.9	-10.49	3.92375	Yes	n/a	11.3918459796149	n/a	n/a	736.0	TrialHappinessSliderResponse	Mixed
456.065	7.695	4.012	1608.375	81.0	3	0.9	-5.0	27.2423	955.0	0.4	Outcome1	0.9	-10.49	3.92375	Yes	n/a	11.3918459796149	n/a	n/a	n/a	ISIRate	Mixed
463.789	3.0	0.029	1616.099	n/a	3	n/a	n/a	n/a	n/a	n/a	n/a	n/a	n/a	n/a	n/a	n/a	n/a	n/a	n/a	n/a	CurrentEarnings	n/a
466.814	-0.001	0.025	1619.124	n/a	3	n/a	n/a	n/a	n/a	n/a	n/a	n/a	n/a	n/a	n/a	{SPACE}	n/a	17.49	484.304	n/a	Goodbye	n/a
