onset	duration	onset_delay	onset_unadjusted	trial_number	block	amount_change	certain_amount	current_amount	mood_target	multiplier	outcome	outcome1_amount	outcome2_amount	question_duration	rating	response	rpe	rt	rt_time	slider_response	trial_phase	trial_type
-44.449	-0.001	0.02	22.237	n/a	0	n/a	n/a	n/a	n/a	n/a	n/a	n/a	n/a	n/a	n/a	{SPACE}	n/a	2.128	-42.321	n/a	Welcome	n/a
-42.293	5.0	0.028	24.393	n/a	0	n/a	n/a	n/a	n/a	n/a	n/a	n/a	n/a	n/a	n/a	n/a	n/a	n/a	n/a	n/a	LifeHappyPreview	n/a
-37.261	1.11	0.032	29.425	n/a	0	n/a	n/a	n/a	n/a	n/a	n/a	n/a	n/a	n/a	n/a	n/a	n/a	n/a	n/a	824.0	LifeHappiness	n/a
-37.261	0.806	n/a	29.729	n/a	0	n/a	n/a	n/a	n/a	n/a	n/a	n/a	n/a	n/a	n/a	n/a	n/a	n/a	n/a	824.0	LifeHappinessSliderResponse	n/a
-20.143	4.0	0.018	46.543	n/a	0	n/a	n/a	n/a	n/a	n/a	n/a	n/a	n/a	n/a	n/a	n/a	n/a	n/a	n/a	n/a	BlockHappyPreview	n/a
-16.131	2.013	0.012	50.555	n/a	0	n/a	n/a	n/a	n/a	n/a	n/a	n/a	n/a	n/a	n/a	n/a	n/a	n/a	n/a	328.0	BlockStartHappiness	n/a
-16.131	1.661	n/a	50.907	n/a	0	n/a	n/a	n/a	n/a	n/a	n/a	n/a	n/a	n/a	n/a	n/a	n/a	n/a	n/a	328.0	BlockStartHappinessSliderResponse	n/a
-1.203	-0.001	0.031	65.483	n/a	0	n/a	n/a	n/a	n/a	n/a	n/a	n/a	n/a	n/a	n/a	5.0	n/a	1.178	-0.025	n/a	ScanWait	n/a
0.0	10.0	0.025	66.686	n/a	1	n/a	n/a	n/a	n/a	n/a	n/a	n/a	n/a	n/a	n/a	n/a	n/a	n/a	n/a	n/a	GetReady	n/a
10.03	3.0	0.03	76.716	1.0	1	0.96	2.0	10.12	955.0	0.82	Outcome1	0.96	3.5	0.0	No	2.0	-2.54445073612684	1.679	11.709	n/a	GetAnswer	Mixed
11.735	4.0	0.026	78.421	1.0	1	0.96	2.0	10.12	955.0	0.82	Outcome1	0.96	3.5	0.0	No	n/a	-2.54445073612684	n/a	n/a	n/a	ShowChoice	Mixed
15.747	1.0	0.012	82.433	1.0	1	0.96	2.0	10.12	955.0	0.82	Outcome1	0.96	3.5	0.0	No	n/a	-2.54445073612684	n/a	n/a	n/a	ShowResult	Mixed
16.767	2.431	0.02	83.453	1.0	1	0.96	2.0	10.12	955.0	0.82	Outcome1	0.96	3.5	0.0	No	n/a	-2.54445073612684	n/a	n/a	n/a	ISITrial	Mixed
19.224	3.0	0.026	85.91	2.0	1	-4.0	-4.0	9.62	955.0	0.66	Certain	-10.06	1.3	0.0	No	4.0	11.361268403171	1.704	20.928	n/a	GetAnswer	Mixed
20.946	4.0	0.018	87.632	2.0	1	-4.0	-4.0	9.62	955.0	0.66	Certain	-10.06	1.3	0.0	No	n/a	11.361268403171	n/a	n/a	n/a	ShowChoice	Mixed
24.975	1.0	0.029	91.661	2.0	1	-4.0	-4.0	9.62	955.0	0.66	Certain	-10.06	1.3	0.0	No	n/a	11.361268403171	n/a	n/a	n/a	ShowResult	Mixed
25.994	4.568	0.019	92.68	2.0	1	-4.0	-4.0	9.62	955.0	0.66	Certain	-10.06	1.3	0.0	No	n/a	11.361268403171	n/a	n/a	n/a	ISITrial	Mixed
30.591	3.0	0.029	97.277	3.0	1	13.7	0.82	11.3325	955.0	3.16	Outcome2	1.63	13.7	2.868	Yes	2.0	12.0713476783692	1.401	31.992	n/a	GetAnswer	Loss
32.012	4.0	0.02	98.698	3.0	1	13.7	0.82	11.3325	955.0	3.16	Outcome2	1.63	13.7	2.868	Yes	n/a	12.0713476783692	n/a	n/a	n/a	ShowChoice	Loss
36.024	1.0	0.012	102.71	3.0	1	13.7	0.82	11.3325	955.0	3.16	Outcome2	1.63	13.7	2.868	Yes	n/a	12.0713476783692	n/a	n/a	n/a	ShowResult	Loss
37.044	3.243	0.02	103.73	3.0	1	13.7	0.82	11.3325	955.0	3.16	Outcome2	1.63	13.7	2.868	Yes	n/a	12.0713476783692	n/a	n/a	n/a	ISITrial	Loss
40.304	2.868	0.017	106.99	3.0	1	13.7	0.82	11.3325	955.0	3.16	Outcome2	1.63	13.7	2.868	Yes	n/a	12.0713476783692	n/a	n/a	n/a	TrialHappPreview	Loss
43.196	4.028	0.024	109.882	3.0	1	13.7	0.82	11.3325	955.0	3.16	Outcome2	1.63	13.7	2.868	Yes	4{-4}	12.0713476783692	1.712	44.908	496.0	TrialHappiness	Loss
43.196	0.187	n/a	111.407	3.0	1	13.7	0.82	11.3325	955.0	3.16	Outcome2	1.63	13.7	2.868	Yes	n/a	12.0713476783692	n/a	n/a	496.0	TrialHappinessSliderResponse	Loss
47.224	3.472	4.028	113.91	3.0	1	13.7	0.82	11.3325	955.0	3.16	Outcome2	1.63	13.7	2.868	Yes	n/a	12.0713476783692	n/a	n/a	n/a	ISIRate	Loss
50.718	3.0	0.022	117.404	4.0	1	2.0	2.0	11.5825	955.0	2.0	Certain	-3.03	6.9	0.0	No	4.0	9.927519818799553	1.894	52.612	n/a	GetAnswer	Gain
52.641	4.0	0.029	119.327	4.0	1	2.0	2.0	11.5825	955.0	2.0	Certain	-3.03	6.9	0.0	No	n/a	9.927519818799553	n/a	n/a	n/a	ShowChoice	Gain
56.669	1.0	0.028	123.355	4.0	1	2.0	2.0	11.5825	955.0	2.0	Certain	-3.03	6.9	0.0	No	n/a	9.927519818799553	n/a	n/a	n/a	ShowResult	Gain
57.689	2.011	0.02	124.375	4.0	1	2.0	2.0	11.5825	955.0	2.0	Certain	-3.03	6.9	0.0	No	n/a	9.927519818799553	n/a	n/a	n/a	ISITrial	Gain
59.728	3.0	0.028	126.414	5.0	1	0.1	-5.0	11.595	955.0	1.5	Outcome1	0.1	-10.35	2.5825	Yes	2.0	10.4473386183465	1.354	61.082	n/a	GetAnswer	Mixed
61.099	4.0	0.017	127.785	5.0	1	0.1	-5.0	11.595	955.0	1.5	Outcome1	0.1	-10.35	2.5825	Yes	n/a	10.4473386183465	n/a	n/a	n/a	ShowChoice	Mixed
65.128	1.0	0.029	131.814	5.0	1	0.1	-5.0	11.595	955.0	1.5	Outcome1	0.1	-10.35	2.5825	Yes	n/a	10.4473386183465	n/a	n/a	n/a	ShowResult	Mixed
66.148	5.129	0.02	132.834	5.0	1	0.1	-5.0	11.595	955.0	1.5	Outcome1	0.1	-10.35	2.5825	Yes	n/a	10.4473386183465	n/a	n/a	n/a	ISITrial	Mixed
71.296	2.582	0.019	137.982	5.0	1	0.1	-5.0	11.595	955.0	1.5	Outcome1	0.1	-10.35	2.5825	Yes	n/a	10.4473386183465	n/a	n/a	n/a	TrialHappPreview	Mixed
73.904	4.029	0.026	140.59	5.0	1	0.1	-5.0	11.595	955.0	1.5	Outcome1	0.1	-10.35	2.5825	Yes	n/a	10.4473386183465	n/a	n/a	656.0	TrialHappiness	Mixed
73.905	0.441	n/a	140.891	5.0	1	0.1	-5.0	11.595	955.0	1.5	Outcome1	0.1	-10.35	2.5825	Yes	n/a	10.4473386183465	n/a	n/a	656.0	TrialHappinessSliderResponse	Mixed
77.933	2.33	4.029	144.619	5.0	1	0.1	-5.0	11.595	955.0	1.5	Outcome1	0.1	-10.35	2.5825	Yes	n/a	10.4473386183465	n/a	n/a	n/a	ISIRate	Mixed
80.29	3.0	0.027	146.976	6.0	1	0.0	0.0	11.595	955.0	1.0	Certain	-4.55	3.7	0.0	No	4.0	8.24915062287656	1.616	81.906	n/a	GetAnswer	Mixed
81.928	4.0	0.022	148.614	6.0	1	0.0	0.0	11.595	955.0	1.0	Certain	-4.55	3.7	0.0	No	n/a	8.24915062287656	n/a	n/a	n/a	ShowChoice	Mixed
85.957	1.0	0.029	152.643	6.0	1	0.0	0.0	11.595	955.0	1.0	Certain	-4.55	3.7	0.0	No	n/a	8.24915062287656	n/a	n/a	n/a	ShowResult	Mixed
86.977	6.232	0.02	153.663	6.0	1	0.0	0.0	11.595	955.0	1.0	Certain	-4.55	3.7	0.0	No	n/a	8.24915062287656	n/a	n/a	n/a	ISITrial	Mixed
93.229	3.0	0.02	159.915	7.0	1	12.5	1.96	13.1575	955.0	1.68	Outcome2	3.91	12.5	0.0	No	2.0	8.58776896942242	1.381	94.61	n/a	GetAnswer	Loss
94.633	4.0	0.023	161.319	7.0	1	12.5	1.96	13.1575	955.0	1.68	Outcome2	3.91	12.5	0.0	No	n/a	8.58776896942242	n/a	n/a	n/a	ShowChoice	Loss
98.661	1.0	0.028	165.347	7.0	1	12.5	1.96	13.1575	955.0	1.68	Outcome2	3.91	12.5	0.0	No	n/a	8.58776896942242	n/a	n/a	n/a	ShowResult	Loss
99.681	2.305	0.02	166.367	7.0	1	12.5	1.96	13.1575	955.0	1.68	Outcome2	3.91	12.5	0.0	No	n/a	8.58776896942242	n/a	n/a	n/a	ISITrial	Loss
102.005	3.0	0.019	168.691	8.0	1	11.7	1.38	14.62	955.0	3.16	Outcome1	11.7	2.77	3.1125	Yes	2.0	8.92638731596829	1.577	103.582	n/a	GetAnswer	Loss
103.61	4.0	0.027	170.296	8.0	1	11.7	1.38	14.62	955.0	3.16	Outcome1	11.7	2.77	3.1125	Yes	n/a	8.92638731596829	n/a	n/a	n/a	ShowChoice	Loss
107.638	1.0	0.028	174.324	8.0	1	11.7	1.38	14.62	955.0	3.16	Outcome1	11.7	2.77	3.1125	Yes	n/a	8.92638731596829	n/a	n/a	n/a	ShowResult	Loss
108.658	3.506	0.02	175.344	8.0	1	11.7	1.38	14.62	955.0	3.16	Outcome1	11.7	2.77	3.1125	Yes	n/a	8.92638731596829	n/a	n/a	n/a	ISITrial	Loss
112.185	3.112	0.021	178.871	8.0	1	11.7	1.38	14.62	955.0	3.16	Outcome1	11.7	2.77	3.1125	Yes	n/a	8.92638731596829	n/a	n/a	n/a	TrialHappPreview	Loss
115.328	4.029	0.031	182.014	8.0	1	11.7	1.38	14.62	955.0	3.16	Outcome1	11.7	2.77	3.1125	Yes	n/a	8.92638731596829	n/a	n/a	640.0	TrialHappiness	Loss
115.328	0.421	n/a	182.367	8.0	1	11.7	1.38	14.62	955.0	3.16	Outcome1	11.7	2.77	3.1125	Yes	n/a	8.92638731596829	n/a	n/a	640.0	TrialHappinessSliderResponse	Loss
119.357	4.45	4.029	186.043	8.0	1	11.7	1.38	14.62	955.0	3.16	Outcome1	11.7	2.77	3.1125	Yes	n/a	8.92638731596829	n/a	n/a	n/a	ISIRate	Loss
123.837	3.0	0.03	190.523	9.0	1	5.7	1.0	15.3325	955.0	3.16	Outcome1	5.7	-3.84	0.0	No	2.0	9.536806342015849	1.156	124.993	n/a	GetAnswer	Gain
125.023	4.0	0.03	191.709	9.0	1	5.7	1.0	15.3325	955.0	3.16	Outcome1	5.7	-3.84	0.0	No	n/a	9.536806342015849	n/a	n/a	n/a	ShowChoice	Gain
129.035	1.0	0.012	195.721	9.0	1	5.7	1.0	15.3325	955.0	3.16	Outcome1	5.7	-3.84	0.0	No	n/a	9.536806342015849	n/a	n/a	n/a	ShowResult	Gain
130.055	2.0	0.02	196.741	9.0	1	5.7	1.0	15.3325	955.0	3.16	Outcome1	5.7	-3.84	0.0	No	n/a	9.536806342015849	n/a	n/a	n/a	ISITrial	Gain
132.078	3.0	0.023	198.764	10.0	1	9.64	4.82	16.5375	955.0	2.48	Outcome2	11.3	9.64	4.0	Yes	2.0	-1.6568516421291102	1.314	133.392	n/a	GetAnswer	Loss
133.415	4.0	0.023	200.101	10.0	1	9.64	4.82	16.5375	955.0	2.48	Outcome2	11.3	9.64	4.0	Yes	n/a	-1.6568516421291102	n/a	n/a	n/a	ShowChoice	Loss
137.444	1.0	0.029	204.13	10.0	1	9.64	4.82	16.5375	955.0	2.48	Outcome2	11.3	9.64	4.0	Yes	n/a	-1.6568516421291102	n/a	n/a	n/a	ShowResult	Loss
138.464	2.0	0.02	205.15	10.0	1	9.64	4.82	16.5375	955.0	2.48	Outcome2	11.3	9.64	4.0	Yes	n/a	-1.6568516421291102	n/a	n/a	n/a	ISITrial	Loss
140.486	4.0	0.022	207.172	10.0	1	9.64	4.82	16.5375	955.0	2.48	Outcome2	11.3	9.64	4.0	Yes	n/a	-1.6568516421291102	n/a	n/a	n/a	TrialHappPreview	Loss
144.515	4.029	0.029	211.201	10.0	1	9.64	4.82	16.5375	955.0	2.48	Outcome2	11.3	9.64	4.0	Yes	n/a	-1.6568516421291102	n/a	n/a	744.0	TrialHappiness	Loss
144.516	2.092	n/a	211.608	10.0	1	9.64	4.82	16.5375	955.0	2.48	Outcome2	11.3	9.64	4.0	Yes	n/a	-1.6568516421291102	n/a	n/a	744.0	TrialHappinessSliderResponse	Loss
148.544	8.0	4.029	215.23	10.0	1	9.64	4.82	16.5375	955.0	2.48	Outcome2	11.3	9.64	4.0	Yes	n/a	-1.6568516421291102	n/a	n/a	n/a	ISIRate	Loss
156.568	3.0	0.024	223.254	11.0	1	-5.0	-5.0	15.9125	955.0	0.4	Certain	-9.58	-1.1	0.0	No	4.0	8.48357870894677	2.568	159.136	n/a	GetAnswer	Mixed
159.159	4.0	0.023	225.845	11.0	1	-5.0	-5.0	15.9125	955.0	0.4	Certain	-9.58	-1.1	0.0	No	n/a	8.48357870894677	n/a	n/a	n/a	ShowChoice	Mixed
163.187	1.0	0.028	229.873	11.0	1	-5.0	-5.0	15.9125	955.0	0.4	Certain	-9.58	-1.1	0.0	No	n/a	8.48357870894677	n/a	n/a	n/a	ShowResult	Mixed
164.207	3.324	0.02	230.893	11.0	1	-5.0	-5.0	15.9125	955.0	0.4	Certain	-9.58	-1.1	0.0	No	n/a	8.48357870894677	n/a	n/a	n/a	ISITrial	Mixed
167.55	3.0	0.019	234.236	12.0	1	8.1	-0.31	16.925	955.0	4.2	Outcome1	8.1	-0.62	2.61875	Yes	2.0	8.72253680634202	1.443	168.993	n/a	GetAnswer	Gain
169.022	4.0	0.029	235.708	12.0	1	8.1	-0.31	16.925	955.0	4.2	Outcome1	8.1	-0.62	2.61875	Yes	n/a	8.72253680634202	n/a	n/a	n/a	ShowChoice	Gain
173.05	1.0	0.028	239.736	12.0	1	8.1	-0.31	16.925	955.0	4.2	Outcome1	8.1	-0.62	2.61875	Yes	n/a	8.72253680634202	n/a	n/a	n/a	ShowResult	Gain
174.07	6.642	0.02	240.756	12.0	1	8.1	-0.31	16.925	955.0	4.2	Outcome1	8.1	-0.62	2.61875	Yes	n/a	8.72253680634202	n/a	n/a	n/a	ISITrial	Gain
180.74	2.619	0.028	247.426	12.0	1	8.1	-0.31	16.925	955.0	4.2	Outcome1	8.1	-0.62	2.61875	Yes	n/a	8.72253680634202	n/a	n/a	n/a	TrialHappPreview	Gain
183.381	4.029	0.022	250.067	12.0	1	8.1	-0.31	16.925	955.0	4.2	Outcome1	8.1	-0.62	2.61875	Yes	n/a	8.72253680634202	n/a	n/a	568.0	TrialHappiness	Gain
183.382	1.999	n/a	251.169	12.0	1	8.1	-0.31	16.925	955.0	4.2	Outcome1	8.1	-0.62	2.61875	Yes	n/a	8.72253680634202	n/a	n/a	568.0	TrialHappinessSliderResponse	Gain
187.41	2.475	4.029	254.096	12.0	1	8.1	-0.31	16.925	955.0	4.2	Outcome1	8.1	-0.62	2.61875	Yes	n/a	8.72253680634202	n/a	n/a	n/a	ISIRate	Gain
189.917	3.0	0.032	256.603	13.0	1	12.3	0.18	18.4625	955.0	5.0	Outcome2	0.35	12.3	0.0	No	2.0	11.9513023782559	1.211	191.128	n/a	GetAnswer	Loss
191.154	4.0	0.026	257.84	13.0	1	12.3	0.18	18.4625	955.0	5.0	Outcome2	0.35	12.3	0.0	No	n/a	11.9513023782559	n/a	n/a	n/a	ShowChoice	Loss
195.166	1.0	0.012	261.852	13.0	1	12.3	0.18	18.4625	955.0	5.0	Outcome2	0.35	12.3	0.0	No	n/a	11.9513023782559	n/a	n/a	n/a	ShowResult	Loss
196.186	3.48	0.02	262.872	13.0	1	12.3	0.18	18.4625	955.0	5.0	Outcome2	0.35	12.3	0.0	No	n/a	11.9513023782559	n/a	n/a	n/a	ISITrial	Loss
199.696	3.0	0.03	266.382	14.0	1	2.1	-4.0	18.725	955.0	1.5	Outcome2	-10.29	2.1	0.0	No	2.0	12.3895809739524	1.961	201.657	n/a	GetAnswer	Mixed
201.686	4.0	0.029	268.372	14.0	1	2.1	-4.0	18.725	955.0	1.5	Outcome2	-10.29	2.1	0.0	No	n/a	12.3895809739524	n/a	n/a	n/a	ShowChoice	Mixed
205.714	1.0	0.028	272.4	14.0	1	2.1	-4.0	18.725	955.0	1.5	Outcome2	-10.29	2.1	0.0	No	n/a	12.3895809739524	n/a	n/a	n/a	ShowResult	Mixed
206.734	5.019	0.02	273.42	14.0	1	2.1	-4.0	18.725	955.0	1.5	Outcome2	-10.29	2.1	0.0	No	n/a	12.3895809739524	n/a	n/a	n/a	ISITrial	Mixed
211.783	3.0	0.03	278.469	15.0	1	6.61	3.3	19.5512	955.0	1.82	Outcome1	6.61	8.7	3.3485	Yes	2.0	-2.09163835409589	1.355	213.138	n/a	GetAnswer	Gain
213.153	4.0	0.015	279.839	15.0	1	6.61	3.3	19.5512	955.0	1.82	Outcome1	6.61	8.7	3.3485	Yes	n/a	-2.09163835409589	n/a	n/a	n/a	ShowChoice	Gain
217.182	1.0	0.029	283.868	15.0	1	6.61	3.3	19.5512	955.0	1.82	Outcome1	6.61	8.7	3.3485	Yes	n/a	-2.09163835409589	n/a	n/a	n/a	ShowResult	Gain
218.202	7.614	0.02	284.888	15.0	1	6.61	3.3	19.5512	955.0	1.82	Outcome1	6.61	8.7	3.3485	Yes	n/a	-2.09163835409589	n/a	n/a	n/a	ISITrial	Gain
225.841	3.348	0.025	292.527	15.0	1	6.61	3.3	19.5512	955.0	1.82	Outcome1	6.61	8.7	3.3485	Yes	n/a	-2.09163835409589	n/a	n/a	n/a	TrialHappPreview	Gain
229.218	4.012	0.029	295.904	15.0	1	6.61	3.3	19.5512	955.0	1.82	Outcome1	6.61	8.7	3.3485	Yes	n/a	-2.09163835409589	n/a	n/a	348.0	TrialHappiness	Gain
229.219	2.539	n/a	296.267	15.0	1	6.61	3.3	19.5512	955.0	1.82	Outcome1	6.61	8.7	3.3485	Yes	n/a	-2.09163835409589	n/a	n/a	348.0	TrialHappinessSliderResponse	Gain
233.23	5.394	4.012	299.916	15.0	1	6.61	3.3	19.5512	955.0	1.82	Outcome1	6.61	8.7	3.3485	Yes	n/a	-2.09163835409589	n/a	n/a	n/a	ISIRate	Gain
238.646	3.0	0.022	305.332	16.0	1	4.9	-3.0	20.1637	955.0	2.0	Outcome1	4.9	-12.1	0.0	No	2.0	17.0033975084938	1.872	240.518	n/a	GetAnswer	Gain
240.535	4.0	0.017	307.221	16.0	1	4.9	-3.0	20.1637	955.0	2.0	Outcome1	4.9	-12.1	0.0	No	n/a	17.0033975084938	n/a	n/a	n/a	ShowChoice	Gain
244.547	1.0	0.012	311.233	16.0	1	4.9	-3.0	20.1637	955.0	2.0	Outcome1	4.9	-12.1	0.0	No	n/a	17.0033975084938	n/a	n/a	n/a	ShowResult	Gain
245.567	3.008	0.02	312.253	16.0	1	4.9	-3.0	20.1637	955.0	2.0	Outcome1	4.9	-12.1	0.0	No	n/a	17.0033975084938	n/a	n/a	n/a	ISITrial	Gain
248.593	3.0	0.018	315.279	17.0	1	7.62	3.81	21.1162	955.0	1.82	Outcome1	7.62	10.7	3.0415	Yes	2.0	-3.07823707059268	1.435	250.028	n/a	GetAnswer	Loss
250.047	4.0	0.019	316.733	17.0	1	7.62	3.81	21.1162	955.0	1.82	Outcome1	7.62	10.7	3.0415	Yes	n/a	-3.07823707059268	n/a	n/a	n/a	ShowChoice	Loss
254.059	1.0	0.012	320.745	17.0	1	7.62	3.81	21.1162	955.0	1.82	Outcome1	7.62	10.7	3.0415	Yes	n/a	-3.07823707059268	n/a	n/a	n/a	ShowResult	Loss
255.079	3.566	0.02	321.765	17.0	1	7.62	3.81	21.1162	955.0	1.82	Outcome1	7.62	10.7	3.0415	Yes	n/a	-3.07823707059268	n/a	n/a	n/a	ISITrial	Loss
258.656	3.042	0.011	325.342	17.0	1	7.62	3.81	21.1162	955.0	1.82	Outcome1	7.62	10.7	3.0415	Yes	n/a	-3.07823707059268	n/a	n/a	n/a	TrialHappPreview	Loss
261.715	4.012	0.017	328.401	17.0	1	7.62	3.81	21.1162	955.0	1.82	Outcome1	7.62	10.7	3.0415	Yes	n/a	-3.07823707059268	n/a	n/a	456.0	TrialHappiness	Loss
261.716	0.26	n/a	328.751	17.0	1	7.62	3.81	21.1162	955.0	1.82	Outcome1	7.62	10.7	3.0415	Yes	n/a	-3.07823707059268	n/a	n/a	456.0	TrialHappinessSliderResponse	Loss
265.727	4.166	4.012	332.413	17.0	1	7.62	3.81	21.1162	955.0	1.82	Outcome1	7.62	10.7	3.0415	Yes	n/a	-3.07823707059268	n/a	n/a	n/a	ISIRate	Loss
269.923	3.0	0.03	336.609	18.0	1	-1.0	-1.0	20.9912	955.0	1.82	Certain	-9.84	6.7	0.0	No	4.0	16.5436013590034	2.207	272.13	n/a	GetAnswer	Gain
272.146	4.0	0.016	338.832	18.0	1	-1.0	-1.0	20.9912	955.0	1.82	Certain	-9.84	6.7	0.0	No	n/a	16.5436013590034	n/a	n/a	n/a	ShowChoice	Gain
276.158	1.0	0.012	342.844	18.0	1	-1.0	-1.0	20.9912	955.0	1.82	Certain	-9.84	6.7	0.0	No	n/a	16.5436013590034	n/a	n/a	n/a	ShowResult	Gain
277.178	6.787	0.02	343.864	18.0	1	-1.0	-1.0	20.9912	955.0	1.82	Certain	-9.84	6.7	0.0	No	n/a	16.5436013590034	n/a	n/a	n/a	ISITrial	Gain
283.982	3.0	0.017	350.668	19.0	1	-5.0	-5.0	20.3662	955.0	0.4	Certain	-14.21	2.9	0.0	No	4.0	17.1087202718007	1.649	285.631	n/a	GetAnswer	Mixed
285.653	4.0	0.022	352.339	19.0	1	-5.0	-5.0	20.3662	955.0	0.4	Certain	-14.21	2.9	0.0	No	n/a	17.1087202718007	n/a	n/a	n/a	ShowChoice	Mixed
289.665	1.0	0.012	356.351	19.0	1	-5.0	-5.0	20.3662	955.0	0.4	Certain	-14.21	2.9	0.0	No	n/a	17.1087202718007	n/a	n/a	n/a	ShowResult	Mixed
290.685	2.0	0.02	357.371	19.0	1	-5.0	-5.0	20.3662	955.0	0.4	Certain	-14.21	2.9	0.0	No	n/a	17.1087202718007	n/a	n/a	n/a	ISITrial	Mixed
292.708	3.0	0.023	359.394	20.0	1	5.1	-3.0	21.0037	955.0	2.22	Outcome2	-12.57	5.1	2.92125	Yes	2.0	17.673839184598	2.027	294.735	n/a	GetAnswer	Gain
294.747	4.0	0.012	361.433	20.0	1	5.1	-3.0	21.0037	955.0	2.22	Outcome2	-12.57	5.1	2.92125	Yes	n/a	17.673839184598	n/a	n/a	n/a	ShowChoice	Gain
298.759	1.0	0.012	365.445	20.0	1	5.1	-3.0	21.0037	955.0	2.22	Outcome2	-12.57	5.1	2.92125	Yes	n/a	17.673839184598	n/a	n/a	n/a	ShowResult	Gain
299.779	8.0	0.02	366.465	20.0	1	5.1	-3.0	21.0037	955.0	2.22	Outcome2	-12.57	5.1	2.92125	Yes	n/a	17.673839184598	n/a	n/a	n/a	ISITrial	Gain
307.803	2.921	0.024	374.489	20.0	1	5.1	-3.0	21.0037	955.0	2.22	Outcome2	-12.57	5.1	2.92125	Yes	n/a	17.673839184598	n/a	n/a	n/a	TrialHappPreview	Gain
310.745	4.012	0.021	377.431	20.0	1	5.1	-3.0	21.0037	955.0	2.22	Outcome2	-12.57	5.1	2.92125	Yes	n/a	17.673839184598	n/a	n/a	648.0	TrialHappiness	Gain
310.745	0.427	n/a	377.779	20.0	1	5.1	-3.0	21.0037	955.0	2.22	Outcome2	-12.57	5.1	2.92125	Yes	n/a	17.673839184598	n/a	n/a	648.0	TrialHappinessSliderResponse	Gain
314.757	3.685	4.012	381.443	20.0	1	5.1	-3.0	21.0037	955.0	2.22	Outcome2	-12.57	5.1	2.92125	Yes	n/a	17.673839184598	n/a	n/a	n/a	ISIRate	Gain
318.468	3.0	0.026	385.154	21.0	1	5.44	2.72	21.6837	955.0	2.8	Outcome1	5.44	7.5	0.0	No	2.0	-2.05936202340506	1.418	319.886	n/a	GetAnswer	Gain
319.905	4.0	0.019	386.591	21.0	1	5.44	2.72	21.6837	955.0	2.8	Outcome1	5.44	7.5	0.0	No	n/a	-2.05936202340506	n/a	n/a	n/a	ShowChoice	Gain
323.917	1.0	0.012	390.603	21.0	1	5.44	2.72	21.6837	955.0	2.8	Outcome1	5.44	7.5	0.0	No	n/a	-2.05936202340506	n/a	n/a	n/a	ShowResult	Gain
324.937	3.555	0.02	391.623	21.0	1	5.44	2.72	21.6837	955.0	2.8	Outcome1	5.44	7.5	0.0	No	n/a	-2.05936202340506	n/a	n/a	n/a	ISITrial	Gain
328.515	3.0	0.023	395.201	22.0	1	7.41	3.7	22.6099	955.0	2.8	Outcome1	7.41	9.5	3.2195	Yes	2.0	-2.08833522083805	1.195	329.71	n/a	GetAnswer	Gain
329.735	4.0	0.025	396.421	22.0	1	7.41	3.7	22.6099	955.0	2.8	Outcome1	7.41	9.5	3.2195	Yes	n/a	-2.08833522083805	n/a	n/a	n/a	ShowChoice	Gain
333.747	1.0	0.012	400.433	22.0	1	7.41	3.7	22.6099	955.0	2.8	Outcome1	7.41	9.5	3.2195	Yes	n/a	-2.08833522083805	n/a	n/a	n/a	ShowResult	Gain
334.767	6.793	0.02	401.453	22.0	1	7.41	3.7	22.6099	955.0	2.8	Outcome1	7.41	9.5	3.2195	Yes	n/a	-2.08833522083805	n/a	n/a	n/a	ISITrial	Gain
341.57	3.22	0.01	408.256	22.0	1	7.41	3.7	22.6099	955.0	2.8	Outcome1	7.41	9.5	3.2195	Yes	n/a	-2.08833522083805	n/a	n/a	n/a	TrialHappPreview	Gain
344.813	4.012	0.023	411.499	22.0	1	7.41	3.7	22.6099	955.0	2.8	Outcome1	7.41	9.5	3.2195	Yes	n/a	-2.08833522083805	n/a	n/a	640.0	TrialHappiness	Gain
344.814	0.412	n/a	411.863	22.0	1	7.41	3.7	22.6099	955.0	2.8	Outcome1	7.41	9.5	3.2195	Yes	n/a	-2.08833522083805	n/a	n/a	640.0	TrialHappinessSliderResponse	Gain
348.825	4.878	4.012	415.511	22.0	1	7.41	3.7	22.6099	955.0	2.8	Outcome1	7.41	9.5	3.2195	Yes	n/a	-2.08833522083805	n/a	n/a	n/a	ISIRate	Gain
353.723	3.0	0.02	420.409	23.0	1	2.7	-5.0	22.9474	955.0	0.3	Outcome1	2.7	-13.11	0.0	No	2.0	15.8086070215176	1.304	355.027	n/a	GetAnswer	Mixed
355.044	4.0	0.017	421.73	23.0	1	2.7	-5.0	22.9474	955.0	0.3	Outcome1	2.7	-13.11	0.0	No	n/a	15.8086070215176	n/a	n/a	n/a	ShowChoice	Mixed
359.056	1.0	0.012	425.742	23.0	1	2.7	-5.0	22.9474	955.0	0.3	Outcome1	2.7	-13.11	0.0	No	n/a	15.8086070215176	n/a	n/a	n/a	ShowResult	Mixed
360.075	8.0	0.019	426.761	23.0	1	2.7	-5.0	22.9474	955.0	0.3	Outcome1	2.7	-13.11	0.0	No	n/a	15.8086070215176	n/a	n/a	n/a	ISITrial	Mixed
368.099	3.0	0.024	434.785	24.0	1	3.3	-5.0	23.3599	955.0	0.66	Outcome1	3.3	-12.87	3.255	Yes	2.0	16.1653454133635	1.756	369.855	n/a	GetAnswer	Mixed
369.871	4.0	0.016	436.557	24.0	1	3.3	-5.0	23.3599	955.0	0.66	Outcome1	3.3	-12.87	3.255	Yes	n/a	16.1653454133635	n/a	n/a	n/a	ShowChoice	Mixed
373.883	1.0	0.012	440.569	24.0	1	3.3	-5.0	23.3599	955.0	0.66	Outcome1	3.3	-12.87	3.255	Yes	n/a	16.1653454133635	n/a	n/a	n/a	ShowResult	Mixed
374.903	2.0	0.02	441.589	24.0	1	3.3	-5.0	23.3599	955.0	0.66	Outcome1	3.3	-12.87	3.255	Yes	n/a	16.1653454133635	n/a	n/a	n/a	ISITrial	Mixed
376.926	3.255	0.023	443.612	24.0	1	3.3	-5.0	23.3599	955.0	0.66	Outcome1	3.3	-12.87	3.255	Yes	n/a	16.1653454133635	n/a	n/a	n/a	TrialHappPreview	Mixed
380.202	4.012	0.021	446.888	24.0	1	3.3	-5.0	23.3599	955.0	0.66	Outcome1	3.3	-12.87	3.255	Yes	n/a	16.1653454133635	n/a	n/a	792.0	TrialHappiness	Mixed
380.203	0.727	n/a	447.121	24.0	1	3.3	-5.0	23.3599	955.0	0.66	Outcome1	3.3	-12.87	3.255	Yes	n/a	16.1653454133635	n/a	n/a	792.0	TrialHappinessSliderResponse	Mixed
384.214	5.02	4.012	450.9	24.0	1	3.3	-5.0	23.3599	955.0	0.66	Outcome1	3.3	-12.87	3.255	Yes	n/a	16.1653454133635	n/a	n/a	n/a	ISIRate	Mixed
389.263	3.0	0.029	455.949	25.0	1	6.71	3.36	24.1987	955.0	5.0	Outcome1	6.71	8.3	0.0	No	2.0	-1.5923933559833898	1.062	390.325	n/a	GetAnswer	Gain
390.349	4.0	0.024	457.035	25.0	1	6.71	3.36	24.1987	955.0	5.0	Outcome1	6.71	8.3	0.0	No	n/a	-1.5923933559833898	n/a	n/a	n/a	ShowChoice	Gain
394.361	1.0	0.012	461.047	25.0	1	6.71	3.36	24.1987	955.0	5.0	Outcome1	6.71	8.3	0.0	No	n/a	-1.5923933559833898	n/a	n/a	n/a	ShowResult	Gain
395.381	3.749	0.02	462.067	25.0	1	6.71	3.36	24.1987	955.0	5.0	Outcome1	6.71	8.3	0.0	No	n/a	-1.5923933559833898	n/a	n/a	n/a	ISITrial	Gain
399.159	3.0	0.029	465.845	26.0	1	13.1	-0.51	25.8362	955.0	2.22	Outcome1	13.1	-1.02	0.0	No	2.0	14.1245753114383	1.735	400.894	n/a	GetAnswer	Loss
400.914	4.0	0.02	467.6	26.0	1	13.1	-0.51	25.8362	955.0	2.22	Outcome1	13.1	-1.02	0.0	No	n/a	14.1245753114383	n/a	n/a	n/a	ShowChoice	Loss
404.926	1.0	0.012	471.612	26.0	1	13.1	-0.51	25.8362	955.0	2.22	Outcome1	13.1	-1.02	0.0	No	n/a	14.1245753114383	n/a	n/a	n/a	ShowResult	Loss
405.946	7.834	0.02	472.632	26.0	1	13.1	-0.51	25.8362	955.0	2.22	Outcome1	13.1	-1.02	0.0	No	n/a	14.1245753114383	n/a	n/a	n/a	ISITrial	Loss
413.803	3.0	0.023	480.489	27.0	1	3.08	1.54	26.2212	955.0	1.82	Outcome2	4.7	3.08	2.54975	Yes	2.0	-1.62315968289921	1.305	415.108	n/a	GetAnswer	Gain
415.123	4.0	0.015	481.809	27.0	1	3.08	1.54	26.2212	955.0	1.82	Outcome2	4.7	3.08	2.54975	Yes	n/a	-1.62315968289921	n/a	n/a	n/a	ShowChoice	Gain
419.135	1.0	0.012	485.821	27.0	1	3.08	1.54	26.2212	955.0	1.82	Outcome2	4.7	3.08	2.54975	Yes	n/a	-1.62315968289921	n/a	n/a	n/a	ShowResult	Gain
420.155	4.225	0.02	486.841	27.0	1	3.08	1.54	26.2212	955.0	1.82	Outcome2	4.7	3.08	2.54975	Yes	n/a	-1.62315968289921	n/a	n/a	n/a	ISITrial	Gain
424.401	2.55	0.021	491.087	27.0	1	3.08	1.54	26.2212	955.0	1.82	Outcome2	4.7	3.08	2.54975	Yes	n/a	-1.62315968289921	n/a	n/a	n/a	TrialHappPreview	Gain
426.975	4.012	0.024	493.661	27.0	1	3.08	1.54	26.2212	955.0	1.82	Outcome2	4.7	3.08	2.54975	Yes	2{-2}	-1.62315968289921	0.842	427.817	672.0	TrialHappiness	Gain
426.976	0.474	n/a	494.03	27.0	1	3.08	1.54	26.2212	955.0	1.82	Outcome2	4.7	3.08	2.54975	Yes	n/a	-1.62315968289921	n/a	n/a	672.0	TrialHappinessSliderResponse	Gain
430.987	2.199	4.012	497.673	27.0	1	3.08	1.54	26.2212	955.0	1.82	Outcome2	4.7	3.08	2.54975	Yes	n/a	-1.62315968289921	n/a	n/a	n/a	ISIRate	Gain
492.12	1.113	n/a	559.22	n/a	1	n/a	n/a	n/a	n/a	n/a	n/a	n/a	n/a	n/a	n/a	n/a	n/a	n/a	n/a	72.0	BlockStartHappinessSliderResponse	n/a
-68.287	-0.001	0.025	499.897	n/a	2	n/a	n/a	n/a	n/a	n/a	n/a	n/a	n/a	n/a	n/a	{SPACE}	n/a	54.87	-13.417	n/a	Rest	n/a
-13.39	4.0	0.027	554.794	n/a	2	n/a	n/a	n/a	n/a	n/a	n/a	n/a	n/a	n/a	n/a	n/a	n/a	n/a	n/a	n/a	BlockHappyPreview	n/a
-9.378	1.527	0.012	558.806	n/a	2	n/a	n/a	n/a	n/a	n/a	n/a	n/a	n/a	n/a	n/a	n/a	n/a	n/a	n/a	72.0	BlockStartHappiness	n/a
-3.327	-0.001	0.01	564.857	n/a	2	n/a	n/a	n/a	n/a	n/a	n/a	n/a	n/a	n/a	n/a	5.0	n/a	3.316	-0.011	n/a	ScanWait	n/a
0.0	10.0	0.011	568.184	n/a	2	n/a	n/a	n/a	n/a	n/a	n/a	n/a	n/a	n/a	n/a	n/a	n/a	n/a	n/a	n/a	GetReady	n/a
10.013	3.0	0.013	578.197	28.0	2	9.87	4.93	27.455	70.0	3.6	Outcome1	9.87	9.9	0.0	No	2.0	-0.0340136054421769	1.045	11.058	n/a	GetAnswer	Gain
11.083	4.0	0.025	579.267	28.0	2	9.87	4.93	27.455	70.0	3.6	Outcome1	9.87	9.9	0.0	No	n/a	-0.0340136054421769	n/a	n/a	n/a	ShowChoice	Gain
15.095	1.0	0.012	583.279	28.0	2	9.87	4.93	27.455	70.0	3.6	Outcome1	9.87	9.9	0.0	No	n/a	-0.0340136054421769	n/a	n/a	n/a	ShowResult	Gain
16.115	3.575	0.02	584.299	28.0	2	9.87	4.93	27.455	70.0	3.6	Outcome1	9.87	9.9	0.0	No	n/a	-0.0340136054421769	n/a	n/a	n/a	ISITrial	Gain
19.709	3.0	0.019	587.893	29.0	2	10.06	5.03	28.7125	70.0	4.2	Outcome2	10.1	10.06	3.529	Yes	2.0	-0.0362811791383219	1.187	20.896	n/a	GetAnswer	Gain
20.912	4.0	0.016	589.096	29.0	2	10.06	5.03	28.7125	70.0	4.2	Outcome2	10.1	10.06	3.529	Yes	n/a	-0.0362811791383219	n/a	n/a	n/a	ShowChoice	Gain
24.924	1.0	0.012	593.108	29.0	2	10.06	5.03	28.7125	70.0	4.2	Outcome2	10.1	10.06	3.529	Yes	n/a	-0.0362811791383219	n/a	n/a	n/a	ShowResult	Gain
25.944	3.955	0.02	594.128	29.0	2	10.06	5.03	28.7125	70.0	4.2	Outcome2	10.1	10.06	3.529	Yes	n/a	-0.0362811791383219	n/a	n/a	n/a	ISITrial	Gain
29.923	3.529	0.024	598.107	29.0	2	10.06	5.03	28.7125	70.0	4.2	Outcome2	10.1	10.06	3.529	Yes	n/a	-0.0362811791383219	n/a	n/a	n/a	TrialHappPreview	Gain
33.466	4.012	0.014	601.65	29.0	2	10.06	5.03	28.7125	70.0	4.2	Outcome2	10.1	10.06	3.529	Yes	n/a	-0.0362811791383219	n/a	n/a	952.0	TrialHappiness	Gain
33.467	1.14	n/a	601.921	29.0	2	10.06	5.03	28.7125	70.0	4.2	Outcome2	10.1	10.06	3.529	Yes	n/a	-0.0362811791383219	n/a	n/a	952.0	TrialHappinessSliderResponse	Gain
37.478	6.116	4.012	605.662	29.0	2	10.06	5.03	28.7125	70.0	4.2	Outcome2	10.1	10.06	3.529	Yes	n/a	-0.0362811791383219	n/a	n/a	n/a	ISIRate	Gain
43.613	3.0	0.019	611.797	30.0	2	-1.0	-1.0	28.5875	70.0	3.6	Certain	-9.1	5.9	0.0	No	4.0	-15.004535147392302	2.409	46.022	n/a	GetAnswer	Gain
46.037	4.0	0.015	614.221	30.0	2	-1.0	-1.0	28.5875	70.0	3.6	Certain	-9.1	5.9	0.0	No	n/a	-15.004535147392302	n/a	n/a	n/a	ShowChoice	Gain
50.049	1.0	0.012	618.233	30.0	2	-1.0	-1.0	28.5875	70.0	3.6	Certain	-9.1	5.9	0.0	No	n/a	-15.004535147392302	n/a	n/a	n/a	ShowResult	Gain
51.069	4.453	0.02	619.253	30.0	2	-1.0	-1.0	28.5875	70.0	3.6	Certain	-9.1	5.9	0.0	No	n/a	-15.004535147392302	n/a	n/a	n/a	ISITrial	Gain
55.549	3.0	0.027	623.733	31.0	2	-8.1	0.0	27.575	70.0	3.6	Outcome2	7.9	-8.1	2.50325	Yes	2.0	-16.0045351473923	1.322	56.871	n/a	GetAnswer	Gain
56.886	4.0	0.015	625.07	31.0	2	-8.1	0.0	27.575	70.0	3.6	Outcome2	7.9	-8.1	2.50325	Yes	n/a	-16.0045351473923	n/a	n/a	n/a	ShowChoice	Gain
60.898	1.0	0.012	629.082	31.0	2	-8.1	0.0	27.575	70.0	3.6	Outcome2	7.9	-8.1	2.50325	Yes	n/a	-16.0045351473923	n/a	n/a	n/a	ShowResult	Gain
61.918	4.786	0.02	630.102	31.0	2	-8.1	0.0	27.575	70.0	3.6	Outcome2	7.9	-8.1	2.50325	Yes	n/a	-16.0045351473923	n/a	n/a	n/a	ISITrial	Gain
66.716	2.503	0.012	634.9	31.0	2	-8.1	0.0	27.575	70.0	3.6	Outcome2	7.9	-8.1	2.50325	Yes	n/a	-16.0045351473923	n/a	n/a	n/a	TrialHappPreview	Gain
69.24	4.012	0.021	637.424	31.0	2	-8.1	0.0	27.575	70.0	3.6	Outcome2	7.9	-8.1	2.50325	Yes	n/a	-16.0045351473923	n/a	n/a	228.0	TrialHappiness	Gain
69.241	2.04	n/a	637.733	31.0	2	-8.1	0.0	27.575	70.0	3.6	Outcome2	7.9	-8.1	2.50325	Yes	n/a	-16.0045351473923	n/a	n/a	228.0	TrialHappinessSliderResponse	Gain
73.252	2.013	4.012	641.436	31.0	2	-8.1	0.0	27.575	70.0	3.6	Outcome2	7.9	-8.1	2.50325	Yes	n/a	-16.0045351473923	n/a	n/a	n/a	ISIRate	Gain
75.291	3.0	0.026	643.475	32.0	2	-5.59	-3.0	26.8762	70.0	0.52	Outcome1	-5.59	-0.9	0.0	No	2.0	-4.691609977324259	2.262	77.553	n/a	GetAnswer	Mixed
77.565	4.0	0.012	645.749	32.0	2	-5.59	-3.0	26.8762	70.0	0.52	Outcome1	-5.59	-0.9	0.0	No	n/a	-4.691609977324259	n/a	n/a	n/a	ShowChoice	Mixed
81.577	1.0	0.012	649.761	32.0	2	-5.59	-3.0	26.8762	70.0	0.52	Outcome1	-5.59	-0.9	0.0	No	n/a	-4.691609977324259	n/a	n/a	n/a	ShowResult	Mixed
82.597	2.0	0.02	650.781	32.0	2	-5.59	-3.0	26.8762	70.0	0.52	Outcome1	-5.59	-0.9	0.0	No	n/a	-4.691609977324259	n/a	n/a	n/a	ISITrial	Mixed
84.619	3.0	0.022	652.803	33.0	2	-5.17	-2.0	26.23	70.0	1.0	Outcome1	-5.17	-0.3	0.0	No	2.0	-4.870748299319731	2.105	86.724	n/a	GetAnswer	Mixed
86.742	4.0	0.018	654.926	33.0	2	-5.17	-2.0	26.23	70.0	1.0	Outcome1	-5.17	-0.3	0.0	No	n/a	-4.870748299319731	n/a	n/a	n/a	ShowChoice	Mixed
90.754	1.0	0.012	658.938	33.0	2	-5.17	-2.0	26.23	70.0	1.0	Outcome1	-5.17	-0.3	0.0	No	n/a	-4.870748299319731	n/a	n/a	n/a	ShowResult	Mixed
91.774	5.099	0.02	659.958	33.0	2	-5.17	-2.0	26.23	70.0	1.0	Outcome1	-5.17	-0.3	0.0	No	n/a	-4.870748299319731	n/a	n/a	n/a	ISITrial	Mixed
96.889	3.0	0.016	665.073	34.0	2	-1.0	-1.0	26.105	70.0	0.52	Certain	-3.95	1.1	3.2315	Yes	4.0	-5.04988662131519	1.382	98.271	n/a	GetAnswer	Mixed
98.293	4.0	0.022	666.477	34.0	2	-1.0	-1.0	26.105	70.0	0.52	Certain	-3.95	1.1	3.2315	Yes	n/a	-5.04988662131519	n/a	n/a	n/a	ShowChoice	Mixed
102.305	1.0	0.012	670.489	34.0	2	-1.0	-1.0	26.105	70.0	0.52	Certain	-3.95	1.1	3.2315	Yes	n/a	-5.04988662131519	n/a	n/a	n/a	ShowResult	Mixed
103.325	4.784	0.02	671.509	34.0	2	-1.0	-1.0	26.105	70.0	0.52	Certain	-3.95	1.1	3.2315	Yes	n/a	-5.04988662131519	n/a	n/a	n/a	ISITrial	Mixed
108.123	3.232	0.014	676.307	34.0	2	-1.0	-1.0	26.105	70.0	0.52	Certain	-3.95	1.1	3.2315	Yes	n/a	-5.04988662131519	n/a	n/a	n/a	TrialHappPreview	Mixed
111.382	4.012	0.027	679.566	34.0	2	-1.0	-1.0	26.105	70.0	0.52	Certain	-3.95	1.1	3.2315	Yes	n/a	-5.04988662131519	n/a	n/a	248.0	TrialHappiness	Mixed
111.383	0.7	n/a	679.876	34.0	2	-1.0	-1.0	26.105	70.0	0.52	Certain	-3.95	1.1	3.2315	Yes	n/a	-5.04988662131519	n/a	n/a	248.0	TrialHappinessSliderResponse	Mixed
115.394	4.926	4.012	683.578	34.0	2	-1.0	-1.0	26.105	70.0	0.52	Certain	-3.95	1.1	3.2315	Yes	n/a	-5.04988662131519	n/a	n/a	n/a	ISIRate	Mixed
120.343	3.0	0.023	688.527	35.0	2	0.57	0.0	26.1763	70.0	2.0	Outcome1	0.57	-0.36	0.0	No	2.0	0.934996220710506	1.805	122.148	n/a	GetAnswer	Mixed
122.165	4.0	0.017	690.349	35.0	2	0.57	0.0	26.1763	70.0	2.0	Outcome1	0.57	-0.36	0.0	No	n/a	0.934996220710506	n/a	n/a	n/a	ShowChoice	Mixed
126.177	1.0	0.012	694.361	35.0	2	0.57	0.0	26.1763	70.0	2.0	Outcome1	0.57	-0.36	0.0	No	n/a	0.934996220710506	n/a	n/a	n/a	ShowResult	Mixed
127.196	2.098	0.019	695.38	35.0	2	0.57	0.0	26.1763	70.0	2.0	Outcome1	0.57	-0.36	0.0	No	n/a	0.934996220710506	n/a	n/a	n/a	ISITrial	Mixed
129.319	3.0	0.025	697.503	36.0	2	8.13	4.07	27.1926	70.0	3.6	Outcome1	8.13	13.9	3.33575	Yes	2.0	-5.77097505668934	1.206	130.525	n/a	GetAnswer	Loss
130.54	4.0	0.015	698.724	36.0	2	8.13	4.07	27.1926	70.0	3.6	Outcome1	8.13	13.9	3.33575	Yes	n/a	-5.77097505668934	n/a	n/a	n/a	ShowChoice	Loss
134.552	1.0	0.012	702.736	36.0	2	8.13	4.07	27.1926	70.0	3.6	Outcome1	8.13	13.9	3.33575	Yes	n/a	-5.77097505668934	n/a	n/a	n/a	ShowResult	Loss
135.571	5.156	0.019	703.755	36.0	2	8.13	4.07	27.1926	70.0	3.6	Outcome1	8.13	13.9	3.33575	Yes	n/a	-5.77097505668934	n/a	n/a	n/a	ISITrial	Loss
140.754	3.336	0.027	708.938	36.0	2	8.13	4.07	27.1926	70.0	3.6	Outcome1	8.13	13.9	3.33575	Yes	n/a	-5.77097505668934	n/a	n/a	n/a	TrialHappPreview	Loss
144.114	4.012	0.024	712.298	36.0	2	8.13	4.07	27.1926	70.0	3.6	Outcome1	8.13	13.9	3.33575	Yes	n/a	-5.77097505668934	n/a	n/a	384.0	TrialHappiness	Loss
144.114	0.412	n/a	712.644	36.0	2	8.13	4.07	27.1926	70.0	3.6	Outcome1	8.13	13.9	3.33575	Yes	n/a	-5.77097505668934	n/a	n/a	384.0	TrialHappinessSliderResponse	Loss
148.126	5.343	4.012	716.31	36.0	2	8.13	4.07	27.1926	70.0	3.6	Outcome1	8.13	13.9	3.33575	Yes	n/a	-5.77097505668934	n/a	n/a	n/a	ISIRate	Loss
153.492	3.0	0.023	721.676	37.0	2	-1.0	-1.0	27.0676	70.0	0.52	Certain	3.1	-5.19	0.0	No	4.0	-8.285714285714281	2.086	155.578	n/a	GetAnswer	Mixed
155.598	4.0	0.02	723.782	37.0	2	-1.0	-1.0	27.0676	70.0	0.52	Certain	3.1	-5.19	0.0	No	n/a	-8.285714285714281	n/a	n/a	n/a	ShowChoice	Mixed
159.61	1.0	0.012	727.794	37.0	2	-1.0	-1.0	27.0676	70.0	0.52	Certain	3.1	-5.19	0.0	No	n/a	-8.285714285714281	n/a	n/a	n/a	ShowResult	Mixed
160.63	3.598	0.02	728.814	37.0	2	-1.0	-1.0	27.0676	70.0	0.52	Certain	3.1	-5.19	0.0	No	n/a	-8.285714285714281	n/a	n/a	n/a	ISITrial	Mixed
164.257	3.0	0.029	732.441	38.0	2	2.46	1.23	27.3751	70.0	2.22	Outcome2	11.1	2.46	0.0	No	2.0	-8.64172335600907	1.353	165.61	n/a	GetAnswer	Loss
165.628	4.0	0.018	733.812	38.0	2	2.46	1.23	27.3751	70.0	2.22	Outcome2	11.1	2.46	0.0	No	n/a	-8.64172335600907	n/a	n/a	n/a	ShowChoice	Loss
169.64	1.0	0.012	737.824	38.0	2	2.46	1.23	27.3751	70.0	2.22	Outcome2	11.1	2.46	0.0	No	n/a	-8.64172335600907	n/a	n/a	n/a	ShowResult	Loss
170.66	4.787	0.02	738.844	38.0	2	2.46	1.23	27.3751	70.0	2.22	Outcome2	11.1	2.46	0.0	No	n/a	-8.64172335600907	n/a	n/a	n/a	ISITrial	Loss
175.474	3.0	0.027	743.658	39.0	2	-0.1	-0.05	27.3626	70.0	2.0	Outcome1	-0.1	8.9	2.86425	Yes	2.0	-8.99773242630386	1.815	177.289	n/a	GetAnswer	Gain
177.313	4.0	0.024	745.497	39.0	2	-0.1	-0.05	27.3626	70.0	2.0	Outcome1	-0.1	8.9	2.86425	Yes	n/a	-8.99773242630386	n/a	n/a	n/a	ShowChoice	Gain
181.325	1.0	0.012	749.509	39.0	2	-0.1	-0.05	27.3626	70.0	2.0	Outcome1	-0.1	8.9	2.86425	Yes	n/a	-8.99773242630386	n/a	n/a	n/a	ShowResult	Gain
182.344	2.348	0.019	750.528	39.0	2	-0.1	-0.05	27.3626	70.0	2.0	Outcome1	-0.1	8.9	2.86425	Yes	n/a	-8.99773242630386	n/a	n/a	n/a	ISITrial	Gain
184.718	2.864	0.026	752.902	39.0	2	-0.1	-0.05	27.3626	70.0	2.0	Outcome1	-0.1	8.9	2.86425	Yes	n/a	-8.99773242630386	n/a	n/a	n/a	TrialHappPreview	Gain
187.61	4.012	0.028	755.794	39.0	2	-0.1	-0.05	27.3626	70.0	2.0	Outcome1	-0.1	8.9	2.86425	Yes	n/a	-8.99773242630386	n/a	n/a	352.0	TrialHappiness	Gain
187.611	0.484	n/a	756.153	39.0	2	-0.1	-0.05	27.3626	70.0	2.0	Outcome1	-0.1	8.9	2.86425	Yes	n/a	-8.99773242630386	n/a	n/a	352.0	TrialHappinessSliderResponse	Gain
191.622	3.457	4.012	759.806	39.0	2	-0.1	-0.05	27.3626	70.0	2.0	Outcome1	-0.1	8.9	2.86425	Yes	n/a	-8.99773242630386	n/a	n/a	n/a	ISIRate	Gain
195.099	3.0	0.02	763.283	40.0	2	4.09	2.04	27.8738	70.0	2.0	Outcome2	12.9	4.09	0.0	No	2.0	-8.80952380952381	1.391	196.49	n/a	GetAnswer	Loss
196.503	4.0	0.013	764.687	40.0	2	4.09	2.04	27.8738	70.0	2.0	Outcome2	12.9	4.09	0.0	No	n/a	-8.80952380952381	n/a	n/a	n/a	ShowChoice	Loss
200.515	1.0	0.012	768.699	40.0	2	4.09	2.04	27.8738	70.0	2.0	Outcome2	12.9	4.09	0.0	No	n/a	-8.80952380952381	n/a	n/a	n/a	ShowResult	Loss
201.535	3.158	0.02	769.719	40.0	2	4.09	2.04	27.8738	70.0	2.0	Outcome2	12.9	4.09	0.0	No	n/a	-8.80952380952381	n/a	n/a	n/a	ISITrial	Loss
204.711	3.0	0.018	772.895	41.0	2	1.92	1.0	28.1138	70.0	3.16	Outcome2	0.41	1.92	4.0	Yes	2.0	1.5068027210884398	1.699	206.41	n/a	GetAnswer	Gain
206.433	4.0	0.023	774.617	41.0	2	1.92	1.0	28.1138	70.0	3.16	Outcome2	0.41	1.92	4.0	Yes	n/a	1.5068027210884398	n/a	n/a	n/a	ShowChoice	Gain
210.445	1.0	0.012	778.629	41.0	2	1.92	1.0	28.1138	70.0	3.16	Outcome2	0.41	1.92	4.0	Yes	n/a	1.5068027210884398	n/a	n/a	n/a	ShowResult	Gain
211.465	4.506	0.02	779.649	41.0	2	1.92	1.0	28.1138	70.0	3.16	Outcome2	0.41	1.92	4.0	Yes	n/a	1.5068027210884398	n/a	n/a	n/a	ISITrial	Gain
215.995	4.0	0.024	784.179	41.0	2	1.92	1.0	28.1138	70.0	3.16	Outcome2	0.41	1.92	4.0	Yes	n/a	1.5068027210884398	n/a	n/a	n/a	TrialHappPreview	Gain
220.024	4.012	0.029	788.208	41.0	2	1.92	1.0	28.1138	70.0	3.16	Outcome2	0.41	1.92	4.0	Yes	n/a	1.5068027210884398	n/a	n/a	512.0	TrialHappiness	Gain
220.024	0.0	n/a	788.208	41.0	2	1.92	1.0	28.1138	70.0	3.16	Outcome2	0.41	1.92	4.0	Yes	n/a	1.5068027210884398	n/a	n/a	512.0	TrialHappinessSliderResponse	Gain
224.036	8.0	4.012	792.22	41.0	2	1.92	1.0	28.1138	70.0	3.16	Outcome2	0.41	1.92	4.0	Yes	n/a	1.5068027210884398	n/a	n/a	n/a	ISIRate	Gain
232.06	3.0	0.024	800.244	42.0	2	-5.0	-5.0	27.4888	70.0	0.2	Certain	-11.67	0.5	0.0	No	4.0	-12.1700680272109	1.847	233.907	n/a	GetAnswer	Mixed
233.932	4.0	0.025	802.116	42.0	2	-5.0	-5.0	27.4888	70.0	0.2	Certain	-11.67	0.5	0.0	No	n/a	-12.1700680272109	n/a	n/a	n/a	ShowChoice	Mixed
237.944	1.0	0.012	806.128	42.0	2	-5.0	-5.0	27.4888	70.0	0.2	Certain	-11.67	0.5	0.0	No	n/a	-12.1700680272109	n/a	n/a	n/a	ShowResult	Mixed
238.963	6.248	0.019	807.147	42.0	2	-5.0	-5.0	27.4888	70.0	0.2	Certain	-11.67	0.5	0.0	No	n/a	-12.1700680272109	n/a	n/a	n/a	ISITrial	Mixed
245.232	3.0	0.021	813.416	43.0	2	2.98	2.0	27.8613	70.0	3.6	Outcome2	0.75	2.98	2.77575	Yes	2.0	2.22524565381708	1.233	246.465	n/a	GetAnswer	Loss
246.486	4.0	0.021	814.67	43.0	2	2.98	2.0	27.8613	70.0	3.6	Outcome2	0.75	2.98	2.77575	Yes	n/a	2.22524565381708	n/a	n/a	n/a	ShowChoice	Loss
250.498	1.0	0.012	818.682	43.0	2	2.98	2.0	27.8613	70.0	3.6	Outcome2	0.75	2.98	2.77575	Yes	n/a	2.22524565381708	n/a	n/a	n/a	ShowResult	Loss
251.518	4.596	0.02	819.702	43.0	2	2.98	2.0	27.8613	70.0	3.6	Outcome2	0.75	2.98	2.77575	Yes	n/a	2.22524565381708	n/a	n/a	n/a	ISITrial	Loss
256.131	2.776	0.017	824.315	43.0	2	2.98	2.0	27.8613	70.0	3.6	Outcome2	0.75	2.98	2.77575	Yes	n/a	2.22524565381708	n/a	n/a	n/a	TrialHappPreview	Loss
258.923	4.012	0.016	827.107	43.0	2	2.98	2.0	27.8613	70.0	3.6	Outcome2	0.75	2.98	2.77575	Yes	n/a	2.22524565381708	n/a	n/a	352.0	TrialHappiness	Loss
258.924	0.479	n/a	827.387	43.0	2	2.98	2.0	27.8613	70.0	3.6	Outcome2	0.75	2.98	2.77575	Yes	n/a	2.22524565381708	n/a	n/a	352.0	TrialHappinessSliderResponse	Loss
262.935	3.103	4.012	831.119	43.0	2	2.98	2.0	27.8613	70.0	3.6	Outcome2	0.75	2.98	2.77575	Yes	n/a	2.22524565381708	n/a	n/a	n/a	ISIRate	Loss
266.061	3.0	0.023	834.245	44.0	2	-4.0	-4.0	27.3613	70.0	0.4	Certain	-9.55	0.9	0.0	No	4.0	-10.4512471655329	2.018	268.079	n/a	GetAnswer	Mixed
268.101	4.0	0.022	836.285	44.0	2	-4.0	-4.0	27.3613	70.0	0.4	Certain	-9.55	0.9	0.0	No	n/a	-10.4512471655329	n/a	n/a	n/a	ShowChoice	Mixed
272.112	1.0	0.011	840.296	44.0	2	-4.0	-4.0	27.3613	70.0	0.4	Certain	-9.55	0.9	0.0	No	n/a	-10.4512471655329	n/a	n/a	n/a	ShowResult	Mixed
273.132	2.42	0.02	841.316	44.0	2	-4.0	-4.0	27.3613	70.0	0.4	Certain	-9.55	0.9	0.0	No	n/a	-10.4512471655329	n/a	n/a	n/a	ISITrial	Mixed
275.573	3.0	0.021	843.757	45.0	2	1.33	0.66	27.5275	70.0	4.2	Outcome2	12.1	1.33	0.0	No	2.0	-10.7709750566893	1.137	276.71	n/a	GetAnswer	Loss
276.726	4.0	0.015	844.91	45.0	2	1.33	0.66	27.5275	70.0	4.2	Outcome2	12.1	1.33	0.0	No	n/a	-10.7709750566893	n/a	n/a	n/a	ShowChoice	Loss
280.738	1.0	0.012	848.922	45.0	2	1.33	0.66	27.5275	70.0	4.2	Outcome2	12.1	1.33	0.0	No	n/a	-10.7709750566893	n/a	n/a	n/a	ShowResult	Loss
281.758	3.144	0.02	849.942	45.0	2	1.33	0.66	27.5275	70.0	4.2	Outcome2	12.1	1.33	0.0	No	n/a	-10.7709750566893	n/a	n/a	n/a	ISITrial	Loss
284.934	3.0	0.032	853.118	46.0	2	-9.19	-3.0	26.3787	70.0	1.2	Outcome1	-9.19	1.9	3.84125	Yes	2.0	-11.0907029478458	1.965	286.899	n/a	GetAnswer	Mixed
286.923	4.0	0.024	855.107	46.0	2	-9.19	-3.0	26.3787	70.0	1.2	Outcome1	-9.19	1.9	3.84125	Yes	n/a	-11.0907029478458	n/a	n/a	n/a	ShowChoice	Mixed
290.935	1.0	0.012	859.119	46.0	2	-9.19	-3.0	26.3787	70.0	1.2	Outcome1	-9.19	1.9	3.84125	Yes	n/a	-11.0907029478458	n/a	n/a	n/a	ShowResult	Mixed
291.955	2.246	0.02	860.139	46.0	2	-9.19	-3.0	26.3787	70.0	1.2	Outcome1	-9.19	1.9	3.84125	Yes	n/a	-11.0907029478458	n/a	n/a	n/a	ISITrial	Mixed
294.212	3.841	0.011	862.396	46.0	2	-9.19	-3.0	26.3787	70.0	1.2	Outcome1	-9.19	1.9	3.84125	Yes	n/a	-11.0907029478458	n/a	n/a	n/a	TrialHappPreview	Mixed
298.073	4.012	0.02	866.257	46.0	2	-9.19	-3.0	26.3787	70.0	1.2	Outcome1	-9.19	1.9	3.84125	Yes	n/a	-11.0907029478458	n/a	n/a	376.0	TrialHappiness	Mixed
298.074	0.422	n/a	867.715	46.0	2	-9.19	-3.0	26.3787	70.0	1.2	Outcome1	-9.19	1.9	3.84125	Yes	n/a	-11.0907029478458	n/a	n/a	376.0	TrialHappinessSliderResponse	Mixed
302.085	7.365	4.012	870.269	46.0	2	-9.19	-3.0	26.3787	70.0	1.2	Outcome1	-9.19	1.9	3.84125	Yes	n/a	-11.0907029478458	n/a	n/a	n/a	ISIRate	Mixed
309.474	3.0	0.024	877.658	47.0	2	1.02	0.0	26.5062	70.0	1.5	Outcome2	-0.77	1.02	0.0	No	2.0	1.79440665154951	1.5	310.974	n/a	GetAnswer	Mixed
310.995	4.0	0.021	879.179	47.0	2	1.02	0.0	26.5062	70.0	1.5	Outcome2	-0.77	1.02	0.0	No	n/a	1.79440665154951	n/a	n/a	n/a	ShowChoice	Mixed
315.007	1.0	0.012	883.191	47.0	2	1.02	0.0	26.5062	70.0	1.5	Outcome2	-0.77	1.02	0.0	No	n/a	1.79440665154951	n/a	n/a	n/a	ShowResult	Mixed
316.027	2.0	0.02	884.211	47.0	2	1.02	0.0	26.5062	70.0	1.5	Outcome2	-0.77	1.02	0.0	No	n/a	1.79440665154951	n/a	n/a	n/a	ISITrial	Mixed
318.05	3.0	0.023	886.234	48.0	2	-6.87	-1.0	25.6474	70.0	2.48	Outcome1	-6.87	5.3	2.83175	Yes	2.0	-12.1655328798186	1.738	319.788	n/a	GetAnswer	Gain
319.805	4.0	0.017	887.989	48.0	2	-6.87	-1.0	25.6474	70.0	2.48	Outcome1	-6.87	5.3	2.83175	Yes	n/a	-12.1655328798186	n/a	n/a	n/a	ShowChoice	Gain
323.817	1.0	0.012	892.001	48.0	2	-6.87	-1.0	25.6474	70.0	2.48	Outcome1	-6.87	5.3	2.83175	Yes	n/a	-12.1655328798186	n/a	n/a	n/a	ShowResult	Gain
324.837	3.692	0.02	893.021	48.0	2	-6.87	-1.0	25.6474	70.0	2.48	Outcome1	-6.87	5.3	2.83175	Yes	n/a	-12.1655328798186	n/a	n/a	n/a	ISITrial	Gain
328.548	2.832	0.019	896.732	48.0	2	-6.87	-1.0	25.6474	70.0	2.48	Outcome1	-6.87	5.3	2.83175	Yes	n/a	-12.1655328798186	n/a	n/a	n/a	TrialHappPreview	Gain
331.406	4.012	0.026	899.59	48.0	2	-6.87	-1.0	25.6474	70.0	2.48	Outcome1	-6.87	5.3	2.83175	Yes	n/a	-12.1655328798186	n/a	n/a	456.0	TrialHappiness	Gain
331.407	1.09	n/a	899.978	48.0	2	-6.87	-1.0	25.6474	70.0	2.48	Outcome1	-6.87	5.3	2.83175	Yes	n/a	-12.1655328798186	n/a	n/a	456.0	TrialHappinessSliderResponse	Gain
335.418	3.327	4.012	903.602	48.0	2	-6.87	-1.0	25.6474	70.0	2.48	Outcome1	-6.87	5.3	2.83175	Yes	n/a	-12.1655328798186	n/a	n/a	n/a	ISIRate	Gain
338.762	3.0	0.017	906.946	49.0	2	-11.37	-4.0	24.2261	70.0	0.2	Outcome1	-11.37	2.5	0.0	No	2.0	-13.8730158730159	1.883	340.645	n/a	GetAnswer	Mixed
340.667	4.0	0.022	908.851	49.0	2	-11.37	-4.0	24.2261	70.0	0.2	Outcome1	-11.37	2.5	0.0	No	n/a	-13.8730158730159	n/a	n/a	n/a	ShowChoice	Mixed
344.679	1.0	0.012	912.863	49.0	2	-11.37	-4.0	24.2261	70.0	0.2	Outcome1	-11.37	2.5	0.0	No	n/a	-13.8730158730159	n/a	n/a	n/a	ShowResult	Mixed
345.699	8.0	0.02	913.883	49.0	2	-11.37	-4.0	24.2261	70.0	0.2	Outcome1	-11.37	2.5	0.0	No	n/a	-13.8730158730159	n/a	n/a	n/a	ISITrial	Mixed
353.723	3.0	0.024	921.907	50.0	2	-6.0	-6.0	23.4761	70.0	0.3	Certain	0.7	-13.61	3.54725	Yes	4.0	-14.3106575963719	0.311	354.034	n/a	GetAnswer	Mixed
354.057	4.0	0.023	922.241	50.0	2	-6.0	-6.0	23.4761	70.0	0.3	Certain	0.7	-13.61	3.54725	Yes	n/a	-14.3106575963719	n/a	n/a	n/a	ShowChoice	Mixed
358.069	1.0	0.012	926.253	50.0	2	-6.0	-6.0	23.4761	70.0	0.3	Certain	0.7	-13.61	3.54725	Yes	n/a	-14.3106575963719	n/a	n/a	n/a	ShowResult	Mixed
359.089	7.537	0.02	927.273	50.0	2	-6.0	-6.0	23.4761	70.0	0.3	Certain	0.7	-13.61	3.54725	Yes	n/a	-14.3106575963719	n/a	n/a	n/a	ISITrial	Mixed
366.645	3.547	0.019	934.829	50.0	2	-6.0	-6.0	23.4761	70.0	0.3	Certain	0.7	-13.61	3.54725	Yes	n/a	-14.3106575963719	n/a	n/a	n/a	TrialHappPreview	Mixed
370.222	4.012	0.03	938.406	50.0	2	-6.0	-6.0	23.4761	70.0	0.3	Certain	0.7	-13.61	3.54725	Yes	4{-4}	-14.3106575963719	1.527	371.749	72.0	TrialHappiness	Mixed
370.223	1.152	n/a	938.782	50.0	2	-6.0	-6.0	23.4761	70.0	0.3	Certain	0.7	-13.61	3.54725	Yes	n/a	-14.3106575963719	n/a	n/a	72.0	TrialHappinessSliderResponse	Mixed
374.234	6.189	4.012	942.418	50.0	2	-6.0	-6.0	23.4761	70.0	0.3	Certain	0.7	-13.61	3.54725	Yes	n/a	-14.3106575963719	n/a	n/a	n/a	ISIRate	Mixed
380.453	3.0	0.03	948.637	51.0	2	0.0	0.0	23.4761	70.0	2.0	Certain	-0.61	0.08	0.0	No	4.0	0.6900982615268331	2.158	382.611	n/a	GetAnswer	Mixed
382.626	4.0	0.015	950.81	51.0	2	0.0	0.0	23.4761	70.0	2.0	Certain	-0.61	0.08	0.0	No	n/a	0.6900982615268331	n/a	n/a	n/a	ShowChoice	Mixed
386.638	1.0	0.012	954.822	51.0	2	0.0	0.0	23.4761	70.0	2.0	Certain	-0.61	0.08	0.0	No	n/a	0.6900982615268331	n/a	n/a	n/a	ShowResult	Mixed
387.658	5.508	0.02	955.842	51.0	2	0.0	0.0	23.4761	70.0	2.0	Certain	-0.61	0.08	0.0	No	n/a	0.6900982615268331	n/a	n/a	n/a	ISITrial	Mixed
393.191	3.0	0.025	961.375	52.0	2	2.12	2.0	23.7411	70.0	1.68	Outcome1	2.12	1.43	0.0	No	2.0	0.6902872260015122	1.141	394.332	n/a	GetAnswer	Gain
394.344	4.0	0.012	962.528	52.0	2	2.12	2.0	23.7411	70.0	1.68	Outcome1	2.12	1.43	0.0	No	n/a	0.6902872260015122	n/a	n/a	n/a	ShowChoice	Gain
398.356	1.0	0.012	966.54	52.0	2	2.12	2.0	23.7411	70.0	1.68	Outcome1	2.12	1.43	0.0	No	n/a	0.6902872260015122	n/a	n/a	n/a	ShowResult	Gain
399.376	5.913	0.02	967.56	52.0	2	2.12	2.0	23.7411	70.0	1.68	Outcome1	2.12	1.43	0.0	No	n/a	0.6902872260015122	n/a	n/a	n/a	ISITrial	Gain
405.31	3.0	0.021	973.494	53.0	2	-4.32	0.0	23.2011	70.0	1.2	Outcome1	-4.32	3.9	2.99675	Yes	2.0	-8.22222222222222	1.558	406.868	n/a	GetAnswer	Mixed
406.882	4.0	0.014	975.066	53.0	2	-4.32	0.0	23.2011	70.0	1.2	Outcome1	-4.32	3.9	2.99675	Yes	n/a	-8.22222222222222	n/a	n/a	n/a	ShowChoice	Mixed
410.894	1.0	0.012	979.078	53.0	2	-4.32	0.0	23.2011	70.0	1.2	Outcome1	-4.32	3.9	2.99675	Yes	n/a	-8.22222222222222	n/a	n/a	n/a	ShowResult	Mixed
411.913	3.66	0.019	980.097	53.0	2	-4.32	0.0	23.2011	70.0	1.2	Outcome1	-4.32	3.9	2.99675	Yes	n/a	-8.22222222222222	n/a	n/a	n/a	ISITrial	Mixed
415.591	2.997	0.018	983.775	53.0	2	-4.32	0.0	23.2011	70.0	1.2	Outcome1	-4.32	3.9	2.99675	Yes	n/a	-8.22222222222222	n/a	n/a	n/a	TrialHappPreview	Mixed
418.617	4.012	0.029	986.801	53.0	2	-4.32	0.0	23.2011	70.0	1.2	Outcome1	-4.32	3.9	2.99675	Yes	n/a	-8.22222222222222	n/a	n/a	312.0	TrialHappiness	Mixed
418.617	0.563	n/a	987.28	53.0	2	-4.32	0.0	23.2011	70.0	1.2	Outcome1	-4.32	3.9	2.99675	Yes	n/a	-8.22222222222222	n/a	n/a	312.0	TrialHappinessSliderResponse	Mixed
422.629	3.987	4.012	990.813	53.0	2	-4.32	0.0	23.2011	70.0	1.2	Outcome1	-4.32	3.9	2.99675	Yes	n/a	-8.22222222222222	n/a	n/a	n/a	ISIRate	Mixed
426.641	3.0	0.025	994.825	54.0	2	-13.81	-7.0	21.4749	70.0	0.2	Outcome1	-13.81	-1.5	0.0	No	2.0	-12.3061224489796	2.45	429.091	n/a	GetAnswer	Mixed
429.115	4.0	0.024	997.299	54.0	2	-13.81	-7.0	21.4749	70.0	0.2	Outcome1	-13.81	-1.5	0.0	No	n/a	-12.3061224489796	n/a	n/a	n/a	ShowChoice	Mixed
433.127	1.0	0.012	1001.311	54.0	2	-13.81	-7.0	21.4749	70.0	0.2	Outcome1	-13.81	-1.5	0.0	No	n/a	-12.3061224489796	n/a	n/a	n/a	ShowResult	Mixed
434.146	8.0	0.019	1002.33	54.0	2	-13.81	-7.0	21.4749	70.0	0.2	Outcome1	-13.81	-1.5	0.0	No	n/a	-12.3061224489796	n/a	n/a	n/a	ISITrial	Mixed
483.812	1.75	n/a	1052.231	n/a	2	n/a	n/a	n/a	n/a	n/a	n/a	n/a	n/a	n/a	n/a	n/a	n/a	n/a	n/a	268.0	BlockStartHappinessSliderResponse	n/a
-50.2	-0.001	0.024	1010.354	n/a	3	n/a	n/a	n/a	n/a	n/a	n/a	n/a	n/a	n/a	n/a	{SPACE}	n/a	37.616	-12.584	n/a	Rest	n/a
-12.571	4.0	0.013	1047.983	n/a	3	n/a	n/a	n/a	n/a	n/a	n/a	n/a	n/a	n/a	n/a	n/a	n/a	n/a	n/a	n/a	BlockHappyPreview	n/a
-8.559	1.985	0.012	1051.995	n/a	3	n/a	n/a	n/a	n/a	n/a	n/a	n/a	n/a	n/a	n/a	n/a	n/a	n/a	n/a	268.0	BlockStartHappiness	n/a
-2.557	-0.001	0.011	1057.997	n/a	3	n/a	n/a	n/a	n/a	n/a	n/a	n/a	n/a	n/a	n/a	5.0	n/a	2.544	-0.013	n/a	ScanWait	n/a
0.0	10.0	0.013	1060.554	n/a	3	n/a	n/a	n/a	n/a	n/a	n/a	n/a	n/a	n/a	n/a	n/a	n/a	n/a	n/a	n/a	GetReady	n/a
10.014	3.0	0.014	1070.568	55.0	3	4.3	-1.0	22.0124	955.0	2.0	Outcome2	-7.37	4.3	2.53325	Yes	2.0	11.6704416761042	1.809	11.823	n/a	GetAnswer	Mixed
11.836	4.0	0.013	1072.39	55.0	3	4.3	-1.0	22.0124	955.0	2.0	Outcome2	-7.37	4.3	2.53325	Yes	n/a	11.6704416761042	n/a	n/a	n/a	ShowChoice	Mixed
15.848	1.0	0.012	1076.402	55.0	3	4.3	-1.0	22.0124	955.0	2.0	Outcome2	-7.37	4.3	2.53325	Yes	n/a	11.6704416761042	n/a	n/a	n/a	ShowResult	Mixed
16.867	7.709	0.019	1077.421	55.0	3	4.3	-1.0	22.0124	955.0	2.0	Outcome2	-7.37	4.3	2.53325	Yes	n/a	11.6704416761042	n/a	n/a	n/a	ISITrial	Mixed
24.59	2.533	0.014	1085.144	55.0	3	4.3	-1.0	22.0124	955.0	2.0	Outcome2	-7.37	4.3	2.53325	Yes	n/a	11.6704416761042	n/a	n/a	n/a	TrialHappPreview	Mixed
27.148	4.012	0.025	1087.702	55.0	3	4.3	-1.0	22.0124	955.0	2.0	Outcome2	-7.37	4.3	2.53325	Yes	n/a	11.6704416761042	n/a	n/a	320.0	TrialHappiness	Mixed
27.149	0.536	n/a	1088.51	55.0	3	4.3	-1.0	22.0124	955.0	2.0	Outcome2	-7.37	4.3	2.53325	Yes	n/a	11.6704416761042	n/a	n/a	320.0	TrialHappinessSliderResponse	Mixed
31.16	2.133	4.012	1091.714	55.0	3	4.3	-1.0	22.0124	955.0	2.0	Outcome2	-7.37	4.3	2.53325	Yes	n/a	11.6704416761042	n/a	n/a	n/a	ISIRate	Mixed
33.316	3.0	0.023	1093.87	56.0	3	11.5	-0.04	23.4499	955.0	2.8	Outcome2	-0.07	11.5	0.0	No	2.0	11.5651189127973	1.554	34.87	n/a	GetAnswer	Loss
34.888	4.0	0.018	1095.442	56.0	3	11.5	-0.04	23.4499	955.0	2.8	Outcome2	-0.07	11.5	0.0	No	n/a	11.5651189127973	n/a	n/a	n/a	ShowChoice	Loss
38.9	1.0	0.012	1099.454	56.0	3	11.5	-0.04	23.4499	955.0	2.8	Outcome2	-0.07	11.5	0.0	No	n/a	11.5651189127973	n/a	n/a	n/a	ShowResult	Loss
39.919	4.697	0.019	1100.473	56.0	3	11.5	-0.04	23.4499	955.0	2.8	Outcome2	-0.07	11.5	0.0	No	n/a	11.5651189127973	n/a	n/a	n/a	ISITrial	Loss
44.634	3.0	0.018	1105.188	57.0	3	1.5	-4.0	23.6374	955.0	0.82	Outcome1	1.5	-10.78	0.0	No	2.0	12.2842582106455	2.822	47.456	n/a	GetAnswer	Mixed
47.475	4.0	0.018	1108.029	57.0	3	1.5	-4.0	23.6374	955.0	0.82	Outcome1	1.5	-10.78	0.0	No	n/a	12.2842582106455	n/a	n/a	n/a	ShowChoice	Mixed
51.487	1.0	0.012	1112.041	57.0	3	1.5	-4.0	23.6374	955.0	0.82	Outcome1	1.5	-10.78	0.0	No	n/a	12.2842582106455	n/a	n/a	n/a	ShowResult	Mixed
52.507	4.291	0.02	1113.061	57.0	3	1.5	-4.0	23.6374	955.0	0.82	Outcome1	1.5	-10.78	0.0	No	n/a	12.2842582106455	n/a	n/a	n/a	ISITrial	Mixed
56.82	3.0	0.022	1117.374	58.0	3	13.3	0.15	25.2999	955.0	2.48	Outcome1	13.3	0.3	3.04575	Yes	2.0	13.0033975084938	1.32	58.14	n/a	GetAnswer	Loss
58.157	4.0	0.017	1118.711	58.0	3	13.3	0.15	25.2999	955.0	2.48	Outcome1	13.3	0.3	3.04575	Yes	n/a	13.0033975084938	n/a	n/a	n/a	ShowChoice	Loss
62.169	1.0	0.012	1122.723	58.0	3	13.3	0.15	25.2999	955.0	2.48	Outcome1	13.3	0.3	3.04575	Yes	n/a	13.0033975084938	n/a	n/a	n/a	ShowResult	Loss
63.189	2.037	0.02	1123.743	58.0	3	13.3	0.15	25.2999	955.0	2.48	Outcome1	13.3	0.3	3.04575	Yes	n/a	13.0033975084938	n/a	n/a	n/a	ISITrial	Loss
65.245	3.046	0.019	1125.799	58.0	3	13.3	0.15	25.2999	955.0	2.48	Outcome1	13.3	0.3	3.04575	Yes	n/a	13.0033975084938	n/a	n/a	n/a	TrialHappPreview	Loss
68.321	4.012	0.03	1128.875	58.0	3	13.3	0.15	25.2999	955.0	2.48	Outcome1	13.3	0.3	3.04575	Yes	n/a	13.0033975084938	n/a	n/a	424.0	TrialHappiness	Loss
68.322	0.328	n/a	1129.172	58.0	3	13.3	0.15	25.2999	955.0	2.48	Outcome1	13.3	0.3	3.04575	Yes	n/a	13.0033975084938	n/a	n/a	424.0	TrialHappinessSliderResponse	Loss
72.333	4.183	4.012	1132.887	58.0	3	13.3	0.15	25.2999	955.0	2.48	Outcome1	13.3	0.3	3.04575	Yes	n/a	13.0033975084938	n/a	n/a	n/a	ISIRate	Loss
76.546	3.0	0.03	1137.1	59.0	3	10.9	-0.53	26.6624	955.0	2.0	Outcome1	10.9	-1.06	0.0	No	2.0	11.955832389581	1.219	77.765	n/a	GetAnswer	Loss
77.783	4.0	0.018	1138.337	59.0	3	10.9	-0.53	26.6624	955.0	2.0	Outcome1	10.9	-1.06	0.0	No	n/a	11.955832389581	n/a	n/a	n/a	ShowChoice	Loss
81.795	1.0	0.012	1142.349	59.0	3	10.9	-0.53	26.6624	955.0	2.0	Outcome1	10.9	-1.06	0.0	No	n/a	11.955832389581	n/a	n/a	n/a	ShowResult	Loss
82.814	5.064	0.019	1143.368	59.0	3	10.9	-0.53	26.6624	955.0	2.0	Outcome1	10.9	-1.06	0.0	No	n/a	11.955832389581	n/a	n/a	n/a	ISITrial	Loss
87.896	3.0	0.018	1148.45	60.0	3	-0.75	0.0	26.5686	955.0	1.0	Outcome2	1.7	-0.75	3.5625	Yes	2.0	-2.44960362400906	1.507	89.403	n/a	GetAnswer	Mixed
89.417	4.0	0.014	1149.971	60.0	3	-0.75	0.0	26.5686	955.0	1.0	Outcome2	1.7	-0.75	3.5625	Yes	n/a	-2.44960362400906	n/a	n/a	n/a	ShowChoice	Mixed
93.429	1.0	0.012	1153.983	60.0	3	-0.75	0.0	26.5686	955.0	1.0	Outcome2	1.7	-0.75	3.5625	Yes	n/a	-2.44960362400906	n/a	n/a	n/a	ShowResult	Mixed
94.449	8.0	0.02	1155.003	60.0	3	-0.75	0.0	26.5686	955.0	1.0	Outcome2	1.7	-0.75	3.5625	Yes	n/a	-2.44960362400906	n/a	n/a	n/a	ISITrial	Mixed
102.473	3.562	0.024	1163.027	60.0	3	-0.75	0.0	26.5686	955.0	1.0	Outcome2	1.7	-0.75	3.5625	Yes	n/a	-2.44960362400906	n/a	n/a	n/a	TrialHappPreview	Mixed
106.05	4.012	0.015	1166.604	60.0	3	-0.75	0.0	26.5686	955.0	1.0	Outcome2	1.7	-0.75	3.5625	Yes	4{-4}2{-2}2{-2}	-2.44960362400906	1.813	107.863	448.0	TrialHappiness	Mixed
106.051	1.431	n/a	1166.987	60.0	3	-0.75	0.0	26.5686	955.0	1.0	Outcome2	1.7	-0.75	3.5625	Yes	n/a	-2.44960362400906	n/a	n/a	448.0	TrialHappinessSliderResponse	Mixed
110.062	6.25	4.012	1170.616	60.0	3	-0.75	0.0	26.5686	955.0	1.0	Outcome2	1.7	-0.75	3.5625	Yes	n/a	-2.44960362400906	n/a	n/a	n/a	ISIRate	Mixed
116.331	3.0	0.019	1176.885	61.0	3	3.1	1.55	26.9561	955.0	2.8	Outcome1	3.1	5.5	0.0	No	2.0	-2.40232163080408	1.383	117.714	n/a	GetAnswer	Gain
117.735	4.0	0.021	1178.289	61.0	3	3.1	1.55	26.9561	955.0	2.8	Outcome1	3.1	5.5	0.0	No	n/a	-2.40232163080408	n/a	n/a	n/a	ShowChoice	Gain
121.747	1.0	0.012	1182.301	61.0	3	3.1	1.55	26.9561	955.0	2.8	Outcome1	3.1	5.5	0.0	No	n/a	-2.40232163080408	n/a	n/a	n/a	ShowResult	Gain
122.767	4.586	0.02	1183.321	61.0	3	3.1	1.55	26.9561	955.0	2.8	Outcome1	3.1	5.5	0.0	No	n/a	-2.40232163080408	n/a	n/a	n/a	ISITrial	Gain
127.381	3.0	0.028	1187.935	62.0	3	-0.5	-7.0	26.8936	955.0	0.82	Outcome1	-0.5	-13.82	3.74875	Yes	2.0	13.3250283125708	2.344	129.725	n/a	GetAnswer	Mixed
129.738	4.0	0.013	1190.292	62.0	3	-0.5	-7.0	26.8936	955.0	0.82	Outcome1	-0.5	-13.82	3.74875	Yes	n/a	13.3250283125708	n/a	n/a	n/a	ShowChoice	Mixed
133.75	1.0	0.012	1194.304	62.0	3	-0.5	-7.0	26.8936	955.0	0.82	Outcome1	-0.5	-13.82	3.74875	Yes	n/a	13.3250283125708	n/a	n/a	n/a	ShowResult	Mixed
134.769	5.212	0.019	1195.323	62.0	3	-0.5	-7.0	26.8936	955.0	0.82	Outcome1	-0.5	-13.82	3.74875	Yes	n/a	13.3250283125708	n/a	n/a	n/a	ISITrial	Mixed
140.002	3.749	0.021	1200.556	62.0	3	-0.5	-7.0	26.8936	955.0	0.82	Outcome1	-0.5	-13.82	3.74875	Yes	n/a	13.3250283125708	n/a	n/a	n/a	TrialHappPreview	Mixed
143.78	4.012	0.029	1204.334	62.0	3	-0.5	-7.0	26.8936	955.0	0.82	Outcome1	-0.5	-13.82	3.74875	Yes	n/a	13.3250283125708	n/a	n/a	484.0	TrialHappiness	Mixed
143.78	1.706	n/a	1204.607	62.0	3	-0.5	-7.0	26.8936	955.0	0.82	Outcome1	-0.5	-13.82	3.74875	Yes	n/a	13.3250283125708	n/a	n/a	484.0	TrialHappinessSliderResponse	Mixed
147.792	6.995	4.012	1208.346	62.0	3	-0.5	-7.0	26.8936	955.0	0.82	Outcome1	-0.5	-13.82	3.74875	Yes	n/a	13.3250283125708	n/a	n/a	n/a	ISIRate	Mixed
154.813	3.0	0.026	1215.367	63.0	3	4.5	-2.0	27.4561	955.0	1.68	Outcome1	4.5	-8.79	0.0	No	2.0	13.287655719139302	2.485	157.298	n/a	GetAnswer	Gain
157.32	4.0	0.022	1217.874	63.0	3	4.5	-2.0	27.4561	955.0	1.68	Outcome1	4.5	-8.79	0.0	No	n/a	13.287655719139302	n/a	n/a	n/a	ShowChoice	Gain
161.332	1.0	0.012	1221.886	63.0	3	4.5	-2.0	27.4561	955.0	1.68	Outcome1	4.5	-8.79	0.0	No	n/a	13.287655719139302	n/a	n/a	n/a	ShowResult	Gain
162.352	5.595	0.02	1222.906	63.0	3	4.5	-2.0	27.4561	955.0	1.68	Outcome1	4.5	-8.79	0.0	No	n/a	13.287655719139302	n/a	n/a	n/a	ISITrial	Gain
167.969	3.0	0.022	1228.523	64.0	3	7.3	0.0	28.3686	955.0	2.48	Outcome1	7.3	-6.52	0.0	No	2.0	13.8210645526614	1.26	169.229	n/a	GetAnswer	Gain
169.256	4.0	0.027	1229.81	64.0	3	7.3	0.0	28.3686	955.0	2.48	Outcome1	7.3	-6.52	0.0	No	n/a	13.8210645526614	n/a	n/a	n/a	ShowChoice	Gain
173.268	1.0	0.012	1233.822	64.0	3	7.3	0.0	28.3686	955.0	2.48	Outcome1	7.3	-6.52	0.0	No	n/a	13.8210645526614	n/a	n/a	n/a	ShowResult	Gain
174.287	5.47	0.019	1234.841	64.0	3	7.3	0.0	28.3686	955.0	2.48	Outcome1	7.3	-6.52	0.0	No	n/a	13.8210645526614	n/a	n/a	n/a	ISITrial	Gain
179.787	3.0	0.03	1240.341	65.0	3	4.06	2.03	28.8761	955.0	1.68	Outcome2	6.5	4.06	2.99675	Yes	2.0	-2.44082672706682	2.238	182.025	n/a	GetAnswer	Gain
182.044	4.0	0.019	1242.598	65.0	3	4.06	2.03	28.8761	955.0	1.68	Outcome2	6.5	4.06	2.99675	Yes	n/a	-2.44082672706682	n/a	n/a	n/a	ShowChoice	Gain
186.056	1.0	0.012	1246.61	65.0	3	4.06	2.03	28.8761	955.0	1.68	Outcome2	6.5	4.06	2.99675	Yes	n/a	-2.44082672706682	n/a	n/a	n/a	ShowResult	Gain
187.076	3.344	0.02	1247.63	65.0	3	4.06	2.03	28.8761	955.0	1.68	Outcome2	6.5	4.06	2.99675	Yes	n/a	-2.44082672706682	n/a	n/a	n/a	ISITrial	Gain
190.436	2.997	0.016	1250.99	65.0	3	4.06	2.03	28.8761	955.0	1.68	Outcome2	6.5	4.06	2.99675	Yes	n/a	-2.44082672706682	n/a	n/a	n/a	TrialHappPreview	Gain
193.461	4.012	0.028	1254.015	65.0	3	4.06	2.03	28.8761	955.0	1.68	Outcome2	6.5	4.06	2.99675	Yes	n/a	-2.44082672706682	n/a	n/a	452.0	TrialHappiness	Gain
193.462	1.336	n/a	1254.354	65.0	3	4.06	2.03	28.8761	955.0	1.68	Outcome2	6.5	4.06	2.99675	Yes	n/a	-2.44082672706682	n/a	n/a	452.0	TrialHappinessSliderResponse	Gain
197.473	3.987	4.012	1258.027	65.0	3	4.06	2.03	28.8761	955.0	1.68	Outcome2	6.5	4.06	2.99675	Yes	n/a	-2.44082672706682	n/a	n/a	n/a	ISIRate	Gain
201.485	3.0	0.025	1262.039	66.0	3	9.1	1.0	30.0136	955.0	2.22	Outcome1	9.1	-6.33	0.0	No	2.0	15.4314835787089	1.656	203.141	n/a	GetAnswer	Gain
203.157	4.0	0.016	1263.711	66.0	3	9.1	1.0	30.0136	955.0	2.22	Outcome1	9.1	-6.33	0.0	No	n/a	15.4314835787089	n/a	n/a	n/a	ShowChoice	Gain
207.169	1.0	0.012	1267.723	66.0	3	9.1	1.0	30.0136	955.0	2.22	Outcome1	9.1	-6.33	0.0	No	n/a	15.4314835787089	n/a	n/a	n/a	ShowResult	Gain
208.189	3.959	0.02	1268.743	66.0	3	9.1	1.0	30.0136	955.0	2.22	Outcome1	9.1	-6.33	0.0	No	n/a	15.4314835787089	n/a	n/a	n/a	ISITrial	Gain
212.167	3.0	0.019	1272.721	67.0	3	9.3	1.0	31.1761	955.0	2.48	Outcome1	9.3	-6.7	2.9185	Yes	2.0	16.0011325028313	1.19	213.357	n/a	GetAnswer	Gain
213.371	4.0	0.014	1273.925	67.0	3	9.3	1.0	31.1761	955.0	2.48	Outcome1	9.3	-6.7	2.9185	Yes	n/a	16.0011325028313	n/a	n/a	n/a	ShowChoice	Gain
217.383	1.0	0.012	1277.937	67.0	3	9.3	1.0	31.1761	955.0	2.48	Outcome1	9.3	-6.7	2.9185	Yes	n/a	16.0011325028313	n/a	n/a	n/a	ShowResult	Gain
218.403	4.199	0.02	1278.957	67.0	3	9.3	1.0	31.1761	955.0	2.48	Outcome1	9.3	-6.7	2.9185	Yes	n/a	16.0011325028313	n/a	n/a	n/a	ISITrial	Gain
222.615	2.918	0.013	1283.169	67.0	3	9.3	1.0	31.1761	955.0	2.48	Outcome1	9.3	-6.7	2.9185	Yes	n/a	16.0011325028313	n/a	n/a	n/a	TrialHappPreview	Gain
225.557	4.012	0.024	1286.111	67.0	3	9.3	1.0	31.1761	955.0	2.48	Outcome1	9.3	-6.7	2.9185	Yes	n/a	16.0011325028313	n/a	n/a	492.0	TrialHappiness	Gain
225.558	0.143	n/a	1286.417	67.0	3	9.3	1.0	31.1761	955.0	2.48	Outcome1	9.3	-6.7	2.9185	Yes	n/a	16.0011325028313	n/a	n/a	492.0	TrialHappinessSliderResponse	Gain
229.569	3.674	4.012	1290.123	67.0	3	9.3	1.0	31.1761	955.0	2.48	Outcome1	9.3	-6.7	2.9185	Yes	n/a	16.0011325028313	n/a	n/a	n/a	ISIRate	Gain
233.264	3.0	0.021	1293.818	68.0	3	13.5	-1.2	32.8636	955.0	2.8	Outcome1	13.5	-2.39	0.0	No	2.0	15.8912797281993	1.469	234.733	n/a	GetAnswer	Loss
234.751	4.0	0.018	1295.305	68.0	3	13.5	-1.2	32.8636	955.0	2.8	Outcome1	13.5	-2.39	0.0	No	n/a	15.8912797281993	n/a	n/a	n/a	ShowChoice	Loss
238.763	1.0	0.012	1299.317	68.0	3	13.5	-1.2	32.8636	955.0	2.8	Outcome1	13.5	-2.39	0.0	No	n/a	15.8912797281993	n/a	n/a	n/a	ShowResult	Loss
239.783	2.185	0.02	1300.337	68.0	3	13.5	-1.2	32.8636	955.0	2.8	Outcome1	13.5	-2.39	0.0	No	n/a	15.8912797281993	n/a	n/a	n/a	ISITrial	Loss
241.99	3.0	0.022	1302.544	69.0	3	9.7	1.0	34.0761	955.0	3.16	Outcome1	9.7	-6.72	0.0	No	2.0	16.4156285390713	1.143	243.133	n/a	GetAnswer	Gain
243.16	4.0	0.027	1303.714	69.0	3	9.7	1.0	34.0761	955.0	3.16	Outcome1	9.7	-6.72	0.0	No	n/a	16.4156285390713	n/a	n/a	n/a	ShowChoice	Gain
247.172	1.0	0.012	1307.726	69.0	3	9.7	1.0	34.0761	955.0	3.16	Outcome1	9.7	-6.72	0.0	No	n/a	16.4156285390713	n/a	n/a	n/a	ShowResult	Gain
248.192	2.0	0.02	1308.746	69.0	3	9.7	1.0	34.0761	955.0	3.16	Outcome1	9.7	-6.72	0.0	No	n/a	16.4156285390713	n/a	n/a	n/a	ISITrial	Gain
250.214	3.0	0.022	1310.768	70.0	3	6.1	-2.0	34.8386	955.0	4.2	Outcome1	6.1	-10.84	3.65125	Yes	2.0	16.939977349943398	2.163	252.377	n/a	GetAnswer	Gain
252.404	4.0	0.027	1312.958	70.0	3	6.1	-2.0	34.8386	955.0	4.2	Outcome1	6.1	-10.84	3.65125	Yes	n/a	16.939977349943398	n/a	n/a	n/a	ShowChoice	Gain
256.416	1.0	0.012	1316.97	70.0	3	6.1	-2.0	34.8386	955.0	4.2	Outcome1	6.1	-10.84	3.65125	Yes	n/a	16.939977349943398	n/a	n/a	n/a	ShowResult	Gain
257.436	2.623	0.02	1317.99	70.0	3	6.1	-2.0	34.8386	955.0	4.2	Outcome1	6.1	-10.84	3.65125	Yes	n/a	16.939977349943398	n/a	n/a	n/a	ISITrial	Gain
260.077	3.651	0.018	1320.631	70.0	3	6.1	-2.0	34.8386	955.0	4.2	Outcome1	6.1	-10.84	3.65125	Yes	n/a	16.939977349943398	n/a	n/a	n/a	TrialHappPreview	Gain
263.755	4.012	0.027	1324.309	70.0	3	6.1	-2.0	34.8386	955.0	4.2	Outcome1	6.1	-10.84	3.65125	Yes	n/a	16.939977349943398	n/a	n/a	512.0	TrialHappiness	Gain
263.755	0.0	n/a	1324.309	70.0	3	6.1	-2.0	34.8386	955.0	4.2	Outcome1	6.1	-10.84	3.65125	Yes	n/a	16.939977349943398	n/a	n/a	512.0	TrialHappinessSliderResponse	Gain
267.767	6.605	4.012	1328.321	70.0	3	6.1	-2.0	34.8386	955.0	4.2	Outcome1	6.1	-10.84	3.65125	Yes	n/a	16.939977349943398	n/a	n/a	n/a	ISIRate	Gain
274.403	3.0	0.031	1334.957	71.0	3	6.3	-2.0	35.6261	955.0	5.0	Outcome2	-10.82	6.3	0.0	No	2.0	17.1245753114383	1.826	276.229	n/a	GetAnswer	Gain
276.242	4.0	0.013	1336.796	71.0	3	6.3	-2.0	35.6261	955.0	5.0	Outcome2	-10.82	6.3	0.0	No	n/a	17.1245753114383	n/a	n/a	n/a	ShowChoice	Gain
280.254	1.0	0.012	1340.808	71.0	3	6.3	-2.0	35.6261	955.0	5.0	Outcome2	-10.82	6.3	0.0	No	n/a	17.1245753114383	n/a	n/a	n/a	ShowResult	Gain
281.274	5.499	0.02	1341.828	71.0	3	6.3	-2.0	35.6261	955.0	5.0	Outcome2	-10.82	6.3	0.0	No	n/a	17.1245753114383	n/a	n/a	n/a	ISITrial	Gain
286.79	3.0	0.017	1347.344	72.0	3	-1.3	-10.0	35.4636	955.0	0.3	Outcome2	-18.93	-1.3	3.0805	Yes	2.0	17.626274065685198	1.8	288.59	n/a	GetAnswer	Mixed
288.612	4.0	0.022	1349.166	72.0	3	-1.3	-10.0	35.4636	955.0	0.3	Outcome2	-18.93	-1.3	3.0805	Yes	n/a	17.626274065685198	n/a	n/a	n/a	ShowChoice	Mixed
292.624	1.0	0.012	1353.178	72.0	3	-1.3	-10.0	35.4636	955.0	0.3	Outcome2	-18.93	-1.3	3.0805	Yes	n/a	17.626274065685198	n/a	n/a	n/a	ShowResult	Mixed
293.644	5.672	0.02	1354.198	72.0	3	-1.3	-10.0	35.4636	955.0	0.3	Outcome2	-18.93	-1.3	3.0805	Yes	n/a	17.626274065685198	n/a	n/a	n/a	ISITrial	Mixed
299.328	3.08	0.012	1359.882	72.0	3	-1.3	-10.0	35.4636	955.0	0.3	Outcome2	-18.93	-1.3	3.0805	Yes	n/a	17.626274065685198	n/a	n/a	n/a	TrialHappPreview	Mixed
302.437	4.012	0.029	1362.991	72.0	3	-1.3	-10.0	35.4636	955.0	0.3	Outcome2	-18.93	-1.3	3.0805	Yes	n/a	17.626274065685198	n/a	n/a	312.0	TrialHappiness	Mixed
302.437	0.625	n/a	1364.044	72.0	3	-1.3	-10.0	35.4636	955.0	0.3	Outcome2	-18.93	-1.3	3.0805	Yes	n/a	17.626274065685198	n/a	n/a	312.0	TrialHappinessSliderResponse	Mixed
306.449	4.322	4.012	1367.003	72.0	3	-1.3	-10.0	35.4636	955.0	0.3	Outcome2	-18.93	-1.3	3.0805	Yes	n/a	17.626274065685198	n/a	n/a	n/a	ISIRate	Mixed
310.795	3.0	0.024	1371.349	73.0	3	10.3	0.0	36.7511	955.0	5.0	Outcome1	10.3	-11.23	0.0	No	2.0	21.5254813137033	1.24	312.035	n/a	GetAnswer	Gain
312.049	4.0	0.014	1372.603	73.0	3	10.3	0.0	36.7511	955.0	5.0	Outcome1	10.3	-11.23	0.0	No	n/a	21.5254813137033	n/a	n/a	n/a	ShowChoice	Gain
316.061	1.0	0.012	1376.615	73.0	3	10.3	0.0	36.7511	955.0	5.0	Outcome1	10.3	-11.23	0.0	No	n/a	21.5254813137033	n/a	n/a	n/a	ShowResult	Gain
317.081	4.616	0.02	1377.635	73.0	3	10.3	0.0	36.7511	955.0	5.0	Outcome1	10.3	-11.23	0.0	No	n/a	21.5254813137033	n/a	n/a	n/a	ISITrial	Gain
321.728	3.0	0.031	1382.282	74.0	3	7.1	-4.0	37.6386	955.0	2.22	Outcome1	7.1	-15.15	3.05625	Yes	2.0	22.253680634201604	1.86	323.588	n/a	GetAnswer	Gain
323.617	4.0	0.029	1384.171	74.0	3	7.1	-4.0	37.6386	955.0	2.22	Outcome1	7.1	-15.15	3.05625	Yes	n/a	22.253680634201604	n/a	n/a	n/a	ShowChoice	Gain
327.645	1.0	0.028	1388.199	74.0	3	7.1	-4.0	37.6386	955.0	2.22	Outcome1	7.1	-15.15	3.05625	Yes	n/a	22.253680634201604	n/a	n/a	n/a	ShowResult	Gain
328.665	3.909	0.02	1389.219	74.0	3	7.1	-4.0	37.6386	955.0	2.22	Outcome1	7.1	-15.15	3.05625	Yes	n/a	22.253680634201604	n/a	n/a	n/a	ISITrial	Gain
332.594	3.056	0.02	1393.148	74.0	3	7.1	-4.0	37.6386	955.0	2.22	Outcome1	7.1	-15.15	3.05625	Yes	n/a	22.253680634201604	n/a	n/a	n/a	TrialHappPreview	Gain
335.669	4.012	0.019	1396.223	74.0	3	7.1	-4.0	37.6386	955.0	2.22	Outcome1	7.1	-15.15	3.05625	Yes	n/a	22.253680634201604	n/a	n/a	456.0	TrialHappiness	Gain
335.67	0.576	n/a	1396.582	74.0	3	7.1	-4.0	37.6386	955.0	2.22	Outcome1	7.1	-15.15	3.05625	Yes	n/a	22.253680634201604	n/a	n/a	456.0	TrialHappinessSliderResponse	Gain
339.681	4.225	4.012	1400.235	74.0	3	7.1	-4.0	37.6386	955.0	2.22	Outcome1	7.1	-15.15	3.05625	Yes	n/a	22.253680634201604	n/a	n/a	n/a	ISIRate	Gain
343.927	3.0	0.021	1404.481	75.0	3	-3.73	-2.0	37.1724	955.0	0.66	Outcome1	-3.73	-0.7	0.0	No	2.0	-3.02991694979237	1.918	345.845	n/a	GetAnswer	Mixed
345.867	4.0	0.021	1406.421	75.0	3	-3.73	-2.0	37.1724	955.0	0.66	Outcome1	-3.73	-0.7	0.0	No	n/a	-3.02991694979237	n/a	n/a	n/a	ShowChoice	Mixed
349.879	1.0	0.012	1410.433	75.0	3	-3.73	-2.0	37.1724	955.0	0.66	Outcome1	-3.73	-0.7	0.0	No	n/a	-3.02991694979237	n/a	n/a	n/a	ShowResult	Mixed
350.898	4.979	0.019	1411.452	75.0	3	-3.73	-2.0	37.1724	955.0	0.66	Outcome1	-3.73	-0.7	0.0	No	n/a	-3.02991694979237	n/a	n/a	n/a	ISITrial	Mixed
355.897	3.0	0.02	1416.451	76.0	3	-0.1	-10.0	37.1599	955.0	1.2	Outcome2	-21.2	-0.1	0.0	No	2.0	21.100792751981896	1.769	357.666	n/a	GetAnswer	Mixed
357.685	4.0	0.019	1418.239	76.0	3	-0.1	-10.0	37.1599	955.0	1.2	Outcome2	-21.2	-0.1	0.0	No	n/a	21.100792751981896	n/a	n/a	n/a	ShowChoice	Mixed
361.697	1.0	0.012	1422.251	76.0	3	-0.1	-10.0	37.1599	955.0	1.2	Outcome2	-21.2	-0.1	0.0	No	n/a	21.100792751981896	n/a	n/a	n/a	ShowResult	Mixed
362.717	3.931	0.02	1423.271	76.0	3	-0.1	-10.0	37.1599	955.0	1.2	Outcome2	-21.2	-0.1	0.0	No	n/a	21.100792751981896	n/a	n/a	n/a	ISITrial	Mixed
366.679	3.0	0.031	1427.233	77.0	3	7.38	3.69	38.0824	955.0	1.68	Outcome1	7.38	10.5	4.0	Yes	2.0	-3.12410343525859	0.951	367.63	n/a	GetAnswer	Loss
367.648	4.0	0.018	1428.202	77.0	3	7.38	3.69	38.0824	955.0	1.68	Outcome1	7.38	10.5	4.0	Yes	n/a	-3.12410343525859	n/a	n/a	n/a	ShowChoice	Loss
371.66	1.0	0.012	1432.214	77.0	3	7.38	3.69	38.0824	955.0	1.68	Outcome1	7.38	10.5	4.0	Yes	n/a	-3.12410343525859	n/a	n/a	n/a	ShowResult	Loss
372.68	7.022	0.02	1433.234	77.0	3	7.38	3.69	38.0824	955.0	1.68	Outcome1	7.38	10.5	4.0	Yes	n/a	-3.12410343525859	n/a	n/a	n/a	ISITrial	Loss
379.718	4.0	0.016	1440.272	77.0	3	7.38	3.69	38.0824	955.0	1.68	Outcome1	7.38	10.5	4.0	Yes	n/a	-3.12410343525859	n/a	n/a	n/a	TrialHappPreview	Loss
383.746	4.012	0.028	1444.3	77.0	3	7.38	3.69	38.0824	955.0	1.68	Outcome1	7.38	10.5	4.0	Yes	n/a	-3.12410343525859	n/a	n/a	196.0	TrialHappiness	Loss
383.747	1.651	n/a	1444.589	77.0	3	7.38	3.69	38.0824	955.0	1.68	Outcome1	7.38	10.5	4.0	Yes	n/a	-3.12410343525859	n/a	n/a	196.0	TrialHappinessSliderResponse	Loss
387.758	8.0	4.012	1448.312	77.0	3	7.38	3.69	38.0824	955.0	1.68	Outcome1	7.38	10.5	4.0	Yes	n/a	-3.12410343525859	n/a	n/a	n/a	ISIRate	Loss
395.782	3.0	0.024	1456.336	78.0	3	8.47	4.24	39.1412	955.0	1.82	Outcome2	12.7	8.47	0.0	No	2.0	-4.22631181577954	1.153	396.935	n/a	GetAnswer	Loss
396.952	4.0	0.017	1457.506	78.0	3	8.47	4.24	39.1412	955.0	1.82	Outcome2	12.7	8.47	0.0	No	n/a	-4.22631181577954	n/a	n/a	n/a	ShowChoice	Loss
400.964	1.0	0.012	1461.518	78.0	3	8.47	4.24	39.1412	955.0	1.82	Outcome2	12.7	8.47	0.0	No	n/a	-4.22631181577954	n/a	n/a	n/a	ShowResult	Loss
401.984	2.078	0.02	1462.538	78.0	3	8.47	4.24	39.1412	955.0	1.82	Outcome2	12.7	8.47	0.0	No	n/a	-4.22631181577954	n/a	n/a	n/a	ISITrial	Loss
404.09	3.0	0.028	1464.644	79.0	3	3.1	-10.0	39.5287	955.0	0.52	Outcome2	-24.41	3.1	2.7295	Yes	2.0	27.5073612684032	1.81	405.9	n/a	GetAnswer	Mixed
405.913	4.0	0.013	1466.467	79.0	3	3.1	-10.0	39.5287	955.0	0.52	Outcome2	-24.41	3.1	2.7295	Yes	n/a	27.5073612684032	n/a	n/a	n/a	ShowChoice	Mixed
409.925	1.0	0.012	1470.479	79.0	3	3.1	-10.0	39.5287	955.0	0.52	Outcome2	-24.41	3.1	2.7295	Yes	n/a	27.5073612684032	n/a	n/a	n/a	ShowResult	Mixed
410.944	3.829	0.019	1471.498	79.0	3	3.1	-10.0	39.5287	955.0	0.52	Outcome2	-24.41	3.1	2.7295	Yes	n/a	27.5073612684032	n/a	n/a	n/a	ISITrial	Mixed
414.789	2.73	0.016	1475.343	79.0	3	3.1	-10.0	39.5287	955.0	0.52	Outcome2	-24.41	3.1	2.7295	Yes	n/a	27.5073612684032	n/a	n/a	n/a	TrialHappPreview	Mixed
417.547	4.012	0.028	1478.101	79.0	3	3.1	-10.0	39.5287	955.0	0.52	Outcome2	-24.41	3.1	2.7295	Yes	n/a	27.5073612684032	n/a	n/a	424.0	TrialHappiness	Mixed
417.548	1.075	n/a	1478.458	79.0	3	3.1	-10.0	39.5287	955.0	0.52	Outcome2	-24.41	3.1	2.7295	Yes	n/a	27.5073612684032	n/a	n/a	424.0	TrialHappinessSliderResponse	Mixed
421.559	2.918	4.012	1482.113	79.0	3	3.1	-10.0	39.5287	955.0	0.52	Outcome2	-24.41	3.1	2.7295	Yes	n/a	27.5073612684032	n/a	n/a	n/a	ISIRate	Mixed
424.501	3.0	0.024	1485.055	80.0	3	1.9	-10.0	39.7662	955.0	1.2	Outcome1	1.9	-22.59	0.0	No	2.0	24.4937712344281	1.776	426.277	n/a	GetAnswer	Mixed
426.29	4.0	0.013	1486.844	80.0	3	1.9	-10.0	39.7662	955.0	1.2	Outcome1	1.9	-22.59	0.0	No	n/a	24.4937712344281	n/a	n/a	n/a	ShowChoice	Mixed
430.302	1.0	0.012	1490.856	80.0	3	1.9	-10.0	39.7662	955.0	1.2	Outcome1	1.9	-22.59	0.0	No	n/a	24.4937712344281	n/a	n/a	n/a	ShowResult	Mixed
431.322	3.336	0.02	1491.876	80.0	3	1.9	-10.0	39.7662	955.0	1.2	Outcome1	1.9	-22.59	0.0	No	n/a	24.4937712344281	n/a	n/a	n/a	ISITrial	Mixed
434.682	3.0	0.024	1495.236	81.0	3	2.3	-10.0	40.0537	955.0	2.0	Outcome2	-22.8	2.3	3.92375	Yes	2.0	25.095130237825604	2.114	436.796	n/a	GetAnswer	Mixed
436.822	4.0	0.026	1497.376	81.0	3	2.3	-10.0	40.0537	955.0	2.0	Outcome2	-22.8	2.3	3.92375	Yes	n/a	25.095130237825604	n/a	n/a	n/a	ShowChoice	Mixed
440.834	1.0	0.012	1501.388	81.0	3	2.3	-10.0	40.0537	955.0	2.0	Outcome2	-22.8	2.3	3.92375	Yes	n/a	25.095130237825604	n/a	n/a	n/a	ShowResult	Mixed
441.853	3.919	0.019	1502.407	81.0	3	2.3	-10.0	40.0537	955.0	2.0	Outcome2	-22.8	2.3	3.92375	Yes	n/a	25.095130237825604	n/a	n/a	n/a	ISITrial	Mixed
445.798	3.924	0.026	1506.352	81.0	3	2.3	-10.0	40.0537	955.0	2.0	Outcome2	-22.8	2.3	3.92375	Yes	n/a	25.095130237825604	n/a	n/a	n/a	TrialHappPreview	Mixed
449.743	4.012	0.021	1510.297	81.0	3	2.3	-10.0	40.0537	955.0	2.0	Outcome2	-22.8	2.3	3.92375	Yes	n/a	25.095130237825604	n/a	n/a	472.0	TrialHappiness	Mixed
449.744	0.341	n/a	1510.595	81.0	3	2.3	-10.0	40.0537	955.0	2.0	Outcome2	-22.8	2.3	3.92375	Yes	n/a	25.095130237825604	n/a	n/a	472.0	TrialHappinessSliderResponse	Mixed
453.755	7.695	4.012	1514.309	81.0	3	2.3	-10.0	40.0537	955.0	2.0	Outcome2	-22.8	2.3	3.92375	Yes	n/a	25.095130237825604	n/a	n/a	n/a	ISIRate	Mixed
461.478	3.0	0.028	1522.032	n/a	3	n/a	n/a	n/a	n/a	n/a	n/a	n/a	n/a	n/a	n/a	n/a	n/a	n/a	n/a	n/a	CurrentEarnings	n/a
464.504	-0.001	0.026	1525.058	n/a	3	n/a	n/a	n/a	n/a	n/a	n/a	n/a	n/a	n/a	n/a	{SPACE}	n/a	18.915	483.419	n/a	Goodbye	n/a
