onset	duration	onset_delay	onset_unadjusted	trial_number	block	amount_change	certain_amount	current_amount	mood_target	multiplier	outcome	outcome1_amount	outcome2_amount	question_duration	rating	response	rpe	rt	rt_time	slider_response	trial_phase	trial_type
-47.102	-0.001	0.019	14.828	n/a	0	n/a	n/a	n/a	n/a	n/a	n/a	n/a	n/a	n/a	n/a	{SPACE}	n/a	3.191	-43.911	n/a	Welcome	n/a
-43.885	5.0	0.026	18.045	n/a	0	n/a	n/a	n/a	n/a	n/a	n/a	n/a	n/a	n/a	n/a	n/a	n/a	n/a	n/a	n/a	LifeHappyPreview	n/a
-38.853	2.09	0.032	23.077	n/a	0	n/a	n/a	n/a	n/a	n/a	n/a	n/a	n/a	n/a	n/a	n/a	n/a	n/a	n/a	592.0	LifeHappiness	n/a
-38.853	1.467	n/a	23.7	n/a	0	n/a	n/a	n/a	n/a	n/a	n/a	n/a	n/a	n/a	n/a	n/a	n/a	n/a	n/a	592.0	LifeHappinessSliderResponse	n/a
-32.422	4.0	0.017	29.508	n/a	0	n/a	n/a	n/a	n/a	n/a	n/a	n/a	n/a	n/a	n/a	n/a	n/a	n/a	n/a	n/a	BlockHappyPreview	n/a
-28.407	0.409	0.015	33.523	n/a	0	n/a	n/a	n/a	n/a	n/a	n/a	n/a	n/a	n/a	n/a	n/a	n/a	n/a	n/a	532.0	BlockStartHappiness	n/a
-28.406	0.102	n/a	33.831	n/a	0	n/a	n/a	n/a	n/a	n/a	n/a	n/a	n/a	n/a	n/a	n/a	n/a	n/a	n/a	532.0	BlockStartHappinessSliderResponse	n/a
-2.599	-0.001	0.017	59.331	n/a	0	n/a	n/a	n/a	n/a	n/a	n/a	n/a	n/a	n/a	n/a	5.0	n/a	2.586	-0.013	n/a	ScanWait	n/a
0.0	10.0	0.013	61.93	n/a	1	n/a	n/a	n/a	n/a	n/a	n/a	n/a	n/a	n/a	n/a	n/a	n/a	n/a	n/a	n/a	GetReady	n/a
10.03	3.0	0.03	71.96	1.0	1	0.0	0.0	10.0	955.0	0.4	Certain	2.9	-4.29	0.0	No	4.0	7.18573046432616	0.95	10.98	n/a	GetAnswer	Mixed
10.996	4.0	0.016	72.926	1.0	1	0.0	0.0	10.0	955.0	0.4	Certain	2.9	-4.29	0.0	No	n/a	7.18573046432616	n/a	n/a	n/a	ShowChoice	Mixed
15.011	1.0	0.015	76.941	1.0	1	0.0	0.0	10.0	955.0	0.4	Certain	2.9	-4.29	0.0	No	n/a	7.18573046432616	n/a	n/a	n/a	ShowResult	Mixed
16.028	2.431	0.017	77.958	1.0	1	0.0	0.0	10.0	955.0	0.4	Certain	2.9	-4.29	0.0	No	n/a	7.18573046432616	n/a	n/a	n/a	ISITrial	Mixed
18.477	3.0	0.018	80.407	2.0	1	-3.0	-3.0	9.625	955.0	0.2	Certain	0.5	-7.16	0.0	No	4.0	7.664779161947909	0.933	19.41	n/a	GetAnswer	Mixed
19.427	4.0	0.017	81.357	2.0	1	-3.0	-3.0	9.625	955.0	0.2	Certain	0.5	-7.16	0.0	No	n/a	7.664779161947909	n/a	n/a	n/a	ShowChoice	Mixed
23.442	1.0	0.015	85.372	2.0	1	-3.0	-3.0	9.625	955.0	0.2	Certain	0.5	-7.16	0.0	No	n/a	7.664779161947909	n/a	n/a	n/a	ShowResult	Mixed
24.458	4.568	0.016	86.388	2.0	1	-3.0	-3.0	9.625	955.0	0.2	Certain	0.5	-7.16	0.0	No	n/a	7.664779161947909	n/a	n/a	n/a	ISITrial	Mixed
29.057	3.0	0.031	90.987	3.0	1	3.3	1.65	10.0375	955.0	2.22	Outcome2	5.1	3.3	2.868	Yes	2.0	-1.79643261608154	0.911	29.968	n/a	GetAnswer	Gain
29.99	4.0	0.022	91.92	3.0	1	3.3	1.65	10.0375	955.0	2.22	Outcome2	5.1	3.3	2.868	Yes	n/a	-1.79643261608154	n/a	n/a	n/a	ShowChoice	Gain
34.005	1.0	0.015	95.935	3.0	1	3.3	1.65	10.0375	955.0	2.22	Outcome2	5.1	3.3	2.868	Yes	n/a	-1.79643261608154	n/a	n/a	n/a	ShowResult	Gain
35.021	3.243	0.016	96.951	3.0	1	3.3	1.65	10.0375	955.0	2.22	Outcome2	5.1	3.3	2.868	Yes	n/a	-1.79643261608154	n/a	n/a	n/a	ISITrial	Gain
38.287	2.868	0.023	100.217	3.0	1	3.3	1.65	10.0375	955.0	2.22	Outcome2	5.1	3.3	2.868	Yes	n/a	-1.79643261608154	n/a	n/a	n/a	TrialHappPreview	Gain
41.186	4.015	0.031	103.116	3.0	1	3.3	1.65	10.0375	955.0	2.22	Outcome2	5.1	3.3	2.868	Yes	n/a	-1.79643261608154	n/a	n/a	552.0	TrialHappiness	Gain
41.186	0.323	n/a	103.475	3.0	1	3.3	1.65	10.0375	955.0	2.22	Outcome2	5.1	3.3	2.868	Yes	n/a	-1.79643261608154	n/a	n/a	552.0	TrialHappinessSliderResponse	Gain
45.201	3.472	4.015	107.131	3.0	1	3.3	1.65	10.0375	955.0	2.22	Outcome2	5.1	3.3	2.868	Yes	n/a	-1.79643261608154	n/a	n/a	n/a	ISIRate	Gain
48.7	3.0	0.027	110.63	4.0	1	9.74	4.87	11.255	955.0	2.8	Outcome2	11.5	9.74	0.0	No	2.0	-1.75519063797659	0.852	49.552	n/a	GetAnswer	Loss
49.566	4.0	0.014	111.496	4.0	1	9.74	4.87	11.255	955.0	2.8	Outcome2	11.5	9.74	0.0	No	n/a	-1.75519063797659	n/a	n/a	n/a	ShowChoice	Loss
53.581	1.0	0.015	115.511	4.0	1	9.74	4.87	11.255	955.0	2.8	Outcome2	11.5	9.74	0.0	No	n/a	-1.75519063797659	n/a	n/a	n/a	ShowResult	Loss
54.598	2.011	0.017	116.528	4.0	1	9.74	4.87	11.255	955.0	2.8	Outcome2	11.5	9.74	0.0	No	n/a	-1.75519063797659	n/a	n/a	n/a	ISITrial	Loss
56.63	3.0	0.021	118.56	5.0	1	7.5	-0.62	12.1925	955.0	2.8	Outcome1	7.5	-1.24	2.5825	Yes	2.0	8.739524348810871	1.007	57.637	n/a	GetAnswer	Gain
57.663	4.0	0.026	119.593	5.0	1	7.5	-0.62	12.1925	955.0	2.8	Outcome1	7.5	-1.24	2.5825	Yes	n/a	8.739524348810871	n/a	n/a	n/a	ShowChoice	Gain
61.679	1.0	0.016	123.609	5.0	1	7.5	-0.62	12.1925	955.0	2.8	Outcome1	7.5	-1.24	2.5825	Yes	n/a	8.739524348810871	n/a	n/a	n/a	ShowResult	Gain
62.695	5.129	0.016	124.625	5.0	1	7.5	-0.62	12.1925	955.0	2.8	Outcome1	7.5	-1.24	2.5825	Yes	n/a	8.739524348810871	n/a	n/a	n/a	ISITrial	Gain
67.843	2.582	0.019	129.773	5.0	1	7.5	-0.62	12.1925	955.0	2.8	Outcome1	7.5	-1.24	2.5825	Yes	n/a	8.739524348810871	n/a	n/a	n/a	TrialHappPreview	Gain
70.442	4.015	0.017	132.372	5.0	1	7.5	-0.62	12.1925	955.0	2.8	Outcome1	7.5	-1.24	2.5825	Yes	n/a	8.739524348810871	n/a	n/a	572.0	TrialHappiness	Gain
70.443	0.532	n/a	132.85	5.0	1	7.5	-0.62	12.1925	955.0	2.8	Outcome1	7.5	-1.24	2.5825	Yes	n/a	8.739524348810871	n/a	n/a	572.0	TrialHappinessSliderResponse	Gain
74.457	2.33	4.015	136.387	5.0	1	7.5	-0.62	12.1925	955.0	2.8	Outcome1	7.5	-1.24	2.5825	Yes	n/a	8.739524348810871	n/a	n/a	n/a	ISIRate	Gain
76.807	3.0	0.02	138.737	6.0	1	10.3	0.72	13.48	955.0	5.0	Outcome1	10.3	1.44	0.0	No	2.0	8.856172140430349	0.781	77.588	n/a	GetAnswer	Gain
77.606	4.0	0.018	139.536	6.0	1	10.3	0.72	13.48	955.0	5.0	Outcome1	10.3	1.44	0.0	No	n/a	8.856172140430349	n/a	n/a	n/a	ShowChoice	Gain
81.622	1.0	0.016	143.552	6.0	1	10.3	0.72	13.48	955.0	5.0	Outcome1	10.3	1.44	0.0	No	n/a	8.856172140430349	n/a	n/a	n/a	ShowResult	Gain
82.638	6.232	0.016	144.568	6.0	1	10.3	0.72	13.48	955.0	5.0	Outcome1	10.3	1.44	0.0	No	n/a	8.856172140430349	n/a	n/a	n/a	ISITrial	Gain
88.902	3.0	0.032	150.832	7.0	1	0.0	0.0	13.48	955.0	2.0	Certain	-4.99	4.3	0.0	No	4.0	9.289920724801812	1.119	90.021	n/a	GetAnswer	Mixed
90.035	4.0	0.014	151.965	7.0	1	0.0	0.0	13.48	955.0	2.0	Certain	-4.99	4.3	0.0	No	n/a	9.289920724801812	n/a	n/a	n/a	ShowChoice	Mixed
94.051	1.0	0.016	155.981	7.0	1	0.0	0.0	13.48	955.0	2.0	Certain	-4.99	4.3	0.0	No	n/a	9.289920724801812	n/a	n/a	n/a	ShowResult	Mixed
95.067	2.305	0.016	156.997	7.0	1	0.0	0.0	13.48	955.0	2.0	Certain	-4.99	4.3	0.0	No	n/a	9.289920724801812	n/a	n/a	n/a	ISITrial	Mixed
97.399	3.0	0.027	159.329	8.0	1	-0.32	0.0	13.44	955.0	0.82	Outcome1	-0.32	1.5	3.1125	Yes	2.0	-1.8223858059645104	1.231	98.63	n/a	GetAnswer	Mixed
98.649	4.0	0.019	160.579	8.0	1	-0.32	0.0	13.44	955.0	0.82	Outcome1	-0.32	1.5	3.1125	Yes	n/a	-1.8223858059645104	n/a	n/a	n/a	ShowChoice	Mixed
102.664	1.0	0.015	164.594	8.0	1	-0.32	0.0	13.44	955.0	0.82	Outcome1	-0.32	1.5	3.1125	Yes	n/a	-1.8223858059645104	n/a	n/a	n/a	ShowResult	Mixed
103.681	3.506	0.017	165.611	8.0	1	-0.32	0.0	13.44	955.0	0.82	Outcome1	-0.32	1.5	3.1125	Yes	n/a	-1.8223858059645104	n/a	n/a	n/a	ISITrial	Mixed
107.213	3.112	0.026	169.143	8.0	1	-0.32	0.0	13.44	955.0	0.82	Outcome1	-0.32	1.5	3.1125	Yes	n/a	-1.8223858059645104	n/a	n/a	n/a	TrialHappPreview	Mixed
110.345	4.015	0.02	172.275	8.0	1	-0.32	0.0	13.44	955.0	0.82	Outcome1	-0.32	1.5	3.1125	Yes	n/a	-1.8223858059645104	n/a	n/a	572.0	TrialHappiness	Mixed
110.346	0.511	n/a	172.732	8.0	1	-0.32	0.0	13.44	955.0	0.82	Outcome1	-0.32	1.5	3.1125	Yes	n/a	-1.8223858059645104	n/a	n/a	572.0	TrialHappinessSliderResponse	Mixed
114.36	4.45	4.015	176.29	8.0	1	-0.32	0.0	13.44	955.0	0.82	Outcome1	-0.32	1.5	3.1125	Yes	n/a	-1.8223858059645104	n/a	n/a	n/a	ISIRate	Mixed
118.842	3.0	0.032	180.772	9.0	1	-2.0	-2.0	13.19	955.0	0.3	Certain	-7.46	2.7	0.0	No	4.0	10.157417893544698	1.562	120.404	n/a	GetAnswer	Mixed
120.425	4.0	0.02	182.355	9.0	1	-2.0	-2.0	13.19	955.0	0.3	Certain	-7.46	2.7	0.0	No	n/a	10.157417893544698	n/a	n/a	n/a	ShowChoice	Mixed
124.44	1.0	0.015	186.37	9.0	1	-2.0	-2.0	13.19	955.0	0.3	Certain	-7.46	2.7	0.0	No	n/a	10.157417893544698	n/a	n/a	n/a	ShowResult	Mixed
125.456	2.0	0.016	187.386	9.0	1	-2.0	-2.0	13.19	955.0	0.3	Certain	-7.46	2.7	0.0	No	n/a	10.157417893544698	n/a	n/a	n/a	ISITrial	Mixed
127.489	3.0	0.033	189.419	10.0	1	-7.0	-7.0	12.315	955.0	0.2	Certain	-12.09	-1.5	4.0	Yes	4.0	10.591166477916198	1.359	128.848	n/a	GetAnswer	Mixed
128.872	4.0	0.024	190.802	10.0	1	-7.0	-7.0	12.315	955.0	0.2	Certain	-12.09	-1.5	4.0	Yes	n/a	10.591166477916198	n/a	n/a	n/a	ShowChoice	Mixed
132.887	1.0	0.015	194.817	10.0	1	-7.0	-7.0	12.315	955.0	0.2	Certain	-12.09	-1.5	4.0	Yes	n/a	10.591166477916198	n/a	n/a	n/a	ShowResult	Mixed
133.903	2.0	0.016	195.833	10.0	1	-7.0	-7.0	12.315	955.0	0.2	Certain	-12.09	-1.5	4.0	Yes	n/a	10.591166477916198	n/a	n/a	n/a	ISITrial	Mixed
135.919	4.0	0.016	197.849	10.0	1	-7.0	-7.0	12.315	955.0	0.2	Certain	-12.09	-1.5	4.0	Yes	n/a	10.591166477916198	n/a	n/a	n/a	TrialHappPreview	Mixed
139.951	4.015	0.032	201.881	10.0	1	-7.0	-7.0	12.315	955.0	0.2	Certain	-12.09	-1.5	4.0	Yes	n/a	10.591166477916198	n/a	n/a	552.0	TrialHappiness	Mixed
139.952	0.295	n/a	202.369	10.0	1	-7.0	-7.0	12.315	955.0	0.2	Certain	-12.09	-1.5	4.0	Yes	n/a	10.591166477916198	n/a	n/a	552.0	TrialHappinessSliderResponse	Mixed
143.966	8.0	4.015	205.896	10.0	1	-7.0	-7.0	12.315	955.0	0.2	Certain	-12.09	-1.5	4.0	Yes	n/a	10.591166477916198	n/a	n/a	n/a	ISIRate	Mixed
151.997	3.0	0.031	213.927	11.0	1	9.7	-0.83	13.5275	955.0	3.16	Outcome2	-1.66	9.7	0.0	No	2.0	11.3646659116648	1.257	153.254	n/a	GetAnswer	Gain
153.28	4.0	0.026	215.21	11.0	1	9.7	-0.83	13.5275	955.0	3.16	Outcome2	-1.66	9.7	0.0	No	n/a	11.3646659116648	n/a	n/a	n/a	ShowChoice	Gain
157.295	1.0	0.015	219.225	11.0	1	9.7	-0.83	13.5275	955.0	3.16	Outcome2	-1.66	9.7	0.0	No	n/a	11.3646659116648	n/a	n/a	n/a	ShowResult	Gain
158.311	3.324	0.016	220.241	11.0	1	9.7	-0.83	13.5275	955.0	3.16	Outcome2	-1.66	9.7	0.0	No	n/a	11.3646659116648	n/a	n/a	n/a	ISITrial	Gain
161.66	3.0	0.025	223.59	12.0	1	-1.0	-1.0	13.4025	955.0	1.5	Certain	-1.95	0.1	2.61875	Yes	4.0	-2.05001887504719	1.443	163.103	n/a	GetAnswer	Mixed
163.126	4.0	0.023	225.056	12.0	1	-1.0	-1.0	13.4025	955.0	1.5	Certain	-1.95	0.1	2.61875	Yes	n/a	-2.05001887504719	n/a	n/a	n/a	ShowChoice	Mixed
167.142	1.0	0.016	229.072	12.0	1	-1.0	-1.0	13.4025	955.0	1.5	Certain	-1.95	0.1	2.61875	Yes	n/a	-2.05001887504719	n/a	n/a	n/a	ShowResult	Mixed
168.158	6.642	0.016	230.088	12.0	1	-1.0	-1.0	13.4025	955.0	1.5	Certain	-1.95	0.1	2.61875	Yes	n/a	-2.05001887504719	n/a	n/a	n/a	ISITrial	Mixed
174.822	2.619	0.022	236.752	12.0	1	-1.0	-1.0	13.4025	955.0	1.5	Certain	-1.95	0.1	2.61875	Yes	n/a	-2.05001887504719	n/a	n/a	n/a	TrialHappPreview	Mixed
177.471	4.016	0.03	239.401	12.0	1	-1.0	-1.0	13.4025	955.0	1.5	Certain	-1.95	0.1	2.61875	Yes	n/a	-2.05001887504719	n/a	n/a	572.0	TrialHappiness	Mixed
177.472	0.516	n/a	239.867	12.0	1	-1.0	-1.0	13.4025	955.0	1.5	Certain	-1.95	0.1	2.61875	Yes	n/a	-2.05001887504719	n/a	n/a	572.0	TrialHappinessSliderResponse	Mixed
181.487	2.475	4.016	243.417	12.0	1	-1.0	-1.0	13.4025	955.0	1.5	Certain	-1.95	0.1	2.61875	Yes	n/a	-2.05001887504719	n/a	n/a	n/a	ISIRate	Mixed
183.986	3.0	0.024	245.916	13.0	1	5.69	2.84	14.1138	955.0	3.16	Outcome2	7.7	5.69	0.0	No	2.0	-2.00688939222348	0.985	184.971	n/a	GetAnswer	Gain
184.986	4.0	0.015	246.916	13.0	1	5.69	2.84	14.1138	955.0	3.16	Outcome2	7.7	5.69	0.0	No	n/a	-2.00688939222348	n/a	n/a	n/a	ShowChoice	Gain
189.001	1.0	0.015	250.931	13.0	1	5.69	2.84	14.1138	955.0	3.16	Outcome2	7.7	5.69	0.0	No	n/a	-2.00688939222348	n/a	n/a	n/a	ShowResult	Gain
190.017	3.48	0.016	251.947	13.0	1	5.69	2.84	14.1138	955.0	3.16	Outcome2	7.7	5.69	0.0	No	n/a	-2.00688939222348	n/a	n/a	n/a	ISITrial	Gain
193.516	3.0	0.019	255.446	14.0	1	11.3	-0.54	15.5263	955.0	2.48	Outcome2	-1.07	11.3	0.0	No	2.0	12.3714609286523	1.084	194.6	n/a	GetAnswer	Loss
194.615	4.0	0.015	256.545	14.0	1	11.3	-0.54	15.5263	955.0	2.48	Outcome2	-1.07	11.3	0.0	No	n/a	12.3714609286523	n/a	n/a	n/a	ShowChoice	Loss
198.631	1.0	0.016	260.561	14.0	1	11.3	-0.54	15.5263	955.0	2.48	Outcome2	-1.07	11.3	0.0	No	n/a	12.3714609286523	n/a	n/a	n/a	ShowResult	Loss
199.647	5.019	0.016	261.577	14.0	1	11.3	-0.54	15.5263	955.0	2.48	Outcome2	-1.07	11.3	0.0	No	n/a	12.3714609286523	n/a	n/a	n/a	ISITrial	Loss
204.695	3.0	0.029	266.625	15.0	1	-1.0	-1.0	15.4013	955.0	1.82	Certain	4.7	-8.11	3.3485	Yes	4.0	12.8052095130238	1.572	206.267	n/a	GetAnswer	Gain
206.295	4.0	0.028	268.225	15.0	1	-1.0	-1.0	15.4013	955.0	1.82	Certain	4.7	-8.11	3.3485	Yes	n/a	12.8052095130238	n/a	n/a	n/a	ShowChoice	Gain
210.31	1.0	0.015	272.24	15.0	1	-1.0	-1.0	15.4013	955.0	1.82	Certain	4.7	-8.11	3.3485	Yes	n/a	12.8052095130238	n/a	n/a	n/a	ShowResult	Gain
211.326	7.614	0.016	273.256	15.0	1	-1.0	-1.0	15.4013	955.0	1.82	Certain	4.7	-8.11	3.3485	Yes	n/a	12.8052095130238	n/a	n/a	n/a	ISITrial	Gain
218.957	3.348	0.017	280.887	15.0	1	-1.0	-1.0	15.4013	955.0	1.82	Certain	4.7	-8.11	3.3485	Yes	n/a	12.8052095130238	n/a	n/a	n/a	TrialHappPreview	Gain
222.322	4.016	0.017	284.252	15.0	1	-1.0	-1.0	15.4013	955.0	1.82	Certain	4.7	-8.11	3.3485	Yes	n/a	12.8052095130238	n/a	n/a	572.0	TrialHappiness	Gain
222.323	0.523	n/a	284.862	15.0	1	-1.0	-1.0	15.4013	955.0	1.82	Certain	4.7	-8.11	3.3485	Yes	n/a	12.8052095130238	n/a	n/a	572.0	TrialHappinessSliderResponse	Gain
226.338	5.394	4.016	288.268	15.0	1	-1.0	-1.0	15.4013	955.0	1.82	Certain	4.7	-8.11	3.3485	Yes	n/a	12.8052095130238	n/a	n/a	n/a	ISIRate	Gain
231.753	3.0	0.021	293.683	16.0	1	0.0	0.0	15.4013	955.0	4.2	Certain	6.1	-7.14	0.0	No	4.0	13.238958097395198	1.079	232.832	n/a	GetAnswer	Gain
232.852	4.0	0.02	294.782	16.0	1	0.0	0.0	15.4013	955.0	4.2	Certain	6.1	-7.14	0.0	No	n/a	13.238958097395198	n/a	n/a	n/a	ShowChoice	Gain
236.867	1.0	0.015	298.797	16.0	1	0.0	0.0	15.4013	955.0	4.2	Certain	6.1	-7.14	0.0	No	n/a	13.238958097395198	n/a	n/a	n/a	ShowResult	Gain
237.884	3.008	0.017	299.814	16.0	1	0.0	0.0	15.4013	955.0	4.2	Certain	6.1	-7.14	0.0	No	n/a	13.238958097395198	n/a	n/a	n/a	ISITrial	Gain
240.916	3.0	0.024	302.846	17.0	1	3.35	1.68	15.8201	955.0	2.8	Outcome2	5.5	3.35	3.0415	Yes	2.0	-2.15147225368063	1.079	241.995	n/a	GetAnswer	Gain
242.016	4.0	0.021	303.946	17.0	1	3.35	1.68	15.8201	955.0	2.8	Outcome2	5.5	3.35	3.0415	Yes	n/a	-2.15147225368063	n/a	n/a	n/a	ShowChoice	Gain
246.031	1.0	0.015	307.961	17.0	1	3.35	1.68	15.8201	955.0	2.8	Outcome2	5.5	3.35	3.0415	Yes	n/a	-2.15147225368063	n/a	n/a	n/a	ShowResult	Gain
247.047	3.566	0.016	308.977	17.0	1	3.35	1.68	15.8201	955.0	2.8	Outcome2	5.5	3.35	3.0415	Yes	n/a	-2.15147225368063	n/a	n/a	n/a	ISITrial	Gain
250.629	3.042	0.016	312.559	17.0	1	3.35	1.68	15.8201	955.0	2.8	Outcome2	5.5	3.35	3.0415	Yes	n/a	-2.15147225368063	n/a	n/a	n/a	TrialHappPreview	Gain
253.695	4.015	0.024	315.625	17.0	1	3.35	1.68	15.8201	955.0	2.8	Outcome2	5.5	3.35	3.0415	Yes	n/a	-2.15147225368063	n/a	n/a	572.0	TrialHappiness	Gain
253.696	0.534	n/a	316.136	17.0	1	3.35	1.68	15.8201	955.0	2.8	Outcome2	5.5	3.35	3.0415	Yes	n/a	-2.15147225368063	n/a	n/a	572.0	TrialHappinessSliderResponse	Gain
257.71	4.166	4.015	319.64	17.0	1	3.35	1.68	15.8201	955.0	2.8	Outcome2	5.5	3.35	3.0415	Yes	n/a	-2.15147225368063	n/a	n/a	n/a	ISIRate	Gain
261.909	3.0	0.033	323.839	18.0	1	13.5	-0.3	17.5076	955.0	2.8	Outcome2	-0.61	13.5	0.0	No	2.0	14.106455266138198	1.195	263.104	n/a	GetAnswer	Loss
263.125	4.0	0.021	325.055	18.0	1	13.5	-0.3	17.5076	955.0	2.8	Outcome2	-0.61	13.5	0.0	No	n/a	14.106455266138198	n/a	n/a	n/a	ShowChoice	Loss
267.14	1.0	0.015	329.07	18.0	1	13.5	-0.3	17.5076	955.0	2.8	Outcome2	-0.61	13.5	0.0	No	n/a	14.106455266138198	n/a	n/a	n/a	ShowResult	Loss
268.157	6.787	0.017	330.087	18.0	1	13.5	-0.3	17.5076	955.0	2.8	Outcome2	-0.61	13.5	0.0	No	n/a	14.106455266138198	n/a	n/a	n/a	ISITrial	Loss
274.971	3.0	0.027	336.901	19.0	1	8.48	4.24	18.5676	955.0	1.82	Outcome2	10.7	8.48	0.0	No	2.0	-2.22376368440921	0.924	275.895	n/a	GetAnswer	Loss
275.92	4.0	0.025	337.85	19.0	1	8.48	4.24	18.5676	955.0	1.82	Outcome2	10.7	8.48	0.0	No	n/a	-2.22376368440921	n/a	n/a	n/a	ShowChoice	Loss
279.936	1.0	0.016	341.866	19.0	1	8.48	4.24	18.5676	955.0	1.82	Outcome2	10.7	8.48	0.0	No	n/a	-2.22376368440921	n/a	n/a	n/a	ShowResult	Loss
280.952	2.0	0.016	342.882	19.0	1	8.48	4.24	18.5676	955.0	1.82	Outcome2	10.7	8.48	0.0	No	n/a	-2.22376368440921	n/a	n/a	n/a	ISITrial	Loss
282.985	3.0	0.033	344.915	20.0	1	-7.0	-7.0	17.6926	955.0	2.0	Certain	-14.67	0.3	2.92125	Yes	4.0	14.9739524348811	1.343	284.328	n/a	GetAnswer	Mixed
284.351	4.0	0.023	346.281	20.0	1	-7.0	-7.0	17.6926	955.0	2.0	Certain	-14.67	0.3	2.92125	Yes	n/a	14.9739524348811	n/a	n/a	n/a	ShowChoice	Mixed
288.366	1.0	0.015	350.296	20.0	1	-7.0	-7.0	17.6926	955.0	2.0	Certain	-14.67	0.3	2.92125	Yes	n/a	14.9739524348811	n/a	n/a	n/a	ShowResult	Mixed
289.382	8.0	0.016	351.312	20.0	1	-7.0	-7.0	17.6926	955.0	2.0	Certain	-14.67	0.3	2.92125	Yes	n/a	14.9739524348811	n/a	n/a	n/a	ISITrial	Mixed
297.413	2.921	0.031	359.343	20.0	1	-7.0	-7.0	17.6926	955.0	2.0	Certain	-14.67	0.3	2.92125	Yes	n/a	14.9739524348811	n/a	n/a	n/a	TrialHappPreview	Mixed
300.362	4.015	0.028	362.292	20.0	1	-7.0	-7.0	17.6926	955.0	2.0	Certain	-14.67	0.3	2.92125	Yes	n/a	14.9739524348811	n/a	n/a	580.0	TrialHappiness	Mixed
300.363	1.842	n/a	362.711	20.0	1	-7.0	-7.0	17.6926	955.0	2.0	Certain	-14.67	0.3	2.92125	Yes	n/a	14.9739524348811	n/a	n/a	580.0	TrialHappinessSliderResponse	Mixed
304.377	3.685	4.015	366.307	20.0	1	-7.0	-7.0	17.6926	955.0	2.0	Certain	-14.67	0.3	2.92125	Yes	n/a	14.9739524348811	n/a	n/a	n/a	ISIRate	Mixed
308.093	3.0	0.031	370.023	21.0	1	8.24	4.12	18.7226	955.0	1.68	Outcome2	10.5	8.24	0.0	No	2.0	-2.2635900339750896	0.939	309.032	n/a	GetAnswer	Loss
309.059	4.0	0.027	370.989	21.0	1	8.24	4.12	18.7226	955.0	1.68	Outcome2	10.5	8.24	0.0	No	n/a	-2.2635900339750896	n/a	n/a	n/a	ShowChoice	Loss
313.074	1.0	0.015	375.004	21.0	1	8.24	4.12	18.7226	955.0	1.68	Outcome2	10.5	8.24	0.0	No	n/a	-2.2635900339750896	n/a	n/a	n/a	ShowResult	Loss
314.09	3.555	0.016	376.02	21.0	1	8.24	4.12	18.7226	955.0	1.68	Outcome2	10.5	8.24	0.0	No	n/a	-2.2635900339750896	n/a	n/a	n/a	ISITrial	Loss
317.673	3.0	0.028	379.603	22.0	1	12.1	-1.8	20.2351	955.0	4.2	Outcome2	-3.6	12.1	3.2195	Yes	2.0	15.6964892412231	1.171	318.844	n/a	GetAnswer	Loss
318.872	4.0	0.028	380.802	22.0	1	12.1	-1.8	20.2351	955.0	4.2	Outcome2	-3.6	12.1	3.2195	Yes	n/a	15.6964892412231	n/a	n/a	n/a	ShowChoice	Loss
322.887	1.0	0.015	384.817	22.0	1	12.1	-1.8	20.2351	955.0	4.2	Outcome2	-3.6	12.1	3.2195	Yes	n/a	15.6964892412231	n/a	n/a	n/a	ShowResult	Loss
323.904	6.793	0.017	385.834	22.0	1	12.1	-1.8	20.2351	955.0	4.2	Outcome2	-3.6	12.1	3.2195	Yes	n/a	15.6964892412231	n/a	n/a	n/a	ISITrial	Loss
330.718	3.22	0.021	392.648	22.0	1	12.1	-1.8	20.2351	955.0	4.2	Outcome2	-3.6	12.1	3.2195	Yes	n/a	15.6964892412231	n/a	n/a	n/a	TrialHappPreview	Loss
333.967	4.015	0.029	395.897	22.0	1	12.1	-1.8	20.2351	955.0	4.2	Outcome2	-3.6	12.1	3.2195	Yes	n/a	15.6964892412231	n/a	n/a	592.0	TrialHappiness	Loss
333.968	0.794	n/a	396.282	22.0	1	12.1	-1.8	20.2351	955.0	4.2	Outcome2	-3.6	12.1	3.2195	Yes	n/a	15.6964892412231	n/a	n/a	592.0	TrialHappinessSliderResponse	Loss
337.982	4.878	4.015	399.912	22.0	1	12.1	-1.8	20.2351	955.0	4.2	Outcome2	-3.6	12.1	3.2195	Yes	n/a	15.6964892412231	n/a	n/a	n/a	ISIRate	Loss
342.88	3.0	0.02	404.81	23.0	1	9.5	1.0	21.4226	955.0	2.8	Outcome2	-6.42	9.5	0.0	No	2.0	15.9173272933182	1.159	344.039	n/a	GetAnswer	Gain
344.063	4.0	0.024	405.993	23.0	1	9.5	1.0	21.4226	955.0	2.8	Outcome2	-6.42	9.5	0.0	No	n/a	15.9173272933182	n/a	n/a	n/a	ShowChoice	Gain
348.079	1.0	0.016	410.009	23.0	1	9.5	1.0	21.4226	955.0	2.8	Outcome2	-6.42	9.5	0.0	No	n/a	15.9173272933182	n/a	n/a	n/a	ShowResult	Gain
349.095	8.0	0.016	411.025	23.0	1	9.5	1.0	21.4226	955.0	2.8	Outcome2	-6.42	9.5	0.0	No	n/a	15.9173272933182	n/a	n/a	n/a	ISITrial	Gain
357.125	3.0	0.03	419.055	24.0	1	12.9	-1.72	23.0351	955.0	2.0	Outcome2	-3.43	12.9	3.255	Yes	2.0	16.3284258210646	1.113	358.238	n/a	GetAnswer	Loss
358.258	4.0	0.02	420.188	24.0	1	12.9	-1.72	23.0351	955.0	2.0	Outcome2	-3.43	12.9	3.255	Yes	n/a	16.3284258210646	n/a	n/a	n/a	ShowChoice	Loss
362.274	1.0	0.016	424.204	24.0	1	12.9	-1.72	23.0351	955.0	2.0	Outcome2	-3.43	12.9	3.255	Yes	n/a	16.3284258210646	n/a	n/a	n/a	ShowResult	Loss
363.29	2.0	0.016	425.22	24.0	1	12.9	-1.72	23.0351	955.0	2.0	Outcome2	-3.43	12.9	3.255	Yes	n/a	16.3284258210646	n/a	n/a	n/a	ISITrial	Loss
365.306	3.255	0.016	427.236	24.0	1	12.9	-1.72	23.0351	955.0	2.0	Outcome2	-3.43	12.9	3.255	Yes	n/a	16.3284258210646	n/a	n/a	n/a	TrialHappPreview	Loss
368.588	4.015	0.027	430.518	24.0	1	12.9	-1.72	23.0351	955.0	2.0	Outcome2	-3.43	12.9	3.255	Yes	n/a	16.3284258210646	n/a	n/a	592.0	TrialHappiness	Loss
368.589	0.733	n/a	430.871	24.0	1	12.9	-1.72	23.0351	955.0	2.0	Outcome2	-3.43	12.9	3.255	Yes	n/a	16.3284258210646	n/a	n/a	592.0	TrialHappinessSliderResponse	Loss
372.603	5.02	4.015	434.533	24.0	1	12.9	-1.72	23.0351	955.0	2.0	Outcome2	-3.43	12.9	3.255	Yes	n/a	16.3284258210646	n/a	n/a	n/a	ISIRate	Loss
377.652	3.0	0.029	439.582	25.0	1	4.35	2.17	23.5789	955.0	1.82	Outcome1	4.35	6.7	0.0	No	2.0	-2.35419026047565	1.085	378.737	n/a	GetAnswer	Gain
378.751	4.0	0.014	440.681	25.0	1	4.35	2.17	23.5789	955.0	1.82	Outcome1	4.35	6.7	0.0	No	n/a	-2.35419026047565	n/a	n/a	n/a	ShowChoice	Gain
382.767	1.0	0.016	444.697	25.0	1	4.35	2.17	23.5789	955.0	1.82	Outcome1	4.35	6.7	0.0	No	n/a	-2.35419026047565	n/a	n/a	n/a	ShowResult	Gain
383.783	3.749	0.016	445.713	25.0	1	4.35	2.17	23.5789	955.0	1.82	Outcome1	4.35	6.7	0.0	No	n/a	-2.35419026047565	n/a	n/a	n/a	ISITrial	Gain
387.548	3.0	0.016	449.478	26.0	1	12.7	-2.22	25.1664	955.0	1.82	Outcome1	12.7	-4.45	0.0	No	2.0	17.1506228765572	0.987	388.535	n/a	GetAnswer	Loss
388.548	4.0	0.013	450.478	26.0	1	12.7	-2.22	25.1664	955.0	1.82	Outcome1	12.7	-4.45	0.0	No	n/a	17.1506228765572	n/a	n/a	n/a	ShowChoice	Loss
392.563	1.0	0.015	454.493	26.0	1	12.7	-2.22	25.1664	955.0	1.82	Outcome1	12.7	-4.45	0.0	No	n/a	17.1506228765572	n/a	n/a	n/a	ShowResult	Loss
393.579	7.834	0.016	455.509	26.0	1	12.7	-2.22	25.1664	955.0	1.82	Outcome1	12.7	-4.45	0.0	No	n/a	17.1506228765572	n/a	n/a	n/a	ISITrial	Loss
401.443	3.0	0.03	463.373	27.0	1	0.0	0.0	25.1664	955.0	5.0	Certain	8.3	-9.26	2.54975	Yes	4.0	17.5617214043035	1.94	403.383	n/a	GetAnswer	Gain
403.409	4.0	0.026	465.339	27.0	1	0.0	0.0	25.1664	955.0	5.0	Certain	8.3	-9.26	2.54975	Yes	n/a	17.5617214043035	n/a	n/a	n/a	ShowChoice	Gain
407.425	1.0	0.016	469.355	27.0	1	0.0	0.0	25.1664	955.0	5.0	Certain	8.3	-9.26	2.54975	Yes	n/a	17.5617214043035	n/a	n/a	n/a	ShowResult	Gain
408.441	4.225	0.016	470.371	27.0	1	0.0	0.0	25.1664	955.0	5.0	Certain	8.3	-9.26	2.54975	Yes	n/a	17.5617214043035	n/a	n/a	n/a	ISITrial	Gain
412.689	2.55	0.023	474.619	27.0	1	0.0	0.0	25.1664	955.0	5.0	Certain	8.3	-9.26	2.54975	Yes	n/a	17.5617214043035	n/a	n/a	n/a	TrialHappPreview	Gain
415.255	4.015	0.016	477.185	27.0	1	0.0	0.0	25.1664	955.0	5.0	Certain	8.3	-9.26	2.54975	Yes	n/a	17.5617214043035	n/a	n/a	576.0	TrialHappiness	Gain
415.256	1.257	n/a	477.619	27.0	1	0.0	0.0	25.1664	955.0	5.0	Certain	8.3	-9.26	2.54975	Yes	n/a	17.5617214043035	n/a	n/a	576.0	TrialHappinessSliderResponse	Gain
419.27	2.199	4.015	481.2	27.0	1	0.0	0.0	25.1664	955.0	5.0	Certain	8.3	-9.26	2.54975	Yes	n/a	17.5617214043035	n/a	n/a	n/a	ISIRate	Gain
492.912	0.832	n/a	555.193	n/a	1	n/a	n/a	n/a	n/a	n/a	n/a	n/a	n/a	n/a	n/a	n/a	n/a	n/a	n/a	576.0	BlockStartHappinessSliderResponse	n/a
-81.738	-0.001	0.017	483.416	n/a	2	n/a	n/a	n/a	n/a	n/a	n/a	n/a	n/a	n/a	n/a	{SPACE}	n/a	67.392	-14.346	n/a	Rest	n/a
-14.328	4.0	0.018	550.826	n/a	2	n/a	n/a	n/a	n/a	n/a	n/a	n/a	n/a	n/a	n/a	n/a	n/a	n/a	n/a	n/a	BlockHappyPreview	n/a
-10.313	1.183	0.015	554.841	n/a	2	n/a	n/a	n/a	n/a	n/a	n/a	n/a	n/a	n/a	n/a	n/a	n/a	n/a	n/a	576.0	BlockStartHappiness	n/a
-1.866	-0.001	0.016	563.288	n/a	2	n/a	n/a	n/a	n/a	n/a	n/a	n/a	n/a	n/a	n/a	5.0	n/a	1.847	-0.019	n/a	ScanWait	n/a
0.0	10.0	0.019	565.154	n/a	2	n/a	n/a	n/a	n/a	n/a	n/a	n/a	n/a	n/a	n/a	n/a	n/a	n/a	n/a	n/a	GetReady	n/a
10.014	3.0	0.014	575.168	28.0	2	-2.71	1.0	24.8276	70.0	3.6	Outcome1	-2.71	5.9	0.0	No	2.0	-8.605442176870751	1.194	11.208	n/a	GetAnswer	Gain
11.23	4.0	0.022	576.384	28.0	2	-2.71	1.0	24.8276	70.0	3.6	Outcome1	-2.71	5.9	0.0	No	n/a	-8.605442176870751	n/a	n/a	n/a	ShowChoice	Gain
15.245	1.0	0.015	580.399	28.0	2	-2.71	1.0	24.8276	70.0	3.6	Outcome1	-2.71	5.9	0.0	No	n/a	-8.605442176870751	n/a	n/a	n/a	ShowResult	Gain
16.261	3.575	0.016	581.415	28.0	2	-2.71	1.0	24.8276	70.0	3.6	Outcome1	-2.71	5.9	0.0	No	n/a	-8.605442176870751	n/a	n/a	n/a	ISITrial	Gain
19.86	3.0	0.024	585.014	29.0	2	0.0	0.0	24.8276	70.0	1.2	Certain	-1.12	0.98	3.529	Yes	4.0	2.10355253212396	1.251	21.111	n/a	GetAnswer	Mixed
21.126	4.0	0.015	586.28	29.0	2	0.0	0.0	24.8276	70.0	1.2	Certain	-1.12	0.98	3.529	Yes	n/a	2.10355253212396	n/a	n/a	n/a	ShowChoice	Mixed
25.142	1.0	0.016	590.296	29.0	2	0.0	0.0	24.8276	70.0	1.2	Certain	-1.12	0.98	3.529	Yes	n/a	2.10355253212396	n/a	n/a	n/a	ShowResult	Mixed
26.158	3.955	0.016	591.312	29.0	2	0.0	0.0	24.8276	70.0	1.2	Certain	-1.12	0.98	3.529	Yes	n/a	2.10355253212396	n/a	n/a	n/a	ISITrial	Mixed
30.14	3.529	0.027	595.294	29.0	2	0.0	0.0	24.8276	70.0	1.2	Certain	-1.12	0.98	3.529	Yes	n/a	2.10355253212396	n/a	n/a	n/a	TrialHappPreview	Mixed
33.689	4.015	0.02	598.843	29.0	2	0.0	0.0	24.8276	70.0	1.2	Certain	-1.12	0.98	3.529	Yes	n/a	2.10355253212396	n/a	n/a	552.0	TrialHappiness	Mixed
33.689	0.553	n/a	599.164	29.0	2	0.0	0.0	24.8276	70.0	1.2	Certain	-1.12	0.98	3.529	Yes	n/a	2.10355253212396	n/a	n/a	552.0	TrialHappinessSliderResponse	Mixed
37.704	6.116	4.015	602.858	29.0	2	0.0	0.0	24.8276	70.0	1.2	Certain	-1.12	0.98	3.529	Yes	n/a	2.10355253212396	n/a	n/a	n/a	ISIRate	Mixed
43.852	3.0	0.032	609.006	30.0	2	-0.84	-0.42	24.7226	70.0	1.68	Outcome2	8.5	-0.84	0.0	No	2.0	-9.34467120181406	1.159	45.011	n/a	GetAnswer	Gain
45.035	4.0	0.024	610.189	30.0	2	-0.84	-0.42	24.7226	70.0	1.68	Outcome2	8.5	-0.84	0.0	No	n/a	-9.34467120181406	n/a	n/a	n/a	ShowChoice	Gain
49.05	1.0	0.015	614.204	30.0	2	-0.84	-0.42	24.7226	70.0	1.68	Outcome2	8.5	-0.84	0.0	No	n/a	-9.34467120181406	n/a	n/a	n/a	ShowResult	Gain
50.066	4.453	0.016	615.22	30.0	2	-0.84	-0.42	24.7226	70.0	1.68	Outcome2	8.5	-0.84	0.0	No	n/a	-9.34467120181406	n/a	n/a	n/a	ISITrial	Gain
54.548	3.0	0.029	619.702	31.0	2	-0.4	-0.4	24.6726	70.0	2.22	Certain	-0.79	9.1	2.50325	Yes	4.0	-9.89115646258503	1.462	56.01	n/a	GetAnswer	Gain
56.031	4.0	0.021	621.185	31.0	2	-0.4	-0.4	24.6726	70.0	2.22	Certain	-0.79	9.1	2.50325	Yes	n/a	-9.89115646258503	n/a	n/a	n/a	ShowChoice	Gain
60.046	1.0	0.015	625.2	31.0	2	-0.4	-0.4	24.6726	70.0	2.22	Certain	-0.79	9.1	2.50325	Yes	n/a	-9.89115646258503	n/a	n/a	n/a	ShowResult	Gain
61.063	4.786	0.017	626.217	31.0	2	-0.4	-0.4	24.6726	70.0	2.22	Certain	-0.79	9.1	2.50325	Yes	n/a	-9.89115646258503	n/a	n/a	n/a	ISITrial	Gain
65.861	2.503	0.012	631.015	31.0	2	-0.4	-0.4	24.6726	70.0	2.22	Certain	-0.79	9.1	2.50325	Yes	n/a	-9.89115646258503	n/a	n/a	n/a	TrialHappPreview	Gain
68.393	4.016	0.029	633.547	31.0	2	-0.4	-0.4	24.6726	70.0	2.22	Certain	-0.79	9.1	2.50325	Yes	n/a	-9.89115646258503	n/a	n/a	552.0	TrialHappiness	Gain
68.394	0.409	n/a	633.95	31.0	2	-0.4	-0.4	24.6726	70.0	2.22	Certain	-0.79	9.1	2.50325	Yes	n/a	-9.89115646258503	n/a	n/a	552.0	TrialHappinessSliderResponse	Gain
72.409	2.013	4.016	637.563	31.0	2	-0.4	-0.4	24.6726	70.0	2.22	Certain	-0.79	9.1	2.50325	Yes	n/a	-9.89115646258503	n/a	n/a	n/a	ISIRate	Gain
74.441	3.0	0.019	639.595	32.0	2	2.0	2.0	24.9226	70.0	3.6	Certain	7.9	-2.54	0.0	No	4.0	-10.437641723356	1.263	75.704	n/a	GetAnswer	Gain
75.724	4.0	0.02	640.878	32.0	2	2.0	2.0	24.9226	70.0	3.6	Certain	7.9	-2.54	0.0	No	n/a	-10.437641723356	n/a	n/a	n/a	ShowChoice	Gain
79.739	1.0	0.015	644.893	32.0	2	2.0	2.0	24.9226	70.0	3.6	Certain	7.9	-2.54	0.0	No	n/a	-10.437641723356	n/a	n/a	n/a	ShowResult	Gain
80.756	2.0	0.017	645.91	32.0	2	2.0	2.0	24.9226	70.0	3.6	Certain	7.9	-2.54	0.0	No	n/a	-10.437641723356	n/a	n/a	n/a	ISITrial	Gain
82.772	3.0	0.016	647.926	33.0	2	-0.44	-0.44	24.8676	70.0	4.2	Certain	10.1	-0.88	0.0	No	4.0	-10.984126984127	1.31	84.082	n/a	GetAnswer	Gain
84.104	4.0	0.022	649.258	33.0	2	-0.44	-0.44	24.8676	70.0	4.2	Certain	10.1	-0.88	0.0	No	n/a	-10.984126984127	n/a	n/a	n/a	ShowChoice	Gain
88.12	1.0	0.016	653.274	33.0	2	-0.44	-0.44	24.8676	70.0	4.2	Certain	10.1	-0.88	0.0	No	n/a	-10.984126984127	n/a	n/a	n/a	ShowResult	Gain
89.136	5.099	0.016	654.29	33.0	2	-0.44	-0.44	24.8676	70.0	4.2	Certain	10.1	-0.88	0.0	No	n/a	-10.984126984127	n/a	n/a	n/a	ISITrial	Gain
94.251	3.0	0.016	659.405	34.0	2	2.0	2.0	25.1176	70.0	1.68	Certain	3.12	0.88	3.2315	Yes	4.0	2.2360166288737697	1.096	95.347	n/a	GetAnswer	Loss
95.367	4.0	0.02	660.521	34.0	2	2.0	2.0	25.1176	70.0	1.68	Certain	3.12	0.88	3.2315	Yes	n/a	2.2360166288737697	n/a	n/a	n/a	ShowChoice	Loss
99.382	1.0	0.015	664.536	34.0	2	2.0	2.0	25.1176	70.0	1.68	Certain	3.12	0.88	3.2315	Yes	n/a	2.2360166288737697	n/a	n/a	n/a	ShowResult	Loss
100.399	4.784	0.017	665.553	34.0	2	2.0	2.0	25.1176	70.0	1.68	Certain	3.12	0.88	3.2315	Yes	n/a	2.2360166288737697	n/a	n/a	n/a	ISITrial	Loss
105.197	3.232	0.014	670.351	34.0	2	2.0	2.0	25.1176	70.0	1.68	Certain	3.12	0.88	3.2315	Yes	n/a	2.2360166288737697	n/a	n/a	n/a	TrialHappPreview	Loss
108.446	4.015	0.017	673.6	34.0	2	2.0	2.0	25.1176	70.0	1.68	Certain	3.12	0.88	3.2315	Yes	n/a	2.2360166288737697	n/a	n/a	568.0	TrialHappiness	Loss
108.447	0.653	n/a	673.926	34.0	2	2.0	2.0	25.1176	70.0	1.68	Certain	3.12	0.88	3.2315	Yes	n/a	2.2360166288737697	n/a	n/a	568.0	TrialHappinessSliderResponse	Loss
112.461	4.926	4.015	677.615	34.0	2	2.0	2.0	25.1176	70.0	1.68	Certain	3.12	0.88	3.2315	Yes	n/a	2.2360166288737697	n/a	n/a	n/a	ISIRate	Loss
117.41	3.0	0.023	682.564	35.0	2	-5.0	-5.0	24.4926	70.0	0.66	Certain	1.3	-11.05	0.0	No	4.0	-12.3492063492063	1.832	119.242	n/a	GetAnswer	Mixed
119.259	4.0	0.017	684.413	35.0	2	-5.0	-5.0	24.4926	70.0	0.66	Certain	1.3	-11.05	0.0	No	n/a	-12.3492063492063	n/a	n/a	n/a	ShowChoice	Mixed
123.274	1.0	0.015	688.428	35.0	2	-5.0	-5.0	24.4926	70.0	0.66	Certain	1.3	-11.05	0.0	No	n/a	-12.3492063492063	n/a	n/a	n/a	ShowResult	Mixed
124.29	2.098	0.016	689.444	35.0	2	-5.0	-5.0	24.4926	70.0	0.66	Certain	1.3	-11.05	0.0	No	n/a	-12.3492063492063	n/a	n/a	n/a	ISITrial	Mixed
126.406	3.0	0.018	691.56	36.0	2	-4.0	-4.0	23.9926	70.0	1.5	Certain	2.1	-10.81	3.33575	Yes	4.0	-12.9138321995465	1.653	128.059	n/a	GetAnswer	Mixed
128.072	4.0	0.013	693.226	36.0	2	-4.0	-4.0	23.9926	70.0	1.5	Certain	2.1	-10.81	3.33575	Yes	n/a	-12.9138321995465	n/a	n/a	n/a	ShowChoice	Mixed
132.088	1.0	0.016	697.242	36.0	2	-4.0	-4.0	23.9926	70.0	1.5	Certain	2.1	-10.81	3.33575	Yes	n/a	-12.9138321995465	n/a	n/a	n/a	ShowResult	Mixed
133.104	5.156	0.016	698.258	36.0	2	-4.0	-4.0	23.9926	70.0	1.5	Certain	2.1	-10.81	3.33575	Yes	n/a	-12.9138321995465	n/a	n/a	n/a	ISITrial	Mixed
138.286	3.336	0.026	703.44	36.0	2	-4.0	-4.0	23.9926	70.0	1.5	Certain	2.1	-10.81	3.33575	Yes	n/a	-12.9138321995465	n/a	n/a	n/a	TrialHappPreview	Mixed
141.651	4.015	0.029	706.805	36.0	2	-4.0	-4.0	23.9926	70.0	1.5	Certain	2.1	-10.81	3.33575	Yes	n/a	-12.9138321995465	n/a	n/a	552.0	TrialHappiness	Mixed
141.652	0.347	n/a	707.303	36.0	2	-4.0	-4.0	23.9926	70.0	1.5	Certain	2.1	-10.81	3.33575	Yes	n/a	-12.9138321995465	n/a	n/a	552.0	TrialHappinessSliderResponse	Mixed
145.666	5.343	4.015	710.82	36.0	2	-4.0	-4.0	23.9926	70.0	1.5	Certain	2.1	-10.81	3.33575	Yes	n/a	-12.9138321995465	n/a	n/a	n/a	ISIRate	Mixed
151.031	3.0	0.022	716.185	37.0	2	-1.0	-1.0	23.8676	70.0	2.0	Certain	4.9	-8.31	0.0	No	4.0	-13.2063492063492	1.081	152.112	n/a	GetAnswer	Gain
152.131	4.0	0.019	717.285	37.0	2	-1.0	-1.0	23.8676	70.0	2.0	Certain	4.9	-8.31	0.0	No	n/a	-13.2063492063492	n/a	n/a	n/a	ShowChoice	Gain
156.146	1.0	0.015	721.3	37.0	2	-1.0	-1.0	23.8676	70.0	2.0	Certain	4.9	-8.31	0.0	No	n/a	-13.2063492063492	n/a	n/a	n/a	ShowResult	Gain
157.162	3.598	0.016	722.316	37.0	2	-1.0	-1.0	23.8676	70.0	2.0	Certain	4.9	-8.31	0.0	No	n/a	-13.2063492063492	n/a	n/a	n/a	ISITrial	Gain
160.778	3.0	0.018	725.932	38.0	2	0.0	0.0	23.8676	70.0	3.16	Certain	-1.0	1.42	0.0	No	4.0	2.42120181405896	1.382	162.16	n/a	GetAnswer	Gain
162.177	4.0	0.017	727.331	38.0	2	0.0	0.0	23.8676	70.0	3.16	Certain	-1.0	1.42	0.0	No	n/a	2.42120181405896	n/a	n/a	n/a	ShowChoice	Gain
166.193	1.0	0.016	731.347	38.0	2	0.0	0.0	23.8676	70.0	3.16	Certain	-1.0	1.42	0.0	No	n/a	2.42120181405896	n/a	n/a	n/a	ShowResult	Gain
167.209	4.787	0.016	732.363	38.0	2	0.0	0.0	23.8676	70.0	3.16	Certain	-1.0	1.42	0.0	No	n/a	2.42120181405896	n/a	n/a	n/a	ISITrial	Gain
172.024	3.0	0.028	737.178	39.0	2	-1.0	-1.0	23.7426	70.0	0.82	Certain	-2.59	-0.12	2.86425	Yes	4.0	2.46674225245654	1.243	173.267	n/a	GetAnswer	Mixed
173.29	4.0	0.023	738.444	39.0	2	-1.0	-1.0	23.7426	70.0	0.82	Certain	-2.59	-0.12	2.86425	Yes	n/a	2.46674225245654	n/a	n/a	n/a	ShowChoice	Mixed
177.305	1.0	0.015	742.459	39.0	2	-1.0	-1.0	23.7426	70.0	0.82	Certain	-2.59	-0.12	2.86425	Yes	n/a	2.46674225245654	n/a	n/a	n/a	ShowResult	Mixed
178.322	2.348	0.017	743.476	39.0	2	-1.0	-1.0	23.7426	70.0	0.82	Certain	-2.59	-0.12	2.86425	Yes	n/a	2.46674225245654	n/a	n/a	n/a	ISITrial	Mixed
180.687	2.864	0.017	745.841	39.0	2	-1.0	-1.0	23.7426	70.0	0.82	Certain	-2.59	-0.12	2.86425	Yes	n/a	2.46674225245654	n/a	n/a	n/a	TrialHappPreview	Mixed
183.57	4.015	0.019	748.724	39.0	2	-1.0	-1.0	23.7426	70.0	0.82	Certain	-2.59	-0.12	2.86425	Yes	n/a	2.46674225245654	n/a	n/a	552.0	TrialHappiness	Mixed
183.57	0.361	n/a	748.993	39.0	2	-1.0	-1.0	23.7426	70.0	0.82	Certain	-2.59	-0.12	2.86425	Yes	n/a	2.46674225245654	n/a	n/a	552.0	TrialHappinessSliderResponse	Mixed
187.585	3.457	4.015	752.739	39.0	2	-1.0	-1.0	23.7426	70.0	0.82	Certain	-2.59	-0.12	2.86425	Yes	n/a	2.46674225245654	n/a	n/a	n/a	ISIRate	Mixed
191.067	3.0	0.025	756.221	40.0	2	2.92	1.0	24.1076	70.0	3.16	Outcome2	0.41	2.92	0.0	No	2.0	2.51228269085412	1.458	192.525	n/a	GetAnswer	Loss
192.55	4.0	0.025	757.704	40.0	2	2.92	1.0	24.1076	70.0	3.16	Outcome2	0.41	2.92	0.0	No	n/a	2.51228269085412	n/a	n/a	n/a	ShowChoice	Loss
196.565	1.0	0.015	761.719	40.0	2	2.92	1.0	24.1076	70.0	3.16	Outcome2	0.41	2.92	0.0	No	n/a	2.51228269085412	n/a	n/a	n/a	ShowResult	Loss
197.582	3.158	0.017	762.736	40.0	2	2.92	1.0	24.1076	70.0	3.16	Outcome2	0.41	2.92	0.0	No	n/a	2.51228269085412	n/a	n/a	n/a	ISITrial	Loss
200.764	3.0	0.024	765.918	41.0	2	-7.0	-7.0	23.2326	70.0	0.4	Certain	-14.49	0.9	4.0	Yes	4.0	-15.3922902494331	1.3	202.064	n/a	GetAnswer	Mixed
202.08	4.0	0.016	767.234	41.0	2	-7.0	-7.0	23.2326	70.0	0.4	Certain	-14.49	0.9	4.0	Yes	n/a	-15.3922902494331	n/a	n/a	n/a	ShowChoice	Mixed
206.095	1.0	0.015	771.249	41.0	2	-7.0	-7.0	23.2326	70.0	0.4	Certain	-14.49	0.9	4.0	Yes	n/a	-15.3922902494331	n/a	n/a	n/a	ShowResult	Mixed
207.112	4.506	0.017	772.266	41.0	2	-7.0	-7.0	23.2326	70.0	0.4	Certain	-14.49	0.9	4.0	Yes	n/a	-15.3922902494331	n/a	n/a	n/a	ISITrial	Mixed
211.643	4.0	0.025	776.797	41.0	2	-7.0	-7.0	23.2326	70.0	0.4	Certain	-14.49	0.9	4.0	Yes	n/a	-15.3922902494331	n/a	n/a	n/a	TrialHappPreview	Mixed
215.675	4.016	0.032	780.829	41.0	2	-7.0	-7.0	23.2326	70.0	0.4	Certain	-14.49	0.9	4.0	Yes	n/a	-15.3922902494331	n/a	n/a	552.0	TrialHappiness	Mixed
215.676	0.546	n/a	781.105	41.0	2	-7.0	-7.0	23.2326	70.0	0.4	Certain	-14.49	0.9	4.0	Yes	n/a	-15.3922902494331	n/a	n/a	552.0	TrialHappinessSliderResponse	Mixed
219.691	8.0	4.016	784.845	41.0	2	-7.0	-7.0	23.2326	70.0	0.4	Certain	-14.49	0.9	4.0	Yes	n/a	-15.3922902494331	n/a	n/a	n/a	ISIRate	Mixed
227.721	3.0	0.03	792.875	42.0	2	-3.64	-1.82	22.7776	70.0	5.0	Outcome1	-3.64	12.3	0.0	No	2.0	-15.9387755102041	1.244	228.965	n/a	GetAnswer	Loss
228.987	4.0	0.022	794.141	42.0	2	-3.64	-1.82	22.7776	70.0	5.0	Outcome1	-3.64	12.3	0.0	No	n/a	-15.9387755102041	n/a	n/a	n/a	ShowChoice	Loss
233.003	1.0	0.016	798.157	42.0	2	-3.64	-1.82	22.7776	70.0	5.0	Outcome1	-3.64	12.3	0.0	No	n/a	-15.9387755102041	n/a	n/a	n/a	ShowResult	Loss
234.019	6.248	0.016	799.173	42.0	2	-3.64	-1.82	22.7776	70.0	5.0	Outcome1	-3.64	12.3	0.0	No	n/a	-15.9387755102041	n/a	n/a	n/a	ISITrial	Loss
240.283	3.0	0.016	805.437	43.0	2	-4.0	-4.0	22.2776	70.0	0.82	Certain	3.5	-12.99	2.77575	Yes	4.0	-16.4852607709751	1.331	241.614	n/a	GetAnswer	Mixed
241.633	4.0	0.019	806.787	43.0	2	-4.0	-4.0	22.2776	70.0	0.82	Certain	3.5	-12.99	2.77575	Yes	n/a	-16.4852607709751	n/a	n/a	n/a	ShowChoice	Mixed
245.648	1.0	0.015	810.802	43.0	2	-4.0	-4.0	22.2776	70.0	0.82	Certain	3.5	-12.99	2.77575	Yes	n/a	-16.4852607709751	n/a	n/a	n/a	ShowResult	Mixed
246.664	4.596	0.016	811.818	43.0	2	-4.0	-4.0	22.2776	70.0	0.82	Certain	3.5	-12.99	2.77575	Yes	n/a	-16.4852607709751	n/a	n/a	n/a	ISITrial	Mixed
251.28	2.776	0.02	816.434	43.0	2	-4.0	-4.0	22.2776	70.0	0.82	Certain	3.5	-12.99	2.77575	Yes	n/a	-16.4852607709751	n/a	n/a	n/a	TrialHappPreview	Mixed
254.079	4.015	0.023	819.233	43.0	2	-4.0	-4.0	22.2776	70.0	0.82	Certain	3.5	-12.99	2.77575	Yes	n/a	-16.4852607709751	n/a	n/a	532.0	TrialHappiness	Mixed
254.079	0.101	n/a	819.562	43.0	2	-4.0	-4.0	22.2776	70.0	0.82	Certain	3.5	-12.99	2.77575	Yes	n/a	-16.4852607709751	n/a	n/a	532.0	TrialHappinessSliderResponse	Mixed
258.094	3.103	4.015	823.248	43.0	2	-4.0	-4.0	22.2776	70.0	0.82	Certain	3.5	-12.99	2.77575	Yes	n/a	-16.4852607709751	n/a	n/a	n/a	ISIRate	Mixed
261.226	3.0	0.029	826.38	44.0	2	0.0	0.0	22.2776	70.0	2.48	Certain	1.82	-0.79	0.0	No	4.0	2.61318972033258	1.182	262.408	n/a	GetAnswer	Gain
262.426	4.0	0.018	827.58	44.0	2	0.0	0.0	22.2776	70.0	2.48	Certain	1.82	-0.79	0.0	No	n/a	2.61318972033258	n/a	n/a	n/a	ShowChoice	Gain
266.441	1.0	0.015	831.595	44.0	2	0.0	0.0	22.2776	70.0	2.48	Certain	1.82	-0.79	0.0	No	n/a	2.61318972033258	n/a	n/a	n/a	ShowResult	Gain
267.457	2.42	0.016	832.611	44.0	2	0.0	0.0	22.2776	70.0	2.48	Certain	1.82	-0.79	0.0	No	n/a	2.61318972033258	n/a	n/a	n/a	ISITrial	Gain
269.906	3.0	0.029	835.06	45.0	2	-5.0	-5.0	21.6526	70.0	0.52	Certain	3.1	-14.12	0.0	No	4.0	-17.215419501133802	1.317	271.223	n/a	GetAnswer	Mixed
271.239	4.0	0.015	836.393	45.0	2	-5.0	-5.0	21.6526	70.0	0.52	Certain	3.1	-14.12	0.0	No	n/a	-17.215419501133802	n/a	n/a	n/a	ShowChoice	Mixed
275.254	1.0	0.015	840.408	45.0	2	-5.0	-5.0	21.6526	70.0	0.52	Certain	3.1	-14.12	0.0	No	n/a	-17.215419501133802	n/a	n/a	n/a	ShowResult	Mixed
276.271	3.144	0.017	841.425	45.0	2	-5.0	-5.0	21.6526	70.0	0.52	Certain	3.1	-14.12	0.0	No	n/a	-17.215419501133802	n/a	n/a	n/a	ISITrial	Mixed
279.436	3.0	0.021	844.59	46.0	2	-7.0	-7.0	20.7776	70.0	1.0	Certain	1.7	-16.04	3.84125	Yes	4.0	-17.739229024943302	0.922	280.358	n/a	GetAnswer	Mixed
280.369	4.0	0.011	845.523	46.0	2	-7.0	-7.0	20.7776	70.0	1.0	Certain	1.7	-16.04	3.84125	Yes	n/a	-17.739229024943302	n/a	n/a	n/a	ShowChoice	Mixed
284.385	1.0	0.016	849.539	46.0	2	-7.0	-7.0	20.7776	70.0	1.0	Certain	1.7	-16.04	3.84125	Yes	n/a	-17.739229024943302	n/a	n/a	n/a	ShowResult	Mixed
285.401	2.246	0.016	850.555	46.0	2	-7.0	-7.0	20.7776	70.0	1.0	Certain	1.7	-16.04	3.84125	Yes	n/a	-17.739229024943302	n/a	n/a	n/a	ISITrial	Mixed
287.667	3.841	0.02	852.821	46.0	2	-7.0	-7.0	20.7776	70.0	1.0	Certain	1.7	-16.04	3.84125	Yes	n/a	-17.739229024943302	n/a	n/a	n/a	TrialHappPreview	Mixed
291.532	4.015	0.024	856.686	46.0	2	-7.0	-7.0	20.7776	70.0	1.0	Certain	1.7	-16.04	3.84125	Yes	n/a	-17.739229024943302	n/a	n/a	532.0	TrialHappiness	Mixed
291.533	0.096	n/a	856.951	46.0	2	-7.0	-7.0	20.7776	70.0	1.0	Certain	1.7	-16.04	3.84125	Yes	n/a	-17.739229024943302	n/a	n/a	532.0	TrialHappinessSliderResponse	Mixed
295.547	7.365	4.015	860.701	46.0	2	-7.0	-7.0	20.7776	70.0	1.0	Certain	1.7	-16.04	3.84125	Yes	n/a	-17.739229024943302	n/a	n/a	n/a	ISIRate	Mixed
302.928	3.0	0.016	868.082	47.0	2	1.0	1.0	20.9026	70.0	1.82	Certain	2.17	-0.57	0.0	No	4.0	2.74414210128496	0.923	303.851	n/a	GetAnswer	Gain
303.878	4.0	0.027	869.032	47.0	2	1.0	1.0	20.9026	70.0	1.82	Certain	2.17	-0.57	0.0	No	n/a	2.74414210128496	n/a	n/a	n/a	ShowChoice	Gain
307.893	1.0	0.015	873.047	47.0	2	1.0	1.0	20.9026	70.0	1.82	Certain	2.17	-0.57	0.0	No	n/a	2.74414210128496	n/a	n/a	n/a	ShowResult	Gain
308.909	2.0	0.016	874.063	47.0	2	1.0	1.0	20.9026	70.0	1.82	Certain	2.17	-0.57	0.0	No	n/a	2.74414210128496	n/a	n/a	n/a	ISITrial	Gain
310.925	3.0	0.016	876.079	48.0	2	-7.0	-7.0	20.0276	70.0	0.2	Certain	2.5	-16.29	2.83175	Yes	4.0	-18.7868480725624	1.065	311.99	n/a	GetAnswer	Mixed
312.008	4.0	0.018	877.162	48.0	2	-7.0	-7.0	20.0276	70.0	0.2	Certain	2.5	-16.29	2.83175	Yes	n/a	-18.7868480725624	n/a	n/a	n/a	ShowChoice	Mixed
316.024	1.0	0.016	881.178	48.0	2	-7.0	-7.0	20.0276	70.0	0.2	Certain	2.5	-16.29	2.83175	Yes	n/a	-18.7868480725624	n/a	n/a	n/a	ShowResult	Mixed
317.04	3.692	0.016	882.194	48.0	2	-7.0	-7.0	20.0276	70.0	0.2	Certain	2.5	-16.29	2.83175	Yes	n/a	-18.7868480725624	n/a	n/a	n/a	ISITrial	Mixed
320.755	2.832	0.023	885.909	48.0	2	-7.0	-7.0	20.0276	70.0	0.2	Certain	2.5	-16.29	2.83175	Yes	n/a	-18.7868480725624	n/a	n/a	n/a	TrialHappPreview	Mixed
323.604	4.016	0.017	888.758	48.0	2	-7.0	-7.0	20.0276	70.0	0.2	Certain	2.5	-16.29	2.83175	Yes	2{-2}2{-2}	-18.7868480725624	1.612	325.216	540.0	TrialHappiness	Mixed
323.605	1.321	n/a	889.05	48.0	2	-7.0	-7.0	20.0276	70.0	0.2	Certain	2.5	-16.29	2.83175	Yes	n/a	-18.7868480725624	n/a	n/a	540.0	TrialHappinessSliderResponse	Mixed
327.62	3.327	4.016	892.774	48.0	2	-7.0	-7.0	20.0276	70.0	0.2	Certain	2.5	-16.29	2.83175	Yes	n/a	-18.7868480725624	n/a	n/a	n/a	ISIRate	Mixed
330.968	3.0	0.021	896.122	49.0	2	-3.18	-3.18	19.6301	70.0	2.22	Certain	-6.35	13.1	0.0	No	4.0	-19.4467120181406	0.561	331.529	n/a	GetAnswer	Loss
331.551	4.0	0.022	896.705	49.0	2	-3.18	-3.18	19.6301	70.0	2.22	Certain	-6.35	13.1	0.0	No	n/a	-19.4467120181406	n/a	n/a	n/a	ShowChoice	Loss
335.567	1.0	0.016	900.721	49.0	2	-3.18	-3.18	19.6301	70.0	2.22	Certain	-6.35	13.1	0.0	No	n/a	-19.4467120181406	n/a	n/a	n/a	ShowResult	Loss
336.583	8.0	0.016	901.737	49.0	2	-3.18	-3.18	19.6301	70.0	2.22	Certain	-6.35	13.1	0.0	No	n/a	-19.4467120181406	n/a	n/a	n/a	ISITrial	Loss
344.614	3.0	0.031	909.768	50.0	2	-1.0	-1.0	19.5051	70.0	1.0	Certain	-0.08	-2.99	3.54725	Yes	4.0	2.9083522297807995	0.608	345.222	n/a	GetAnswer	Mixed
345.247	4.0	0.025	910.401	50.0	2	-1.0	-1.0	19.5051	70.0	1.0	Certain	-0.08	-2.99	3.54725	Yes	n/a	2.9083522297807995	n/a	n/a	n/a	ShowChoice	Mixed
349.262	1.0	0.015	914.416	50.0	2	-1.0	-1.0	19.5051	70.0	1.0	Certain	-0.08	-2.99	3.54725	Yes	n/a	2.9083522297807995	n/a	n/a	n/a	ShowResult	Mixed
350.278	7.537	0.016	915.432	50.0	2	-1.0	-1.0	19.5051	70.0	1.0	Certain	-0.08	-2.99	3.54725	Yes	n/a	2.9083522297807995	n/a	n/a	n/a	ISITrial	Mixed
357.826	3.547	0.011	922.98	50.0	2	-1.0	-1.0	19.5051	70.0	1.0	Certain	-0.08	-2.99	3.54725	Yes	n/a	2.9083522297807995	n/a	n/a	n/a	TrialHappPreview	Mixed
361.391	4.015	0.018	926.545	50.0	2	-1.0	-1.0	19.5051	70.0	1.0	Certain	-0.08	-2.99	3.54725	Yes	2{-2}	2.9083522297807995	0.84	362.231	536.0	TrialHappiness	Mixed
361.392	0.197	n/a	927.189	50.0	2	-1.0	-1.0	19.5051	70.0	1.0	Certain	-0.08	-2.99	3.54725	Yes	n/a	2.9083522297807995	n/a	n/a	536.0	TrialHappinessSliderResponse	Mixed
365.406	6.189	4.015	930.56	50.0	2	-1.0	-1.0	19.5051	70.0	1.0	Certain	-0.08	-2.99	3.54725	Yes	n/a	2.9083522297807995	n/a	n/a	n/a	ISIRate	Mixed
371.621	3.0	0.026	936.775	51.0	2	0.0	0.0	19.5051	70.0	1.68	Certain	1.12	-1.82	0.0	No	4.0	2.93650793650794	0.672	372.293	n/a	GetAnswer	Gain
372.304	4.0	0.011	937.458	51.0	2	0.0	0.0	19.5051	70.0	1.68	Certain	1.12	-1.82	0.0	No	n/a	2.93650793650794	n/a	n/a	n/a	ShowChoice	Gain
376.319	1.0	0.015	941.473	51.0	2	0.0	0.0	19.5051	70.0	1.68	Certain	1.12	-1.82	0.0	No	n/a	2.93650793650794	n/a	n/a	n/a	ShowResult	Gain
377.336	5.508	0.017	942.49	51.0	2	0.0	0.0	19.5051	70.0	1.68	Certain	1.12	-1.82	0.0	No	n/a	2.93650793650794	n/a	n/a	n/a	ISITrial	Gain
382.867	3.0	0.023	948.021	52.0	2	-7.0	-7.0	18.6301	70.0	0.66	Certain	-17.67	3.3	0.0	No	4.0	-20.9727891156463	0.79	383.657	n/a	GetAnswer	Mixed
383.683	4.0	0.026	948.837	52.0	2	-7.0	-7.0	18.6301	70.0	0.66	Certain	-17.67	3.3	0.0	No	n/a	-20.9727891156463	n/a	n/a	n/a	ShowChoice	Mixed
387.699	1.0	0.016	952.853	52.0	2	-7.0	-7.0	18.6301	70.0	0.66	Certain	-17.67	3.3	0.0	No	n/a	-20.9727891156463	n/a	n/a	n/a	ShowResult	Mixed
388.715	5.913	0.016	953.869	52.0	2	-7.0	-7.0	18.6301	70.0	0.66	Certain	-17.67	3.3	0.0	No	n/a	-20.9727891156463	n/a	n/a	n/a	ISITrial	Mixed
394.646	3.0	0.018	959.8	53.0	2	-10.0	-10.0	17.3801	70.0	0.3	Certain	0.7	-20.8	2.99675	Yes	4.0	-21.5011337868481	0.9	395.546	n/a	GetAnswer	Mixed
395.562	4.0	0.016	960.716	53.0	2	-10.0	-10.0	17.3801	70.0	0.3	Certain	0.7	-20.8	2.99675	Yes	n/a	-21.5011337868481	n/a	n/a	n/a	ShowChoice	Mixed
399.578	1.0	0.016	964.732	53.0	2	-10.0	-10.0	17.3801	70.0	0.3	Certain	0.7	-20.8	2.99675	Yes	n/a	-21.5011337868481	n/a	n/a	n/a	ShowResult	Mixed
400.594	3.66	0.016	965.748	53.0	2	-10.0	-10.0	17.3801	70.0	0.3	Certain	0.7	-20.8	2.99675	Yes	n/a	-21.5011337868481	n/a	n/a	n/a	ISITrial	Mixed
404.276	2.997	0.022	969.43	53.0	2	-10.0	-10.0	17.3801	70.0	0.3	Certain	0.7	-20.8	2.99675	Yes	n/a	-21.5011337868481	n/a	n/a	n/a	TrialHappPreview	Mixed
407.292	4.015	0.019	972.446	53.0	2	-10.0	-10.0	17.3801	70.0	0.3	Certain	0.7	-20.8	2.99675	Yes	n/a	-21.5011337868481	n/a	n/a	512.0	TrialHappiness	Mixed
407.292	0.0	n/a	972.446	53.0	2	-10.0	-10.0	17.3801	70.0	0.3	Certain	0.7	-20.8	2.99675	Yes	n/a	-21.5011337868481	n/a	n/a	512.0	TrialHappinessSliderResponse	Mixed
411.307	3.987	4.015	976.461	53.0	2	-10.0	-10.0	17.3801	70.0	0.3	Certain	0.7	-20.8	2.99675	Yes	n/a	-21.5011337868481	n/a	n/a	n/a	ISIRate	Mixed
415.322	3.0	0.028	980.476	54.0	2	0.0	0.0	17.3801	70.0	2.22	Certain	11.1	-10.52	0.0	No	4.0	-21.6213151927438	1.25	416.572	n/a	GetAnswer	Loss
416.589	4.0	0.017	981.743	54.0	2	0.0	0.0	17.3801	70.0	2.22	Certain	11.1	-10.52	0.0	No	n/a	-21.6213151927438	n/a	n/a	n/a	ShowChoice	Loss
420.604	1.0	0.015	985.758	54.0	2	0.0	0.0	17.3801	70.0	2.22	Certain	11.1	-10.52	0.0	No	n/a	-21.6213151927438	n/a	n/a	n/a	ShowResult	Loss
421.62	8.0	0.016	986.774	54.0	2	0.0	0.0	17.3801	70.0	2.22	Certain	11.1	-10.52	0.0	No	n/a	-21.6213151927438	n/a	n/a	n/a	ISITrial	Loss
477.235	0.656	n/a	1044.384	n/a	2	n/a	n/a	n/a	n/a	n/a	n/a	n/a	n/a	n/a	n/a	n/a	n/a	n/a	n/a	548.0	BlockStartHappinessSliderResponse	n/a
-82.221	-0.001	0.031	994.805	n/a	3	n/a	n/a	n/a	n/a	n/a	n/a	n/a	n/a	n/a	n/a	4	n/a	43.551	-38.67	n/a	Rest	n/a
-38.653	4.0	0.016	1038.373	n/a	3	n/a	n/a	n/a	n/a	n/a	n/a	n/a	n/a	n/a	n/a	n/a	n/a	n/a	n/a	n/a	BlockHappyPreview	n/a
-34.638	2.651	0.015	1042.388	n/a	3	n/a	n/a	n/a	n/a	n/a	n/a	n/a	n/a	n/a	n/a	n/a	n/a	n/a	n/a	548.0	BlockStartHappiness	n/a
-1.966	-0.001	0.022	1075.06	n/a	3	n/a	n/a	n/a	n/a	n/a	n/a	n/a	n/a	n/a	n/a	5.0	n/a	1.943	-0.023	n/a	ScanWait	n/a
0.0	10.0	0.023	1077.026	n/a	3	n/a	n/a	n/a	n/a	n/a	n/a	n/a	n/a	n/a	n/a	n/a	n/a	n/a	n/a	n/a	GetReady	n/a
10.03	3.0	0.03	1087.056	55.0	3	6.5	-0.2	18.1926	955.0	1.68	Outcome1	6.5	-0.41	2.53325	Yes	2.0	6.913929784824459	1.029	11.059	n/a	GetAnswer	Gain
11.079	4.0	0.02	1088.105	55.0	3	6.5	-0.2	18.1926	955.0	1.68	Outcome1	6.5	-0.41	2.53325	Yes	n/a	6.913929784824459	n/a	n/a	n/a	ShowChoice	Gain
15.095	1.0	0.016	1092.121	55.0	3	6.5	-0.2	18.1926	955.0	1.68	Outcome1	6.5	-0.41	2.53325	Yes	n/a	6.913929784824459	n/a	n/a	n/a	ShowResult	Gain
16.111	7.709	0.016	1093.137	55.0	3	6.5	-0.2	18.1926	955.0	1.68	Outcome1	6.5	-0.41	2.53325	Yes	n/a	6.913929784824459	n/a	n/a	n/a	ISITrial	Gain
23.842	2.533	0.022	1100.868	55.0	3	6.5	-0.2	18.1926	955.0	1.68	Outcome1	6.5	-0.41	2.53325	Yes	n/a	6.913929784824459	n/a	n/a	n/a	TrialHappPreview	Gain
26.391	4.015	0.016	1103.417	55.0	3	6.5	-0.2	18.1926	955.0	1.68	Outcome1	6.5	-0.41	2.53325	Yes	n/a	6.913929784824459	n/a	n/a	552.0	TrialHappiness	Gain
26.391	0.348	n/a	1103.775	55.0	3	6.5	-0.2	18.1926	955.0	1.68	Outcome1	6.5	-0.41	2.53325	Yes	n/a	6.913929784824459	n/a	n/a	552.0	TrialHappinessSliderResponse	Gain
30.406	2.133	4.015	1107.432	55.0	3	6.5	-0.2	18.1926	955.0	1.68	Outcome1	6.5	-0.41	2.53325	Yes	n/a	6.913929784824459	n/a	n/a	n/a	ISIRate	Gain
32.555	3.0	0.016	1109.581	56.0	3	8.1	0.4	19.2051	955.0	4.2	Outcome2	0.79	8.1	0.0	No	2.0	7.306908267270669	1.172	33.727	n/a	GetAnswer	Gain
33.755	4.0	0.028	1110.781	56.0	3	8.1	0.4	19.2051	955.0	4.2	Outcome2	0.79	8.1	0.0	No	n/a	7.306908267270669	n/a	n/a	n/a	ShowChoice	Gain
37.77	1.0	0.015	1114.796	56.0	3	8.1	0.4	19.2051	955.0	4.2	Outcome2	0.79	8.1	0.0	No	n/a	7.306908267270669	n/a	n/a	n/a	ShowResult	Gain
38.786	4.697	0.016	1115.812	56.0	3	8.1	0.4	19.2051	955.0	4.2	Outcome2	0.79	8.1	0.0	No	n/a	7.306908267270669	n/a	n/a	n/a	ISITrial	Gain
43.501	3.0	0.018	1120.527	57.0	3	10.9	1.57	20.5676	955.0	2.0	Outcome2	3.14	10.9	0.0	No	2.0	7.763306908267269	1.039	44.54	n/a	GetAnswer	Loss
44.568	4.0	0.028	1121.594	57.0	3	10.9	1.57	20.5676	955.0	2.0	Outcome2	3.14	10.9	0.0	No	n/a	7.763306908267269	n/a	n/a	n/a	ShowChoice	Loss
48.583	1.0	0.015	1125.609	57.0	3	10.9	1.57	20.5676	955.0	2.0	Outcome2	3.14	10.9	0.0	No	n/a	7.763306908267269	n/a	n/a	n/a	ShowResult	Loss
49.599	4.291	0.016	1126.625	57.0	3	10.9	1.57	20.5676	955.0	2.0	Outcome2	3.14	10.9	0.0	No	n/a	7.763306908267269	n/a	n/a	n/a	ISITrial	Loss
53.914	3.0	0.024	1130.94	58.0	3	6.9	-0.66	21.4301	955.0	2.0	Outcome2	-1.32	6.9	3.04575	Yes	2.0	8.21970554926387	1.06	54.974	n/a	GetAnswer	Gain
54.997	4.0	0.023	1132.023	58.0	3	6.9	-0.66	21.4301	955.0	2.0	Outcome2	-1.32	6.9	3.04575	Yes	n/a	8.21970554926387	n/a	n/a	n/a	ShowChoice	Gain
59.013	1.0	0.016	1136.039	58.0	3	6.9	-0.66	21.4301	955.0	2.0	Outcome2	-1.32	6.9	3.04575	Yes	n/a	8.21970554926387	n/a	n/a	n/a	ShowResult	Gain
60.029	2.037	0.016	1137.055	58.0	3	6.9	-0.66	21.4301	955.0	2.0	Outcome2	-1.32	6.9	3.04575	Yes	n/a	8.21970554926387	n/a	n/a	n/a	ISITrial	Gain
62.078	3.046	0.012	1139.104	58.0	3	6.9	-0.66	21.4301	955.0	2.0	Outcome2	-1.32	6.9	3.04575	Yes	n/a	8.21970554926387	n/a	n/a	n/a	TrialHappPreview	Gain
65.144	4.015	0.02	1142.17	58.0	3	6.9	-0.66	21.4301	955.0	2.0	Outcome2	-1.32	6.9	3.04575	Yes	n/a	8.21970554926387	n/a	n/a	572.0	TrialHappiness	Gain
65.144	0.657	n/a	1142.485	58.0	3	6.9	-0.66	21.4301	955.0	2.0	Outcome2	-1.32	6.9	3.04575	Yes	n/a	8.21970554926387	n/a	n/a	572.0	TrialHappinessSliderResponse	Gain
69.159	4.183	4.015	1146.185	58.0	3	6.9	-0.66	21.4301	955.0	2.0	Outcome2	-1.32	6.9	3.04575	Yes	n/a	8.21970554926387	n/a	n/a	n/a	ISIRate	Gain
73.374	3.0	0.032	1150.4	59.0	3	7.1	-0.62	22.3176	955.0	2.22	Outcome1	7.1	-1.24	0.0	No	2.0	8.336353340883349	0.858	74.232	n/a	GetAnswer	Gain
74.257	4.0	0.025	1151.283	59.0	3	7.1	-0.62	22.3176	955.0	2.22	Outcome1	7.1	-1.24	0.0	No	n/a	8.336353340883349	n/a	n/a	n/a	ShowChoice	Gain
78.273	1.0	0.016	1155.299	59.0	3	7.1	-0.62	22.3176	955.0	2.22	Outcome1	7.1	-1.24	0.0	No	n/a	8.336353340883349	n/a	n/a	n/a	ShowResult	Gain
79.289	5.064	0.016	1156.315	59.0	3	7.1	-0.62	22.3176	955.0	2.22	Outcome1	7.1	-1.24	0.0	No	n/a	8.336353340883349	n/a	n/a	n/a	ISITrial	Gain
84.37	3.0	0.017	1161.396	60.0	3	-2.0	-2.0	22.0676	955.0	0.4	Certain	-1.1	-2.84	3.5625	Yes	4.0	-1.74292185730464	1.328	85.698	n/a	GetAnswer	Mixed
85.72	4.0	0.022	1162.746	60.0	3	-2.0	-2.0	22.0676	955.0	0.4	Certain	-1.1	-2.84	3.5625	Yes	n/a	-1.74292185730464	n/a	n/a	n/a	ShowChoice	Mixed
89.735	1.0	0.015	1166.761	60.0	3	-2.0	-2.0	22.0676	955.0	0.4	Certain	-1.1	-2.84	3.5625	Yes	n/a	-1.74292185730464	n/a	n/a	n/a	ShowResult	Mixed
90.752	8.0	0.017	1167.778	60.0	3	-2.0	-2.0	22.0676	955.0	0.4	Certain	-1.1	-2.84	3.5625	Yes	n/a	-1.74292185730464	n/a	n/a	n/a	ISITrial	Mixed
98.765	3.562	0.013	1175.791	60.0	3	-2.0	-2.0	22.0676	955.0	0.4	Certain	-1.1	-2.84	3.5625	Yes	n/a	-1.74292185730464	n/a	n/a	n/a	TrialHappPreview	Mixed
102.348	4.015	0.021	1179.374	60.0	3	-2.0	-2.0	22.0676	955.0	0.4	Certain	-1.1	-2.84	3.5625	Yes	n/a	-1.74292185730464	n/a	n/a	572.0	TrialHappiness	Mixed
102.348	1.154	n/a	1179.709	60.0	3	-2.0	-2.0	22.0676	955.0	0.4	Certain	-1.1	-2.84	3.5625	Yes	n/a	-1.74292185730464	n/a	n/a	572.0	TrialHappinessSliderResponse	Mixed
106.363	6.25	4.015	1183.389	60.0	3	-2.0	-2.0	22.0676	955.0	0.4	Certain	-1.1	-2.84	3.5625	Yes	n/a	-1.74292185730464	n/a	n/a	n/a	ISIRate	Mixed
112.644	3.0	0.031	1189.67	61.0	3	-5.0	-5.0	21.4426	955.0	0.52	Certain	-10.1	-0.9	0.0	No	4.0	9.20385050962627	1.909	114.553	n/a	GetAnswer	Mixed
114.577	4.0	0.024	1191.603	61.0	3	-5.0	-5.0	21.4426	955.0	0.52	Certain	-10.1	-0.9	0.0	No	n/a	9.20385050962627	n/a	n/a	n/a	ShowChoice	Mixed
118.592	1.0	0.015	1195.618	61.0	3	-5.0	-5.0	21.4426	955.0	0.52	Certain	-10.1	-0.9	0.0	No	n/a	9.20385050962627	n/a	n/a	n/a	ShowResult	Mixed
119.608	4.586	0.016	1196.634	61.0	3	-5.0	-5.0	21.4426	955.0	0.52	Certain	-10.1	-0.9	0.0	No	n/a	9.20385050962627	n/a	n/a	n/a	ISITrial	Mixed
124.223	3.0	0.029	1201.249	62.0	3	9.9	0.13	22.6801	955.0	3.6	Outcome1	9.9	0.26	3.74875	Yes	2.0	9.63759909399774	1.033	125.256	n/a	GetAnswer	Gain
125.273	4.0	0.017	1202.299	62.0	3	9.9	0.13	22.6801	955.0	3.6	Outcome1	9.9	0.26	3.74875	Yes	n/a	9.63759909399774	n/a	n/a	n/a	ShowChoice	Gain
129.288	1.0	0.015	1206.314	62.0	3	9.9	0.13	22.6801	955.0	3.6	Outcome1	9.9	0.26	3.74875	Yes	n/a	9.63759909399774	n/a	n/a	n/a	ShowResult	Gain
130.304	5.212	0.016	1207.33	62.0	3	9.9	0.13	22.6801	955.0	3.6	Outcome1	9.9	0.26	3.74875	Yes	n/a	9.63759909399774	n/a	n/a	n/a	ISITrial	Gain
135.536	3.749	0.02	1212.562	62.0	3	9.9	0.13	22.6801	955.0	3.6	Outcome1	9.9	0.26	3.74875	Yes	n/a	9.63759909399774	n/a	n/a	n/a	TrialHappPreview	Gain
139.301	4.016	0.016	1216.327	62.0	3	9.9	0.13	22.6801	955.0	3.6	Outcome1	9.9	0.26	3.74875	Yes	n/a	9.63759909399774	n/a	n/a	552.0	TrialHappiness	Gain
139.302	0.304	n/a	1216.572	62.0	3	9.9	0.13	22.6801	955.0	3.6	Outcome1	9.9	0.26	3.74875	Yes	n/a	9.63759909399774	n/a	n/a	552.0	TrialHappinessSliderResponse	Gain
143.317	6.995	4.016	1220.343	62.0	3	9.9	0.13	22.6801	955.0	3.6	Outcome1	9.9	0.26	3.74875	Yes	n/a	9.63759909399774	n/a	n/a	n/a	ISIRate	Gain
150.331	3.0	0.019	1227.357	63.0	3	-2.0	-2.0	22.4301	955.0	0.3	Certain	-3.23	-1.3	0.0	No	4.0	-1.93252170630427	1.337	151.668	n/a	GetAnswer	Mixed
151.68	4.0	0.012	1228.706	63.0	3	-2.0	-2.0	22.4301	955.0	0.3	Certain	-3.23	-1.3	0.0	No	n/a	-1.93252170630427	n/a	n/a	n/a	ShowChoice	Mixed
155.696	1.0	0.016	1232.722	63.0	3	-2.0	-2.0	22.4301	955.0	0.3	Certain	-3.23	-1.3	0.0	No	n/a	-1.93252170630427	n/a	n/a	n/a	ShowResult	Mixed
156.712	5.595	0.016	1233.738	63.0	3	-2.0	-2.0	22.4301	955.0	0.3	Certain	-3.23	-1.3	0.0	No	n/a	-1.93252170630427	n/a	n/a	n/a	ISITrial	Mixed
162.327	3.0	0.02	1239.353	64.0	3	-3.0	-3.0	22.0551	955.0	1.2	Certain	1.9	-8.97	0.0	No	4.0	10.8674971687429	1.566	163.893	n/a	GetAnswer	Mixed
163.909	4.0	0.015	1240.935	64.0	3	-3.0	-3.0	22.0551	955.0	1.2	Certain	1.9	-8.97	0.0	No	n/a	10.8674971687429	n/a	n/a	n/a	ShowChoice	Mixed
167.925	1.0	0.016	1244.951	64.0	3	-3.0	-3.0	22.0551	955.0	1.2	Certain	1.9	-8.97	0.0	No	n/a	10.8674971687429	n/a	n/a	n/a	ShowResult	Mixed
168.941	5.47	0.016	1245.967	64.0	3	-3.0	-3.0	22.0551	955.0	1.2	Certain	1.9	-8.97	0.0	No	n/a	10.8674971687429	n/a	n/a	n/a	ISITrial	Mixed
174.439	3.0	0.028	1251.465	65.0	3	4.1	-1.0	22.5676	955.0	1.5	Outcome2	-7.22	4.1	2.99675	Yes	2.0	11.3238958097395	1.498	175.937	n/a	GetAnswer	Mixed
175.955	4.0	0.018	1252.981	65.0	3	4.1	-1.0	22.5676	955.0	1.5	Outcome2	-7.22	4.1	2.99675	Yes	n/a	11.3238958097395	n/a	n/a	n/a	ShowChoice	Mixed
179.97	1.0	0.015	1256.996	65.0	3	4.1	-1.0	22.5676	955.0	1.5	Outcome2	-7.22	4.1	2.99675	Yes	n/a	11.3238958097395	n/a	n/a	n/a	ShowResult	Mixed
180.987	3.344	0.017	1258.013	65.0	3	4.1	-1.0	22.5676	955.0	1.5	Outcome2	-7.22	4.1	2.99675	Yes	n/a	11.3238958097395	n/a	n/a	n/a	ISITrial	Mixed
184.352	2.997	0.021	1261.378	65.0	3	4.1	-1.0	22.5676	955.0	1.5	Outcome2	-7.22	4.1	2.99675	Yes	n/a	11.3238958097395	n/a	n/a	n/a	TrialHappPreview	Mixed
187.368	4.015	0.019	1264.394	65.0	3	4.1	-1.0	22.5676	955.0	1.5	Outcome2	-7.22	4.1	2.99675	Yes	n/a	11.3238958097395	n/a	n/a	572.0	TrialHappiness	Mixed
187.369	0.587	n/a	1264.722	65.0	3	4.1	-1.0	22.5676	955.0	1.5	Outcome2	-7.22	4.1	2.99675	Yes	n/a	11.3238958097395	n/a	n/a	572.0	TrialHappinessSliderResponse	Mixed
191.383	3.987	4.015	1268.409	65.0	3	4.1	-1.0	22.5676	955.0	1.5	Outcome2	-7.22	4.1	2.99675	Yes	n/a	11.3238958097395	n/a	n/a	n/a	ISIRate	Mixed
195.398	3.0	0.028	1272.424	66.0	3	11.9	0.23	24.0551	955.0	3.6	Outcome1	11.9	0.46	0.0	No	2.0	11.440543601359	0.9	196.298	n/a	GetAnswer	Loss
196.315	4.0	0.017	1273.341	66.0	3	11.9	0.23	24.0551	955.0	3.6	Outcome1	11.9	0.46	0.0	No	n/a	11.440543601359	n/a	n/a	n/a	ShowChoice	Loss
200.33	1.0	0.015	1277.356	66.0	3	11.9	0.23	24.0551	955.0	3.6	Outcome1	11.9	0.46	0.0	No	n/a	11.440543601359	n/a	n/a	n/a	ShowResult	Loss
201.346	3.959	0.016	1278.372	66.0	3	11.9	0.23	24.0551	955.0	3.6	Outcome1	11.9	0.46	0.0	No	n/a	11.440543601359	n/a	n/a	n/a	ISITrial	Loss
205.328	3.0	0.023	1282.354	67.0	3	0.3	1.0	24.0926	955.0	2.0	Outcome1	0.3	2.3	2.9185	Yes	2.0	-2.00160437901095	1.567	206.895	n/a	GetAnswer	Mixed
206.911	4.0	0.016	1283.937	67.0	3	0.3	1.0	24.0926	955.0	2.0	Outcome1	0.3	2.3	2.9185	Yes	n/a	-2.00160437901095	n/a	n/a	n/a	ShowChoice	Mixed
210.926	1.0	0.015	1287.952	67.0	3	0.3	1.0	24.0926	955.0	2.0	Outcome1	0.3	2.3	2.9185	Yes	n/a	-2.00160437901095	n/a	n/a	n/a	ShowResult	Mixed
211.943	4.199	0.017	1288.969	67.0	3	0.3	1.0	24.0926	955.0	2.0	Outcome1	0.3	2.3	2.9185	Yes	n/a	-2.00160437901095	n/a	n/a	n/a	ISITrial	Mixed
216.158	2.918	0.016	1293.184	67.0	3	0.3	1.0	24.0926	955.0	2.0	Outcome1	0.3	2.3	2.9185	Yes	n/a	-2.00160437901095	n/a	n/a	n/a	TrialHappPreview	Mixed
219.107	4.015	0.031	1296.133	67.0	3	0.3	1.0	24.0926	955.0	2.0	Outcome1	0.3	2.3	2.9185	Yes	n/a	-2.00160437901095	n/a	n/a	572.0	TrialHappiness	Mixed
219.107	0.57	n/a	1296.426	67.0	3	0.3	1.0	24.0926	955.0	2.0	Outcome1	0.3	2.3	2.9185	Yes	n/a	-2.00160437901095	n/a	n/a	572.0	TrialHappinessSliderResponse	Mixed
223.122	3.674	4.015	1300.148	67.0	3	0.3	1.0	24.0926	955.0	2.0	Outcome1	0.3	2.3	2.9185	Yes	n/a	-2.00160437901095	n/a	n/a	n/a	ISIRate	Mixed
226.821	3.0	0.025	1303.847	68.0	3	8.9	2.0	25.2051	955.0	2.0	Outcome1	8.9	-3.41	0.0	No	2.0	12.3080407701019	1.302	228.123	n/a	GetAnswer	Gain
228.137	4.0	0.014	1305.163	68.0	3	8.9	2.0	25.2051	955.0	2.0	Outcome1	8.9	-3.41	0.0	No	n/a	12.3080407701019	n/a	n/a	n/a	ShowChoice	Gain
232.152	1.0	0.015	1309.178	68.0	3	8.9	2.0	25.2051	955.0	2.0	Outcome1	8.9	-3.41	0.0	No	n/a	12.3080407701019	n/a	n/a	n/a	ShowResult	Gain
233.169	2.185	0.017	1310.195	68.0	3	8.9	2.0	25.2051	955.0	2.0	Outcome1	8.9	-3.41	0.0	No	n/a	12.3080407701019	n/a	n/a	n/a	ISITrial	Gain
235.384	3.0	0.03	1312.41	69.0	3	-2.0	-2.0	24.9551	955.0	1.0	Certain	3.7	-9.04	0.0	No	4.0	12.7417893544734	1.254	236.638	n/a	GetAnswer	Mixed
236.651	4.0	0.013	1313.677	69.0	3	-2.0	-2.0	24.9551	955.0	1.0	Certain	3.7	-9.04	0.0	No	n/a	12.7417893544734	n/a	n/a	n/a	ShowChoice	Mixed
240.666	1.0	0.015	1317.692	69.0	3	-2.0	-2.0	24.9551	955.0	1.0	Certain	3.7	-9.04	0.0	No	n/a	12.7417893544734	n/a	n/a	n/a	ShowResult	Mixed
241.682	2.0	0.016	1318.708	69.0	3	-2.0	-2.0	24.9551	955.0	1.0	Certain	3.7	-9.04	0.0	No	n/a	12.7417893544734	n/a	n/a	n/a	ISITrial	Mixed
243.698	3.0	0.016	1320.724	70.0	3	0.0	0.0	24.9551	955.0	5.0	Certain	-6.88	6.3	3.65125	Yes	4.0	13.1755379388448	1.767	245.465	n/a	GetAnswer	Gain
245.481	4.0	0.016	1322.507	70.0	3	0.0	0.0	24.9551	955.0	5.0	Certain	-6.88	6.3	3.65125	Yes	n/a	13.1755379388448	n/a	n/a	n/a	ShowChoice	Gain
249.496	1.0	0.015	1326.522	70.0	3	0.0	0.0	24.9551	955.0	5.0	Certain	-6.88	6.3	3.65125	Yes	n/a	13.1755379388448	n/a	n/a	n/a	ShowResult	Gain
250.513	2.623	0.017	1327.539	70.0	3	0.0	0.0	24.9551	955.0	5.0	Certain	-6.88	6.3	3.65125	Yes	n/a	13.1755379388448	n/a	n/a	n/a	ISITrial	Gain
253.162	3.651	0.026	1330.188	70.0	3	0.0	0.0	24.9551	955.0	5.0	Certain	-6.88	6.3	3.65125	Yes	n/a	13.1755379388448	n/a	n/a	n/a	TrialHappPreview	Gain
256.844	4.015	0.031	1333.87	70.0	3	0.0	0.0	24.9551	955.0	5.0	Certain	-6.88	6.3	3.65125	Yes	n/a	13.1755379388448	n/a	n/a	572.0	TrialHappiness	Gain
256.845	0.69	n/a	1334.135	70.0	3	0.0	0.0	24.9551	955.0	5.0	Certain	-6.88	6.3	3.65125	Yes	n/a	13.1755379388448	n/a	n/a	572.0	TrialHappinessSliderResponse	Gain
260.859	6.605	4.015	1337.885	70.0	3	0.0	0.0	24.9551	955.0	5.0	Certain	-6.88	6.3	3.65125	Yes	n/a	13.1755379388448	n/a	n/a	n/a	ISIRate	Gain
267.49	3.0	0.026	1344.516	71.0	3	13.7	0.04	26.6676	955.0	3.16	Outcome1	13.7	0.09	0.0	No	2.0	13.6092865232163	0.697	268.187	n/a	GetAnswer	Loss
268.206	4.0	0.019	1345.232	71.0	3	13.7	0.04	26.6676	955.0	3.16	Outcome1	13.7	0.09	0.0	No	n/a	13.6092865232163	n/a	n/a	n/a	ShowChoice	Loss
272.222	1.0	0.016	1349.248	71.0	3	13.7	0.04	26.6676	955.0	3.16	Outcome1	13.7	0.09	0.0	No	n/a	13.6092865232163	n/a	n/a	n/a	ShowResult	Loss
273.238	5.499	0.016	1350.264	71.0	3	13.7	0.04	26.6676	955.0	3.16	Outcome1	13.7	0.09	0.0	No	n/a	13.6092865232163	n/a	n/a	n/a	ISITrial	Loss
278.769	3.0	0.032	1355.795	72.0	3	13.9	-0.07	28.4051	955.0	3.6	Outcome2	-0.14	13.9	3.0805	Yes	2.0	14.0430351075878	1.211	279.98	n/a	GetAnswer	Loss
280.002	4.0	0.022	1357.028	72.0	3	13.9	-0.07	28.4051	955.0	3.6	Outcome2	-0.14	13.9	3.0805	Yes	n/a	14.0430351075878	n/a	n/a	n/a	ShowChoice	Loss
284.018	1.0	0.016	1361.044	72.0	3	13.9	-0.07	28.4051	955.0	3.6	Outcome2	-0.14	13.9	3.0805	Yes	n/a	14.0430351075878	n/a	n/a	n/a	ShowResult	Loss
285.034	5.672	0.016	1362.06	72.0	3	13.9	-0.07	28.4051	955.0	3.6	Outcome2	-0.14	13.9	3.0805	Yes	n/a	14.0430351075878	n/a	n/a	n/a	ISITrial	Loss
290.732	3.08	0.026	1367.758	72.0	3	13.9	-0.07	28.4051	955.0	3.6	Outcome2	-0.14	13.9	3.0805	Yes	n/a	14.0430351075878	n/a	n/a	n/a	TrialHappPreview	Loss
293.831	4.015	0.019	1370.857	72.0	3	13.9	-0.07	28.4051	955.0	3.6	Outcome2	-0.14	13.9	3.0805	Yes	n/a	14.0430351075878	n/a	n/a	572.0	TrialHappiness	Loss
293.831	0.602	n/a	1371.165	72.0	3	13.9	-0.07	28.4051	955.0	3.6	Outcome2	-0.14	13.9	3.0805	Yes	n/a	14.0430351075878	n/a	n/a	572.0	TrialHappinessSliderResponse	Loss
297.846	4.322	4.015	1374.872	72.0	3	13.9	-0.07	28.4051	955.0	3.6	Outcome2	-0.14	13.9	3.0805	Yes	n/a	14.0430351075878	n/a	n/a	n/a	ISIRate	Loss
302.195	3.0	0.027	1379.221	73.0	3	-8.0	-8.0	27.4051	955.0	0.66	Certain	-0.7	-15.18	0.0	No	4.0	14.4767836919592	1.5	303.695	n/a	GetAnswer	Mixed
303.711	4.0	0.016	1380.737	73.0	3	-8.0	-8.0	27.4051	955.0	0.66	Certain	-0.7	-15.18	0.0	No	n/a	14.4767836919592	n/a	n/a	n/a	ShowChoice	Mixed
307.726	1.0	0.015	1384.752	73.0	3	-8.0	-8.0	27.4051	955.0	0.66	Certain	-0.7	-15.18	0.0	No	n/a	14.4767836919592	n/a	n/a	n/a	ShowResult	Mixed
308.742	4.616	0.016	1385.768	73.0	3	-8.0	-8.0	27.4051	955.0	0.66	Certain	-0.7	-15.18	0.0	No	n/a	14.4767836919592	n/a	n/a	n/a	ISITrial	Mixed
313.374	3.0	0.016	1390.4	74.0	3	-6.0	-6.0	26.6551	955.0	0.52	Certain	1.1	-13.81	3.05625	Yes	4.0	14.9105322763307	1.256	314.63	n/a	GetAnswer	Mixed
314.64	4.0	0.01	1391.666	74.0	3	-6.0	-6.0	26.6551	955.0	0.52	Certain	1.1	-13.81	3.05625	Yes	n/a	14.9105322763307	n/a	n/a	n/a	ShowChoice	Mixed
318.655	1.0	0.015	1395.681	74.0	3	-6.0	-6.0	26.6551	955.0	0.52	Certain	1.1	-13.81	3.05625	Yes	n/a	14.9105322763307	n/a	n/a	n/a	ShowResult	Mixed
319.672	3.909	0.017	1396.698	74.0	3	-6.0	-6.0	26.6551	955.0	0.52	Certain	1.1	-13.81	3.05625	Yes	n/a	14.9105322763307	n/a	n/a	n/a	ISITrial	Mixed
323.604	3.056	0.023	1400.63	74.0	3	-6.0	-6.0	26.6551	955.0	0.52	Certain	1.1	-13.81	3.05625	Yes	n/a	14.9105322763307	n/a	n/a	n/a	TrialHappPreview	Mixed
326.686	4.015	0.026	1403.712	74.0	3	-6.0	-6.0	26.6551	955.0	0.52	Certain	1.1	-13.81	3.05625	Yes	n/a	14.9105322763307	n/a	n/a	552.0	TrialHappiness	Mixed
326.687	0.34	n/a	1404.001	74.0	3	-6.0	-6.0	26.6551	955.0	0.52	Certain	1.1	-13.81	3.05625	Yes	n/a	14.9105322763307	n/a	n/a	552.0	TrialHappinessSliderResponse	Mixed
330.701	4.225	4.015	1407.727	74.0	3	-6.0	-6.0	26.6551	955.0	0.52	Certain	1.1	-13.81	3.05625	Yes	n/a	14.9105322763307	n/a	n/a	n/a	ISIRate	Mixed
334.95	3.0	0.024	1411.976	75.0	3	10.93	5.46	28.0213	955.0	2.48	Outcome1	10.93	13.3	0.0	No	2.0	-2.3719328048320096	1.055	336.005	n/a	GetAnswer	Loss
336.033	4.0	0.028	1413.059	75.0	3	10.93	5.46	28.0213	955.0	2.48	Outcome1	10.93	13.3	0.0	No	n/a	-2.3719328048320096	n/a	n/a	n/a	ShowChoice	Loss
340.048	1.0	0.015	1417.074	75.0	3	10.93	5.46	28.0213	955.0	2.48	Outcome1	10.93	13.3	0.0	No	n/a	-2.3719328048320096	n/a	n/a	n/a	ShowResult	Loss
341.064	4.979	0.016	1418.09	75.0	3	10.93	5.46	28.0213	955.0	2.48	Outcome1	10.93	13.3	0.0	No	n/a	-2.3719328048320096	n/a	n/a	n/a	ISITrial	Loss
346.063	3.0	0.02	1423.089	76.0	3	2.89	1.44	28.3825	955.0	2.48	Outcome1	2.89	5.3	0.0	No	2.0	-2.40996602491506	1.248	347.311	n/a	GetAnswer	Gain
347.329	4.0	0.018	1424.355	76.0	3	2.89	1.44	28.3825	955.0	2.48	Outcome1	2.89	5.3	0.0	No	n/a	-2.40996602491506	n/a	n/a	n/a	ShowChoice	Gain
351.344	1.0	0.015	1428.37	76.0	3	2.89	1.44	28.3825	955.0	2.48	Outcome1	2.89	5.3	0.0	No	n/a	-2.40996602491506	n/a	n/a	n/a	ShowResult	Gain
352.36	3.931	0.016	1429.386	76.0	3	2.89	1.44	28.3825	955.0	2.48	Outcome1	2.89	5.3	0.0	No	n/a	-2.40996602491506	n/a	n/a	n/a	ISITrial	Gain
356.309	3.0	0.018	1433.335	77.0	3	-8.0	-8.0	27.3825	955.0	1.2	Certain	-16.7	-0.1	4.0	Yes	4.0	16.596828992072503	1.086	357.395	n/a	GetAnswer	Mixed
357.409	4.0	0.014	1434.435	77.0	3	-8.0	-8.0	27.3825	955.0	1.2	Certain	-16.7	-0.1	4.0	Yes	n/a	16.596828992072503	n/a	n/a	n/a	ShowChoice	Mixed
361.424	1.0	0.015	1438.45	77.0	3	-8.0	-8.0	27.3825	955.0	1.2	Certain	-16.7	-0.1	4.0	Yes	n/a	16.596828992072503	n/a	n/a	n/a	ShowResult	Mixed
362.44	7.022	0.016	1439.466	77.0	3	-8.0	-8.0	27.3825	955.0	1.2	Certain	-16.7	-0.1	4.0	Yes	n/a	16.596828992072503	n/a	n/a	n/a	ISITrial	Mixed
369.488	4.0	0.026	1446.514	77.0	3	-8.0	-8.0	27.3825	955.0	1.2	Certain	-16.7	-0.1	4.0	Yes	n/a	16.596828992072503	n/a	n/a	n/a	TrialHappPreview	Mixed
373.52	4.015	0.032	1450.546	77.0	3	-8.0	-8.0	27.3825	955.0	1.2	Certain	-16.7	-0.1	4.0	Yes	n/a	16.596828992072503	n/a	n/a	572.0	TrialHappiness	Mixed
373.52	0.572	n/a	1450.888	77.0	3	-8.0	-8.0	27.3825	955.0	1.2	Certain	-16.7	-0.1	4.0	Yes	n/a	16.596828992072503	n/a	n/a	572.0	TrialHappinessSliderResponse	Mixed
377.535	8.0	4.015	1454.561	77.0	3	-8.0	-8.0	27.3825	955.0	1.2	Certain	-16.7	-0.1	4.0	Yes	n/a	16.596828992072503	n/a	n/a	n/a	ISIRate	Mixed
385.565	3.0	0.03	1462.591	78.0	3	9.3	1.0	28.545	955.0	2.48	Outcome1	9.3	-7.41	0.0	No	2.0	16.713476783692	1.244	386.809	n/a	GetAnswer	Gain
386.832	4.0	0.023	1463.858	78.0	3	9.3	1.0	28.545	955.0	2.48	Outcome1	9.3	-7.41	0.0	No	n/a	16.713476783692	n/a	n/a	n/a	ShowChoice	Gain
390.847	1.0	0.015	1467.873	78.0	3	9.3	1.0	28.545	955.0	2.48	Outcome1	9.3	-7.41	0.0	No	n/a	16.713476783692	n/a	n/a	n/a	ShowResult	Gain
391.863	2.078	0.016	1468.889	78.0	3	9.3	1.0	28.545	955.0	2.48	Outcome1	9.3	-7.41	0.0	No	n/a	16.713476783692	n/a	n/a	n/a	ISITrial	Gain
393.962	3.0	0.021	1470.988	79.0	3	11.1	2.0	29.9325	955.0	2.22	Outcome2	-6.05	11.1	2.7295	Yes	2.0	17.1472253680634	1.32	395.282	n/a	GetAnswer	Loss
395.295	4.0	0.013	1472.321	79.0	3	11.1	2.0	29.9325	955.0	2.22	Outcome2	-6.05	11.1	2.7295	Yes	n/a	17.1472253680634	n/a	n/a	n/a	ShowChoice	Loss
399.311	1.0	0.016	1476.337	79.0	3	11.1	2.0	29.9325	955.0	2.22	Outcome2	-6.05	11.1	2.7295	Yes	n/a	17.1472253680634	n/a	n/a	n/a	ShowResult	Loss
400.327	3.829	0.016	1477.353	79.0	3	11.1	2.0	29.9325	955.0	2.22	Outcome2	-6.05	11.1	2.7295	Yes	n/a	17.1472253680634	n/a	n/a	n/a	ISITrial	Loss
404.176	2.73	0.02	1481.202	79.0	3	11.1	2.0	29.9325	955.0	2.22	Outcome2	-6.05	11.1	2.7295	Yes	n/a	17.1472253680634	n/a	n/a	n/a	TrialHappPreview	Loss
406.925	4.015	0.019	1483.951	79.0	3	11.1	2.0	29.9325	955.0	2.22	Outcome2	-6.05	11.1	2.7295	Yes	2{-2}2{-2}2{-2}	17.1472253680634	0.932	407.857	572.0	TrialHappiness	Loss
406.925	0.581	n/a	1484.302	79.0	3	11.1	2.0	29.9325	955.0	2.22	Outcome2	-6.05	11.1	2.7295	Yes	n/a	17.1472253680634	n/a	n/a	572.0	TrialHappinessSliderResponse	Loss
410.94	2.918	4.015	1487.966	79.0	3	11.1	2.0	29.9325	955.0	2.22	Outcome2	-6.05	11.1	2.7295	Yes	n/a	17.1472253680634	n/a	n/a	n/a	ISIRate	Loss
413.889	3.0	0.031	1490.915	80.0	3	-4.0	-4.0	29.4325	955.0	1.82	Certain	4.7	-12.88	0.0	No	4.0	17.5809739524349	1.656	415.545	n/a	GetAnswer	Gain
415.572	4.0	0.026	1492.598	80.0	3	-4.0	-4.0	29.4325	955.0	1.82	Certain	4.7	-12.88	0.0	No	n/a	17.5809739524349	n/a	n/a	n/a	ShowChoice	Gain
419.587	1.0	0.015	1496.613	80.0	3	-4.0	-4.0	29.4325	955.0	1.82	Certain	4.7	-12.88	0.0	No	n/a	17.5809739524349	n/a	n/a	n/a	ShowResult	Gain
420.603	3.336	0.016	1497.629	80.0	3	-4.0	-4.0	29.4325	955.0	1.82	Certain	4.7	-12.88	0.0	No	n/a	17.5809739524349	n/a	n/a	n/a	ISITrial	Gain
423.969	3.0	0.03	1500.995	81.0	3	-4.0	-4.0	28.9325	955.0	2.0	Certain	4.3	-13.71	3.92375	Yes	4.0	18.0147225368063	1.144	425.113	n/a	GetAnswer	Mixed
425.135	4.0	0.022	1502.161	81.0	3	-4.0	-4.0	28.9325	955.0	2.0	Certain	4.3	-13.71	3.92375	Yes	n/a	18.0147225368063	n/a	n/a	n/a	ShowChoice	Mixed
429.15	1.0	0.015	1506.176	81.0	3	-4.0	-4.0	28.9325	955.0	2.0	Certain	4.3	-13.71	3.92375	Yes	n/a	18.0147225368063	n/a	n/a	n/a	ShowResult	Mixed
430.167	3.919	0.017	1507.193	81.0	3	-4.0	-4.0	28.9325	955.0	2.0	Certain	4.3	-13.71	3.92375	Yes	n/a	18.0147225368063	n/a	n/a	n/a	ISITrial	Mixed
434.098	3.924	0.012	1511.124	81.0	3	-4.0	-4.0	28.9325	955.0	2.0	Certain	4.3	-13.71	3.92375	Yes	n/a	18.0147225368063	n/a	n/a	n/a	TrialHappPreview	Mixed
438.047	4.015	0.025	1515.073	81.0	3	-4.0	-4.0	28.9325	955.0	2.0	Certain	4.3	-13.71	3.92375	Yes	n/a	18.0147225368063	n/a	n/a	552.0	TrialHappiness	Mixed
438.048	0.338	n/a	1515.455	81.0	3	-4.0	-4.0	28.9325	955.0	2.0	Certain	4.3	-13.71	3.92375	Yes	n/a	18.0147225368063	n/a	n/a	552.0	TrialHappinessSliderResponse	Mixed
442.062	7.695	4.015	1519.088	81.0	3	-4.0	-4.0	28.9325	955.0	2.0	Certain	4.3	-13.71	3.92375	Yes	n/a	18.0147225368063	n/a	n/a	n/a	ISIRate	Mixed
449.776	3.0	0.019	1526.802	n/a	3	n/a	n/a	n/a	n/a	n/a	n/a	n/a	n/a	n/a	n/a	n/a	n/a	n/a	n/a	n/a	CurrentEarnings	n/a
452.792	-0.001	0.016	1529.818	n/a	3	n/a	n/a	n/a	n/a	n/a	n/a	n/a	n/a	n/a	n/a	{SPACE}	n/a	23.914	476.706	n/a	Goodbye	n/a
