onset	duration	onset_delay	onset_unadjusted	trial_number	block	amount_change	certain_amount	current_amount	mood_target	multiplier	outcome	outcome1_amount	outcome2_amount	question_duration	rating	response	rpe	rt	rt_time	slider_response	trial_phase	trial_type
-28.435	-0.001	0.022	24.364	n/a	0	n/a	n/a	n/a	n/a	n/a	n/a	n/a	n/a	n/a	n/a	{SPACE}	n/a	0.977	-27.458	n/a	Welcome	n/a
-27.432	5.0	0.026	25.367	n/a	0	n/a	n/a	n/a	n/a	n/a	n/a	n/a	n/a	n/a	n/a	n/a	n/a	n/a	n/a	n/a	LifeHappyPreview	n/a
-22.4	3.636	0.032	30.399	n/a	0	n/a	n/a	n/a	n/a	n/a	n/a	n/a	n/a	n/a	n/a	n/a	n/a	n/a	n/a	168.0	LifeHappiness	n/a
-22.4	3.379	n/a	30.656	n/a	0	n/a	n/a	n/a	n/a	n/a	n/a	n/a	n/a	n/a	n/a	n/a	n/a	n/a	n/a	168.0	LifeHappinessSliderResponse	n/a
-12.721	4.0	0.017	40.078	n/a	0	n/a	n/a	n/a	n/a	n/a	n/a	n/a	n/a	n/a	n/a	n/a	n/a	n/a	n/a	n/a	BlockHappyPreview	n/a
-8.709	0.96	0.012	44.09	n/a	0	n/a	n/a	n/a	n/a	n/a	n/a	n/a	n/a	n/a	n/a	n/a	n/a	n/a	n/a	536.0	BlockStartHappiness	n/a
-8.709	0.195	n/a	44.855	n/a	0	n/a	n/a	n/a	n/a	n/a	n/a	n/a	n/a	n/a	n/a	n/a	n/a	n/a	n/a	536.0	BlockStartHappinessSliderResponse	n/a
-1.705	-0.001	0.026	51.094	n/a	0	n/a	n/a	n/a	n/a	n/a	n/a	n/a	n/a	n/a	n/a	5.0	n/a	1.69	-0.015	n/a	ScanWait	n/a
0.0	10.0	0.015	52.799	n/a	1	n/a	n/a	n/a	n/a	n/a	n/a	n/a	n/a	n/a	n/a	n/a	n/a	n/a	n/a	n/a	GetReady	n/a
10.03	3.0	0.03	62.829	1.0	1	-3.0	-3.0	9.625	955.0	1.2	Certain	-0.1	-7.22	0.0	No	4.0	7.117780294450741	0.92	10.95	n/a	GetAnswer	Mixed
10.966	4.0	0.016	63.765	1.0	1	-3.0	-3.0	9.625	955.0	1.2	Certain	-0.1	-7.22	0.0	No	n/a	7.117780294450741	n/a	n/a	n/a	ShowChoice	Mixed
14.995	1.0	0.029	67.794	1.0	1	-3.0	-3.0	9.625	955.0	1.2	Certain	-0.1	-7.22	0.0	No	n/a	7.117780294450741	n/a	n/a	n/a	ShowResult	Mixed
16.015	2.431	0.02	68.814	1.0	1	-3.0	-3.0	9.625	955.0	1.2	Certain	-0.1	-7.22	0.0	No	n/a	7.117780294450741	n/a	n/a	n/a	ISITrial	Mixed
18.472	3.0	0.026	71.271	2.0	1	13.1	2.76	11.2625	955.0	2.22	Outcome2	5.51	13.1	0.0	No	2.0	7.592298980747451	0.802	19.274	n/a	GetAnswer	Loss
19.291	4.0	0.017	72.09	2.0	1	13.1	2.76	11.2625	955.0	2.22	Outcome2	5.51	13.1	0.0	No	n/a	7.592298980747451	n/a	n/a	n/a	ShowChoice	Loss
23.32	1.0	0.029	76.119	2.0	1	13.1	2.76	11.2625	955.0	2.22	Outcome2	5.51	13.1	0.0	No	n/a	7.592298980747451	n/a	n/a	n/a	ShowResult	Loss
24.34	4.568	0.02	77.139	2.0	1	13.1	2.76	11.2625	955.0	2.22	Outcome2	5.51	13.1	0.0	No	n/a	7.592298980747451	n/a	n/a	n/a	ISITrial	Loss
28.937	3.0	0.029	81.736	3.0	1	2.1	-2.0	11.525	955.0	1.5	Outcome1	2.1	-5.97	2.868	Yes	2.0	8.06681766704417	0.956	29.893	n/a	GetAnswer	Mixed
29.923	4.0	0.03	82.722	3.0	1	2.1	-2.0	11.525	955.0	1.5	Outcome1	2.1	-5.97	2.868	Yes	n/a	8.06681766704417	n/a	n/a	n/a	ShowChoice	Mixed
33.952	1.0	0.029	86.751	3.0	1	2.1	-2.0	11.525	955.0	1.5	Outcome1	2.1	-5.97	2.868	Yes	n/a	8.06681766704417	n/a	n/a	n/a	ShowResult	Mixed
34.972	3.243	0.02	87.771	3.0	1	2.1	-2.0	11.525	955.0	1.5	Outcome1	2.1	-5.97	2.868	Yes	n/a	8.06681766704417	n/a	n/a	n/a	ISITrial	Mixed
38.231	2.868	0.016	91.03	3.0	1	2.1	-2.0	11.525	955.0	1.5	Outcome1	2.1	-5.97	2.868	Yes	n/a	8.06681766704417	n/a	n/a	n/a	TrialHappPreview	Mixed
41.123	4.012	0.024	93.922	3.0	1	2.1	-2.0	11.525	955.0	1.5	Outcome1	2.1	-5.97	2.868	Yes	n/a	8.06681766704417	n/a	n/a	576.0	TrialHappiness	Mixed
41.124	1.321	n/a	94.176	3.0	1	2.1	-2.0	11.525	955.0	1.5	Outcome1	2.1	-5.97	2.868	Yes	n/a	8.06681766704417	n/a	n/a	576.0	TrialHappinessSliderResponse	Mixed
45.135	3.472	4.012	97.934	3.0	1	2.1	-2.0	11.525	955.0	1.5	Outcome1	2.1	-5.97	2.868	Yes	n/a	8.06681766704417	n/a	n/a	n/a	ISIRate	Mixed
48.629	3.0	0.022	101.428	4.0	1	9.04	4.52	12.655	955.0	1.82	Outcome2	10.7	9.04	0.0	No	2.0	-1.65666289165723	1.025	49.654	n/a	GetAnswer	Loss
49.682	4.0	0.028	102.481	4.0	1	9.04	4.52	12.655	955.0	1.82	Outcome2	10.7	9.04	0.0	No	n/a	-1.65666289165723	n/a	n/a	n/a	ShowChoice	Loss
53.711	1.0	0.029	106.51	4.0	1	9.04	4.52	12.655	955.0	1.82	Outcome2	10.7	9.04	0.0	No	n/a	-1.65666289165723	n/a	n/a	n/a	ShowResult	Loss
54.731	2.011	0.02	107.53	4.0	1	9.04	4.52	12.655	955.0	1.82	Outcome2	10.7	9.04	0.0	No	n/a	-1.65666289165723	n/a	n/a	n/a	ISITrial	Loss
56.77	3.0	0.028	109.569	5.0	1	2.61	1.3	12.9813	955.0	2.0	Outcome1	2.61	4.3	2.5825	Yes	2.0	-1.69243110607777	1.183	57.953	n/a	GetAnswer	Mixed
57.974	4.0	0.021	110.773	5.0	1	2.61	1.3	12.9813	955.0	2.0	Outcome1	2.61	4.3	2.5825	Yes	n/a	-1.69243110607777	n/a	n/a	n/a	ShowChoice	Mixed
62.002	1.0	0.028	114.801	5.0	1	2.61	1.3	12.9813	955.0	2.0	Outcome1	2.61	4.3	2.5825	Yes	n/a	-1.69243110607777	n/a	n/a	n/a	ShowResult	Mixed
63.022	5.129	0.02	115.821	5.0	1	2.61	1.3	12.9813	955.0	2.0	Outcome1	2.61	4.3	2.5825	Yes	n/a	-1.69243110607777	n/a	n/a	n/a	ISITrial	Mixed
68.171	2.582	0.02	120.97	5.0	1	2.61	1.3	12.9813	955.0	2.0	Outcome1	2.61	4.3	2.5825	Yes	n/a	-1.69243110607777	n/a	n/a	n/a	TrialHappPreview	Mixed
70.779	4.028	0.026	123.578	5.0	1	2.61	1.3	12.9813	955.0	2.0	Outcome1	2.61	4.3	2.5825	Yes	n/a	-1.69243110607777	n/a	n/a	588.0	TrialHappiness	Mixed
70.779	3.317	n/a	123.918	5.0	1	2.61	1.3	12.9813	955.0	2.0	Outcome1	2.61	4.3	2.5825	Yes	n/a	-1.69243110607777	n/a	n/a	588.0	TrialHappinessSliderResponse	Mixed
74.807	2.33	4.028	127.606	5.0	1	2.61	1.3	12.9813	955.0	2.0	Outcome1	2.61	4.3	2.5825	Yes	n/a	-1.69243110607777	n/a	n/a	n/a	ISIRate	Mixed
77.165	3.0	0.028	129.964	6.0	1	0.7	-3.0	13.0688	955.0	0.3	Outcome1	0.7	-7.82	0.0	No	2.0	8.51642129105323	1.115	78.28	n/a	GetAnswer	Mixed
78.301	4.0	0.021	131.1	6.0	1	0.7	-3.0	13.0688	955.0	0.3	Outcome1	0.7	-7.82	0.0	No	n/a	8.51642129105323	n/a	n/a	n/a	ShowChoice	Mixed
82.313	1.0	0.012	135.112	6.0	1	0.7	-3.0	13.0688	955.0	0.3	Outcome1	0.7	-7.82	0.0	No	n/a	8.51642129105323	n/a	n/a	n/a	ShowResult	Mixed
83.333	6.232	0.02	136.132	6.0	1	0.7	-3.0	13.0688	955.0	0.3	Outcome1	0.7	-7.82	0.0	No	n/a	8.51642129105323	n/a	n/a	n/a	ISITrial	Mixed
89.585	3.0	0.02	142.384	7.0	1	0.0	0.0	13.0688	955.0	0.82	Certain	-0.21	1.5	0.0	No	4.0	-1.7141374103435305	1.266	90.851	n/a	GetAnswer	Mixed
90.872	4.0	0.02	143.671	7.0	1	0.0	0.0	13.0688	955.0	0.82	Certain	-0.21	1.5	0.0	No	n/a	-1.7141374103435305	n/a	n/a	n/a	ShowChoice	Mixed
94.884	1.0	0.012	147.683	7.0	1	0.0	0.0	13.0688	955.0	0.82	Certain	-0.21	1.5	0.0	No	n/a	-1.7141374103435305	n/a	n/a	n/a	ShowResult	Mixed
95.904	2.305	0.02	148.703	7.0	1	0.0	0.0	13.0688	955.0	0.82	Certain	-0.21	1.5	0.0	No	n/a	-1.7141374103435305	n/a	n/a	n/a	ISITrial	Mixed
98.228	3.0	0.019	151.027	8.0	1	13.9	2.28	14.8063	955.0	3.6	Outcome1	13.9	4.55	3.1125	Yes	2.0	9.34767836919592	0.9	99.128	n/a	GetAnswer	Loss
99.147	4.0	0.019	151.946	8.0	1	13.9	2.28	14.8063	955.0	3.6	Outcome1	13.9	4.55	3.1125	Yes	n/a	9.34767836919592	n/a	n/a	n/a	ShowChoice	Loss
103.176	1.0	0.029	155.975	8.0	1	13.9	2.28	14.8063	955.0	3.6	Outcome1	13.9	4.55	3.1125	Yes	n/a	9.34767836919592	n/a	n/a	n/a	ShowResult	Loss
104.195	3.506	0.019	156.994	8.0	1	13.9	2.28	14.8063	955.0	3.6	Outcome1	13.9	4.55	3.1125	Yes	n/a	9.34767836919592	n/a	n/a	n/a	ISITrial	Loss
107.723	3.112	0.022	160.522	8.0	1	13.9	2.28	14.8063	955.0	3.6	Outcome1	13.9	4.55	3.1125	Yes	n/a	9.34767836919592	n/a	n/a	n/a	TrialHappPreview	Loss
110.865	4.029	0.03	163.664	8.0	1	13.9	2.28	14.8063	955.0	3.6	Outcome1	13.9	4.55	3.1125	Yes	n/a	9.34767836919592	n/a	n/a	588.0	TrialHappiness	Loss
110.866	1.04	n/a	164.07	8.0	1	13.9	2.28	14.8063	955.0	3.6	Outcome1	13.9	4.55	3.1125	Yes	n/a	9.34767836919592	n/a	n/a	588.0	TrialHappinessSliderResponse	Loss
114.894	4.45	4.029	167.693	8.0	1	13.9	2.28	14.8063	955.0	3.6	Outcome1	13.9	4.55	3.1125	Yes	n/a	9.34767836919592	n/a	n/a	n/a	ISIRate	Loss
119.374	3.0	0.03	172.173	9.0	1	12.3	1.27	16.3438	955.0	5.0	Outcome2	2.54	12.3	0.0	No	2.0	9.76330690826727	0.738	120.112	n/a	GetAnswer	Loss
120.126	4.0	0.014	172.925	9.0	1	12.3	1.27	16.3438	955.0	5.0	Outcome2	2.54	12.3	0.0	No	n/a	9.76330690826727	n/a	n/a	n/a	ShowChoice	Loss
124.155	1.0	0.029	176.954	9.0	1	12.3	1.27	16.3438	955.0	5.0	Outcome2	2.54	12.3	0.0	No	n/a	9.76330690826727	n/a	n/a	n/a	ShowResult	Loss
125.175	2.0	0.02	177.974	9.0	1	12.3	1.27	16.3438	955.0	5.0	Outcome2	2.54	12.3	0.0	No	n/a	9.76330690826727	n/a	n/a	n/a	ISITrial	Loss
127.198	3.0	0.023	179.997	10.0	1	-1.5	-6.0	16.1563	955.0	0.2	Outcome2	-11.68	-1.5	4.0	Yes	2.0	10.1789354473386	1.381	128.579	n/a	GetAnswer	Mixed
128.602	4.0	0.023	181.401	10.0	1	-1.5	-6.0	16.1563	955.0	0.2	Outcome2	-11.68	-1.5	4.0	Yes	n/a	10.1789354473386	n/a	n/a	n/a	ShowChoice	Mixed
132.614	1.0	0.012	185.413	10.0	1	-1.5	-6.0	16.1563	955.0	0.2	Outcome2	-11.68	-1.5	4.0	Yes	n/a	10.1789354473386	n/a	n/a	n/a	ShowResult	Mixed
133.634	2.0	0.02	186.433	10.0	1	-1.5	-6.0	16.1563	955.0	0.2	Outcome2	-11.68	-1.5	4.0	Yes	n/a	10.1789354473386	n/a	n/a	n/a	ISITrial	Mixed
135.656	4.0	0.022	188.455	10.0	1	-1.5	-6.0	16.1563	955.0	0.2	Outcome2	-11.68	-1.5	4.0	Yes	n/a	10.1789354473386	n/a	n/a	n/a	TrialHappPreview	Mixed
139.685	4.029	0.029	192.484	10.0	1	-1.5	-6.0	16.1563	955.0	0.2	Outcome2	-11.68	-1.5	4.0	Yes	n/a	10.1789354473386	n/a	n/a	608.0	TrialHappiness	Mixed
139.686	2.771	n/a	192.805	10.0	1	-1.5	-6.0	16.1563	955.0	0.2	Outcome2	-11.68	-1.5	4.0	Yes	n/a	10.1789354473386	n/a	n/a	608.0	TrialHappinessSliderResponse	Mixed
143.714	8.0	4.029	196.513	10.0	1	-1.5	-6.0	16.1563	955.0	0.2	Outcome2	-11.68	-1.5	4.0	Yes	n/a	10.1789354473386	n/a	n/a	n/a	ISIRate	Mixed
151.738	3.0	0.024	204.537	11.0	1	0.0	0.0	16.1563	955.0	2.22	Certain	5.1	-5.15	0.0	No	4.0	10.254813137032802	1.35	153.088	n/a	GetAnswer	Gain
153.109	4.0	0.021	205.908	11.0	1	0.0	0.0	16.1563	955.0	2.22	Certain	5.1	-5.15	0.0	No	n/a	10.254813137032802	n/a	n/a	n/a	ShowChoice	Gain
157.137	1.0	0.028	209.936	11.0	1	0.0	0.0	16.1563	955.0	2.22	Certain	5.1	-5.15	0.0	No	n/a	10.254813137032802	n/a	n/a	n/a	ShowResult	Gain
158.157	3.324	0.02	210.956	11.0	1	0.0	0.0	16.1563	955.0	2.22	Certain	5.1	-5.15	0.0	No	n/a	10.254813137032802	n/a	n/a	n/a	ISITrial	Gain
161.5	3.0	0.019	214.299	12.0	1	9.9	4.95	17.3938	955.0	3.16	Outcome2	11.7	9.9	2.61875	Yes	2.0	-1.8042657606644	0.925	162.425	n/a	GetAnswer	Loss
162.453	4.0	0.028	215.252	12.0	1	9.9	4.95	17.3938	955.0	3.16	Outcome2	11.7	9.9	2.61875	Yes	n/a	-1.8042657606644	n/a	n/a	n/a	ShowChoice	Loss
166.465	1.0	0.012	219.264	12.0	1	9.9	4.95	17.3938	955.0	3.16	Outcome2	11.7	9.9	2.61875	Yes	n/a	-1.8042657606644	n/a	n/a	n/a	ShowResult	Loss
167.485	6.642	0.02	220.284	12.0	1	9.9	4.95	17.3938	955.0	3.16	Outcome2	11.7	9.9	2.61875	Yes	n/a	-1.8042657606644	n/a	n/a	n/a	ISITrial	Loss
174.155	2.619	0.028	226.954	12.0	1	9.9	4.95	17.3938	955.0	3.16	Outcome2	11.7	9.9	2.61875	Yes	n/a	-1.8042657606644	n/a	n/a	n/a	TrialHappPreview	Loss
176.796	4.029	0.022	229.595	12.0	1	9.9	4.95	17.3938	955.0	3.16	Outcome2	11.7	9.9	2.61875	Yes	n/a	-1.8042657606644	n/a	n/a	656.0	TrialHappiness	Loss
176.797	2.16	n/a	229.855	12.0	1	9.9	4.95	17.3938	955.0	3.16	Outcome2	11.7	9.9	2.61875	Yes	n/a	-1.8042657606644	n/a	n/a	656.0	TrialHappinessSliderResponse	Loss
180.825	2.475	4.029	233.624	12.0	1	9.9	4.95	17.3938	955.0	3.16	Outcome2	11.7	9.9	2.61875	Yes	n/a	-1.8042657606644	n/a	n/a	n/a	ISIRate	Loss
183.332	3.0	0.032	236.131	13.0	1	-5.0	-5.0	16.7688	955.0	1.0	Certain	-10.53	-0.3	0.0	No	4.0	10.225368063420198	1.43	184.762	n/a	GetAnswer	Mixed
184.787	4.0	0.025	237.586	13.0	1	-5.0	-5.0	16.7688	955.0	1.0	Certain	-10.53	-0.3	0.0	No	n/a	10.225368063420198	n/a	n/a	n/a	ShowChoice	Mixed
188.815	1.0	0.028	241.614	13.0	1	-5.0	-5.0	16.7688	955.0	1.0	Certain	-10.53	-0.3	0.0	No	n/a	10.225368063420198	n/a	n/a	n/a	ShowResult	Mixed
189.835	3.48	0.02	242.634	13.0	1	-5.0	-5.0	16.7688	955.0	1.0	Certain	-10.53	-0.3	0.0	No	n/a	10.225368063420198	n/a	n/a	n/a	ISITrial	Mixed
193.346	3.0	0.031	246.145	14.0	1	6.23	3.12	17.5476	955.0	3.6	Outcome1	6.23	7.9	0.0	No	2.0	-1.67044167610419	0.912	194.258	n/a	GetAnswer	Gain
194.282	4.0	0.024	247.081	14.0	1	6.23	3.12	17.5476	955.0	3.6	Outcome1	6.23	7.9	0.0	No	n/a	-1.67044167610419	n/a	n/a	n/a	ShowChoice	Gain
198.31	1.0	0.028	251.109	14.0	1	6.23	3.12	17.5476	955.0	3.6	Outcome1	6.23	7.9	0.0	No	n/a	-1.67044167610419	n/a	n/a	n/a	ShowResult	Gain
199.33	5.019	0.02	252.129	14.0	1	6.23	3.12	17.5476	955.0	3.6	Outcome1	6.23	7.9	0.0	No	n/a	-1.67044167610419	n/a	n/a	n/a	ISITrial	Gain
204.379	3.0	0.03	257.178	15.0	1	4.1	-1.0	18.0601	955.0	1.5	Outcome1	4.1	-6.8	3.3485	Yes	2.0	10.9026047565119	0.889	205.268	n/a	GetAnswer	Mixed
205.298	4.0	0.03	258.097	15.0	1	4.1	-1.0	18.0601	955.0	1.5	Outcome1	4.1	-6.8	3.3485	Yes	n/a	10.9026047565119	n/a	n/a	n/a	ShowChoice	Mixed
209.327	1.0	0.029	262.126	15.0	1	4.1	-1.0	18.0601	955.0	1.5	Outcome1	4.1	-6.8	3.3485	Yes	n/a	10.9026047565119	n/a	n/a	n/a	ShowResult	Mixed
210.347	7.614	0.02	263.146	15.0	1	4.1	-1.0	18.0601	955.0	1.5	Outcome1	4.1	-6.8	3.3485	Yes	n/a	10.9026047565119	n/a	n/a	n/a	ISITrial	Mixed
217.986	3.348	0.025	270.785	15.0	1	4.1	-1.0	18.0601	955.0	1.5	Outcome1	4.1	-6.8	3.3485	Yes	n/a	10.9026047565119	n/a	n/a	n/a	TrialHappPreview	Mixed
221.363	4.012	0.029	274.162	15.0	1	4.1	-1.0	18.0601	955.0	1.5	Outcome1	4.1	-6.8	3.3485	Yes	n/a	10.9026047565119	n/a	n/a	640.0	TrialHappiness	Mixed
221.363	1.59	n/a	274.517	15.0	1	4.1	-1.0	18.0601	955.0	1.5	Outcome1	4.1	-6.8	3.3485	Yes	n/a	10.9026047565119	n/a	n/a	640.0	TrialHappinessSliderResponse	Mixed
225.375	5.394	4.012	278.174	15.0	1	4.1	-1.0	18.0601	955.0	1.5	Outcome1	4.1	-6.8	3.3485	Yes	n/a	10.9026047565119	n/a	n/a	n/a	ISIRate	Mixed
230.791	3.0	0.022	283.59	16.0	1	1.31	2.0	18.2239	955.0	0.52	Outcome1	1.31	3.1	0.0	No	2.0	-1.79180822952057	1.019	231.81	n/a	GetAnswer	Mixed
231.827	4.0	0.017	284.626	16.0	1	1.31	2.0	18.2239	955.0	0.52	Outcome1	1.31	3.1	0.0	No	n/a	-1.79180822952057	n/a	n/a	n/a	ShowChoice	Mixed
235.839	1.0	0.012	288.638	16.0	1	1.31	2.0	18.2239	955.0	0.52	Outcome1	1.31	3.1	0.0	No	n/a	-1.79180822952057	n/a	n/a	n/a	ShowResult	Mixed
236.859	3.008	0.02	289.658	16.0	1	1.31	2.0	18.2239	955.0	0.52	Outcome1	1.31	3.1	0.0	No	n/a	-1.79180822952057	n/a	n/a	n/a	ISITrial	Mixed
239.885	3.0	0.018	292.684	17.0	1	-3.0	-3.0	17.8489	955.0	0.4	Certain	-8.97	2.9	3.0415	Yes	4.0	11.8697621744054	1.379	241.264	n/a	GetAnswer	Mixed
241.289	4.0	0.025	294.088	17.0	1	-3.0	-3.0	17.8489	955.0	0.4	Certain	-8.97	2.9	3.0415	Yes	n/a	11.8697621744054	n/a	n/a	n/a	ShowChoice	Mixed
245.301	1.0	0.012	298.1	17.0	1	-3.0	-3.0	17.8489	955.0	0.4	Certain	-8.97	2.9	3.0415	Yes	n/a	11.8697621744054	n/a	n/a	n/a	ShowResult	Mixed
246.321	3.566	0.02	299.12	17.0	1	-3.0	-3.0	17.8489	955.0	0.4	Certain	-8.97	2.9	3.0415	Yes	n/a	11.8697621744054	n/a	n/a	n/a	ISITrial	Mixed
249.915	3.042	0.028	302.714	17.0	1	-3.0	-3.0	17.8489	955.0	0.4	Certain	-8.97	2.9	3.0415	Yes	n/a	11.8697621744054	n/a	n/a	n/a	TrialHappPreview	Mixed
252.974	4.012	0.017	305.773	17.0	1	-3.0	-3.0	17.8489	955.0	0.4	Certain	-8.97	2.9	3.0415	Yes	n/a	11.8697621744054	n/a	n/a	612.0	TrialHappiness	Mixed
252.975	0.642	n/a	306.042	17.0	1	-3.0	-3.0	17.8489	955.0	0.4	Certain	-8.97	2.9	3.0415	Yes	n/a	11.8697621744054	n/a	n/a	612.0	TrialHappinessSliderResponse	Mixed
256.986	4.166	4.012	309.785	17.0	1	-3.0	-3.0	17.8489	955.0	0.4	Certain	-8.97	2.9	3.0415	Yes	n/a	11.8697621744054	n/a	n/a	n/a	ISIRate	Mixed
261.182	3.0	0.03	313.981	18.0	1	-4.0	-4.0	17.3489	955.0	0.2	Certain	2.5	-10.2	0.0	No	4.0	12.7021517553794	1.376	262.558	n/a	GetAnswer	Mixed
262.569	4.0	0.011	315.368	18.0	1	-4.0	-4.0	17.3489	955.0	0.2	Certain	2.5	-10.2	0.0	No	n/a	12.7021517553794	n/a	n/a	n/a	ShowChoice	Mixed
266.582	1.0	0.013	319.381	18.0	1	-4.0	-4.0	17.3489	955.0	0.2	Certain	2.5	-10.2	0.0	No	n/a	12.7021517553794	n/a	n/a	n/a	ShowResult	Mixed
267.601	6.787	0.019	320.4	18.0	1	-4.0	-4.0	17.3489	955.0	0.2	Certain	2.5	-10.2	0.0	No	n/a	12.7021517553794	n/a	n/a	n/a	ISITrial	Mixed
274.405	3.0	0.017	327.204	19.0	1	-3.0	-3.0	16.9739	955.0	0.66	Certain	-9.79	3.3	0.0	No	4.0	13.0906002265006	1.207	275.612	n/a	GetAnswer	Mixed
275.625	4.0	0.013	328.424	19.0	1	-3.0	-3.0	16.9739	955.0	0.66	Certain	-9.79	3.3	0.0	No	n/a	13.0906002265006	n/a	n/a	n/a	ShowChoice	Mixed
279.637	1.0	0.012	332.436	19.0	1	-3.0	-3.0	16.9739	955.0	0.66	Certain	-9.79	3.3	0.0	No	n/a	13.0906002265006	n/a	n/a	n/a	ShowResult	Mixed
280.657	2.0	0.02	333.456	19.0	1	-3.0	-3.0	16.9739	955.0	0.66	Certain	-9.79	3.3	0.0	No	n/a	13.0906002265006	n/a	n/a	n/a	ISITrial	Mixed
282.68	3.0	0.023	335.479	20.0	1	13.3	-0.09	18.6364	955.0	2.48	Outcome1	13.3	-0.18	2.92125	Yes	2.0	13.479048697621698	1.104	283.784	n/a	GetAnswer	Loss
283.8	4.0	0.016	336.599	20.0	1	13.3	-0.09	18.6364	955.0	2.48	Outcome1	13.3	-0.18	2.92125	Yes	n/a	13.479048697621698	n/a	n/a	n/a	ShowChoice	Loss
287.812	1.0	0.012	340.611	20.0	1	13.3	-0.09	18.6364	955.0	2.48	Outcome1	13.3	-0.18	2.92125	Yes	n/a	13.479048697621698	n/a	n/a	n/a	ShowResult	Loss
288.831	8.0	0.019	341.63	20.0	1	13.3	-0.09	18.6364	955.0	2.48	Outcome1	13.3	-0.18	2.92125	Yes	n/a	13.479048697621698	n/a	n/a	n/a	ISITrial	Loss
296.855	2.921	0.024	349.654	20.0	1	13.3	-0.09	18.6364	955.0	2.48	Outcome1	13.3	-0.18	2.92125	Yes	n/a	13.479048697621698	n/a	n/a	n/a	TrialHappPreview	Loss
299.798	4.012	0.022	352.597	20.0	1	13.3	-0.09	18.6364	955.0	2.48	Outcome1	13.3	-0.18	2.92125	Yes	n/a	13.479048697621698	n/a	n/a	688.0	TrialHappiness	Loss
299.798	3.402	n/a	352.852	20.0	1	13.3	-0.09	18.6364	955.0	2.48	Outcome1	13.3	-0.18	2.92125	Yes	n/a	13.479048697621698	n/a	n/a	688.0	TrialHappinessSliderResponse	Loss
303.81	3.685	4.012	356.609	20.0	1	13.3	-0.09	18.6364	955.0	2.48	Outcome1	13.3	-0.18	2.92125	Yes	n/a	13.479048697621698	n/a	n/a	n/a	ISIRate	Loss
307.521	3.0	0.026	360.32	21.0	1	-7.0	-7.0	17.7614	955.0	0.52	Certain	-0.9	-13.48	0.0	No	4.0	12.5764439411099	1.038	308.559	n/a	GetAnswer	Mixed
308.574	4.0	0.015	361.373	21.0	1	-7.0	-7.0	17.7614	955.0	0.52	Certain	-0.9	-13.48	0.0	No	n/a	12.5764439411099	n/a	n/a	n/a	ShowChoice	Mixed
312.586	1.0	0.012	365.385	21.0	1	-7.0	-7.0	17.7614	955.0	0.52	Certain	-0.9	-13.48	0.0	No	n/a	12.5764439411099	n/a	n/a	n/a	ShowResult	Mixed
313.606	3.555	0.02	366.405	21.0	1	-7.0	-7.0	17.7614	955.0	0.52	Certain	-0.9	-13.48	0.0	No	n/a	12.5764439411099	n/a	n/a	n/a	ISITrial	Mixed
317.183	3.0	0.022	369.982	22.0	1	10.5	-1.19	19.0739	955.0	1.68	Outcome1	10.5	-2.38	3.2195	Yes	2.0	12.8788221970555	0.759	317.942	n/a	GetAnswer	Loss
317.969	4.0	0.027	370.768	22.0	1	10.5	-1.19	19.0739	955.0	1.68	Outcome1	10.5	-2.38	3.2195	Yes	n/a	12.8788221970555	n/a	n/a	n/a	ShowChoice	Loss
321.997	1.0	0.028	374.796	22.0	1	10.5	-1.19	19.0739	955.0	1.68	Outcome1	10.5	-2.38	3.2195	Yes	n/a	12.8788221970555	n/a	n/a	n/a	ShowResult	Loss
323.017	6.793	0.02	375.816	22.0	1	10.5	-1.19	19.0739	955.0	1.68	Outcome1	10.5	-2.38	3.2195	Yes	n/a	12.8788221970555	n/a	n/a	n/a	ISITrial	Loss
329.821	3.22	0.011	382.62	22.0	1	10.5	-1.19	19.0739	955.0	1.68	Outcome1	10.5	-2.38	3.2195	Yes	n/a	12.8788221970555	n/a	n/a	n/a	TrialHappPreview	Loss
333.064	4.012	0.023	385.863	22.0	1	10.5	-1.19	19.0739	955.0	1.68	Outcome1	10.5	-2.38	3.2195	Yes	n/a	12.8788221970555	n/a	n/a	584.0	TrialHappiness	Loss
333.064	0.298	n/a	386.658	22.0	1	10.5	-1.19	19.0739	955.0	1.68	Outcome1	10.5	-2.38	3.2195	Yes	n/a	12.8788221970555	n/a	n/a	584.0	TrialHappinessSliderResponse	Loss
337.076	4.878	4.012	389.875	22.0	1	10.5	-1.19	19.0739	955.0	1.68	Outcome1	10.5	-2.38	3.2195	Yes	n/a	12.8788221970555	n/a	n/a	n/a	ISIRate	Loss
341.974	3.0	0.02	394.773	23.0	1	6.1	-1.0	19.8364	955.0	4.2	Outcome2	-8.85	6.1	0.0	No	2.0	14.9479048697622	1.089	343.063	n/a	GetAnswer	Gain
343.077	4.0	0.014	395.876	23.0	1	6.1	-1.0	19.8364	955.0	4.2	Outcome2	-8.85	6.1	0.0	No	n/a	14.9479048697622	n/a	n/a	n/a	ShowChoice	Gain
347.089	1.0	0.012	399.888	23.0	1	6.1	-1.0	19.8364	955.0	4.2	Outcome2	-8.85	6.1	0.0	No	n/a	14.9479048697622	n/a	n/a	n/a	ShowResult	Gain
348.109	8.0	0.02	400.908	23.0	1	6.1	-1.0	19.8364	955.0	4.2	Outcome2	-8.85	6.1	0.0	No	n/a	14.9479048697622	n/a	n/a	n/a	ISITrial	Gain
356.133	3.0	0.024	408.932	24.0	1	4.44	2.22	20.3914	955.0	1.82	Outcome2	6.7	4.44	3.255	Yes	2.0	-2.2610419026047595	1.083	357.216	n/a	GetAnswer	Gain
357.236	4.0	0.02	410.035	24.0	1	4.44	2.22	20.3914	955.0	1.82	Outcome2	6.7	4.44	3.255	Yes	n/a	-2.2610419026047595	n/a	n/a	n/a	ShowChoice	Gain
361.248	1.0	0.012	414.047	24.0	1	4.44	2.22	20.3914	955.0	1.82	Outcome2	6.7	4.44	3.255	Yes	n/a	-2.2610419026047595	n/a	n/a	n/a	ShowResult	Gain
362.268	2.0	0.02	415.067	24.0	1	4.44	2.22	20.3914	955.0	1.82	Outcome2	6.7	4.44	3.255	Yes	n/a	-2.2610419026047595	n/a	n/a	n/a	ISITrial	Gain
364.291	3.255	0.023	417.09	24.0	1	4.44	2.22	20.3914	955.0	1.82	Outcome2	6.7	4.44	3.255	Yes	n/a	-2.2610419026047595	n/a	n/a	n/a	TrialHappPreview	Gain
367.567	4.012	0.021	420.366	24.0	1	4.44	2.22	20.3914	955.0	1.82	Outcome2	6.7	4.44	3.255	Yes	n/a	-2.2610419026047595	n/a	n/a	668.0	TrialHappiness	Gain
367.568	2.733	n/a	420.708	24.0	1	4.44	2.22	20.3914	955.0	1.82	Outcome2	6.7	4.44	3.255	Yes	n/a	-2.2610419026047595	n/a	n/a	668.0	TrialHappinessSliderResponse	Gain
371.579	5.02	4.012	424.378	24.0	1	4.44	2.22	20.3914	955.0	1.82	Outcome2	6.7	4.44	3.255	Yes	n/a	-2.2610419026047595	n/a	n/a	n/a	ISIRate	Gain
376.628	3.0	0.029	429.427	25.0	1	0.0	0.0	20.3914	955.0	3.16	Certain	7.7	-6.66	0.0	No	4.0	14.361268403171	1.067	377.695	n/a	GetAnswer	Gain
377.714	4.0	0.019	430.513	25.0	1	0.0	0.0	20.3914	955.0	3.16	Certain	7.7	-6.66	0.0	No	n/a	14.361268403171	n/a	n/a	n/a	ShowChoice	Gain
381.726	1.0	0.012	434.525	25.0	1	0.0	0.0	20.3914	955.0	3.16	Certain	7.7	-6.66	0.0	No	n/a	14.361268403171	n/a	n/a	n/a	ShowResult	Gain
382.746	3.749	0.02	435.545	25.0	1	0.0	0.0	20.3914	955.0	3.16	Certain	7.7	-6.66	0.0	No	n/a	14.361268403171	n/a	n/a	n/a	ISITrial	Gain
386.524	3.0	0.029	439.323	26.0	1	0.0	0.0	20.3914	955.0	1.0	Certain	1.7	-0.28	0.0	No	4.0	-1.98225745564364	1.613	388.137	n/a	GetAnswer	Mixed
388.162	4.0	0.025	440.961	26.0	1	0.0	0.0	20.3914	955.0	1.0	Certain	1.7	-0.28	0.0	No	n/a	-1.98225745564364	n/a	n/a	n/a	ShowChoice	Mixed
392.174	1.0	0.012	444.973	26.0	1	0.0	0.0	20.3914	955.0	1.0	Certain	1.7	-0.28	0.0	No	n/a	-1.98225745564364	n/a	n/a	n/a	ShowResult	Mixed
393.194	7.834	0.02	445.993	26.0	1	0.0	0.0	20.3914	955.0	1.0	Certain	1.7	-0.28	0.0	No	n/a	-1.98225745564364	n/a	n/a	n/a	ISITrial	Mixed
401.051	3.0	0.023	453.85	27.0	1	2.49	1.25	20.7027	955.0	1.68	Outcome1	2.49	4.5	2.54975	Yes	2.0	-2.00934314835787	0.79	401.841	n/a	GetAnswer	Gain
401.853	4.0	0.012	454.652	27.0	1	2.49	1.25	20.7027	955.0	1.68	Outcome1	2.49	4.5	2.54975	Yes	n/a	-2.00934314835787	n/a	n/a	n/a	ShowChoice	Gain
405.865	1.0	0.012	458.664	27.0	1	2.49	1.25	20.7027	955.0	1.68	Outcome1	2.49	4.5	2.54975	Yes	n/a	-2.00934314835787	n/a	n/a	n/a	ShowResult	Gain
406.885	4.225	0.02	459.684	27.0	1	2.49	1.25	20.7027	955.0	1.68	Outcome1	2.49	4.5	2.54975	Yes	n/a	-2.00934314835787	n/a	n/a	n/a	ISITrial	Gain
411.131	2.55	0.021	463.93	27.0	1	2.49	1.25	20.7027	955.0	1.68	Outcome1	2.49	4.5	2.54975	Yes	n/a	-2.00934314835787	n/a	n/a	n/a	TrialHappPreview	Gain
413.705	4.012	0.024	466.504	27.0	1	2.49	1.25	20.7027	955.0	1.68	Outcome1	2.49	4.5	2.54975	Yes	n/a	-2.00934314835787	n/a	n/a	672.0	TrialHappiness	Gain
413.706	1.841	n/a	466.55	27.0	1	2.49	1.25	20.7027	955.0	1.68	Outcome1	2.49	4.5	2.54975	Yes	n/a	-2.00934314835787	n/a	n/a	672.0	TrialHappinessSliderResponse	Gain
417.717	2.199	4.012	470.516	27.0	1	2.49	1.25	20.7027	955.0	1.68	Outcome1	2.49	4.5	2.54975	Yes	n/a	-2.00934314835787	n/a	n/a	n/a	ISIRate	Gain
455.347	0.331	n/a	510.74	n/a	1	n/a	n/a	n/a	n/a	n/a	n/a	n/a	n/a	n/a	n/a	n/a	n/a	n/a	n/a	516.0	BlockStartHappinessSliderResponse	n/a
-45.135	-0.001	0.025	472.74	n/a	2	n/a	n/a	n/a	n/a	n/a	n/a	n/a	n/a	n/a	n/a	{SPACE}	n/a	31.375	-13.76	n/a	Rest	n/a
-13.741	4.0	0.019	504.134	n/a	2	n/a	n/a	n/a	n/a	n/a	n/a	n/a	n/a	n/a	n/a	n/a	n/a	n/a	n/a	n/a	BlockHappyPreview	n/a
-9.729	2.925	0.012	508.146	n/a	2	n/a	n/a	n/a	n/a	n/a	n/a	n/a	n/a	n/a	n/a	2{-2}4{-4}	n/a	2.925	-6.804	516.0	BlockStartHappiness	n/a
-2.341	-0.001	0.011	515.534	n/a	2	n/a	n/a	n/a	n/a	n/a	n/a	n/a	n/a	n/a	n/a	5.0	n/a	2.326	-0.015	n/a	ScanWait	n/a
0.0	10.0	0.015	517.875	n/a	2	n/a	n/a	n/a	n/a	n/a	n/a	n/a	n/a	n/a	n/a	n/a	n/a	n/a	n/a	n/a	GetReady	n/a
10.013	3.0	0.013	527.888	28.0	2	-1.0	-1.0	20.5777	70.0	2.0	Certain	2.3	-5.28	0.0	No	4.0	-7.585034013605441	1.092	11.105	n/a	GetAnswer	Mixed
11.116	4.0	0.011	528.991	28.0	2	-1.0	-1.0	20.5777	70.0	2.0	Certain	2.3	-5.28	0.0	No	n/a	-7.585034013605441	n/a	n/a	n/a	ShowChoice	Mixed
15.128	1.0	0.012	533.003	28.0	2	-1.0	-1.0	20.5777	70.0	2.0	Certain	2.3	-5.28	0.0	No	n/a	-7.585034013605441	n/a	n/a	n/a	ShowResult	Mixed
16.148	3.575	0.02	534.023	28.0	2	-1.0	-1.0	20.5777	70.0	2.0	Certain	2.3	-5.28	0.0	No	n/a	-7.585034013605441	n/a	n/a	n/a	ISITrial	Mixed
19.742	3.0	0.019	537.617	29.0	2	-1.19	-0.6	20.4289	70.0	2.0	Outcome1	-1.19	6.9	3.529	Yes	2.0	-8.09070294784581	0.908	20.65	n/a	GetAnswer	Gain
20.662	4.0	0.012	538.537	29.0	2	-1.19	-0.6	20.4289	70.0	2.0	Outcome1	-1.19	6.9	3.529	Yes	n/a	-8.09070294784581	n/a	n/a	n/a	ShowChoice	Gain
24.674	1.0	0.012	542.549	29.0	2	-1.19	-0.6	20.4289	70.0	2.0	Outcome1	-1.19	6.9	3.529	Yes	n/a	-8.09070294784581	n/a	n/a	n/a	ShowResult	Gain
25.693	3.955	0.019	543.568	29.0	2	-1.19	-0.6	20.4289	70.0	2.0	Outcome1	-1.19	6.9	3.529	Yes	n/a	-8.09070294784581	n/a	n/a	n/a	ISITrial	Gain
29.672	3.529	0.024	547.547	29.0	2	-1.19	-0.6	20.4289	70.0	2.0	Outcome1	-1.19	6.9	3.529	Yes	n/a	-8.09070294784581	n/a	n/a	n/a	TrialHappPreview	Gain
33.216	4.012	0.015	551.091	29.0	2	-1.19	-0.6	20.4289	70.0	2.0	Outcome1	-1.19	6.9	3.529	Yes	n/a	-8.09070294784581	n/a	n/a	456.0	TrialHappiness	Gain
33.216	1.072	n/a	551.681	29.0	2	-1.19	-0.6	20.4289	70.0	2.0	Outcome1	-1.19	6.9	3.529	Yes	n/a	-8.09070294784581	n/a	n/a	456.0	TrialHappinessSliderResponse	Gain
37.228	6.116	4.012	555.103	29.0	2	-1.19	-0.6	20.4289	70.0	2.0	Outcome1	-1.19	6.9	3.529	Yes	n/a	-8.09070294784581	n/a	n/a	n/a	ISIRate	Gain
43.363	3.0	0.019	561.238	30.0	2	1.72	0.86	20.6439	70.0	2.48	Outcome2	9.3	1.72	0.0	No	2.0	-7.57596371882086	0.811	44.174	n/a	GetAnswer	Gain
44.199	4.0	0.025	562.074	30.0	2	1.72	0.86	20.6439	70.0	2.48	Outcome2	9.3	1.72	0.0	No	n/a	-7.57596371882086	n/a	n/a	n/a	ShowChoice	Gain
48.211	1.0	0.012	566.086	30.0	2	1.72	0.86	20.6439	70.0	2.48	Outcome2	9.3	1.72	0.0	No	n/a	-7.57596371882086	n/a	n/a	n/a	ShowResult	Gain
49.23	4.453	0.019	567.105	30.0	2	1.72	0.86	20.6439	70.0	2.48	Outcome2	9.3	1.72	0.0	No	n/a	-7.57596371882086	n/a	n/a	n/a	ISITrial	Gain
53.71	3.0	0.027	571.585	31.0	2	-1.0	-1.0	20.5189	70.0	2.0	Certain	-1.61	0.08	2.50325	Yes	4.0	1.6889644746787598	1.675	55.385	n/a	GetAnswer	Mixed
55.399	4.0	0.014	573.274	31.0	2	-1.0	-1.0	20.5189	70.0	2.0	Certain	-1.61	0.08	2.50325	Yes	n/a	1.6889644746787598	n/a	n/a	n/a	ShowChoice	Mixed
59.411	1.0	0.012	577.286	31.0	2	-1.0	-1.0	20.5189	70.0	2.0	Certain	-1.61	0.08	2.50325	Yes	n/a	1.6889644746787598	n/a	n/a	n/a	ShowResult	Mixed
60.431	4.786	0.02	578.306	31.0	2	-1.0	-1.0	20.5189	70.0	2.0	Certain	-1.61	0.08	2.50325	Yes	n/a	1.6889644746787598	n/a	n/a	n/a	ISITrial	Mixed
65.228	2.503	0.011	583.103	31.0	2	-1.0	-1.0	20.5189	70.0	2.0	Certain	-1.61	0.08	2.50325	Yes	n/a	1.6889644746787598	n/a	n/a	n/a	TrialHappPreview	Mixed
67.752	4.012	0.021	585.627	31.0	2	-1.0	-1.0	20.5189	70.0	2.0	Certain	-1.61	0.08	2.50325	Yes	n/a	1.6889644746787598	n/a	n/a	512.0	TrialHappiness	Mixed
67.753	2.237	n/a	586.357	31.0	2	-1.0	-1.0	20.5189	70.0	2.0	Certain	-1.61	0.08	2.50325	Yes	n/a	1.6889644746787598	n/a	n/a	512.0	TrialHappinessSliderResponse	Mixed
71.764	2.013	4.012	589.639	31.0	2	-1.0	-1.0	20.5189	70.0	2.0	Certain	-1.61	0.08	2.50325	Yes	n/a	1.6889644746787598	n/a	n/a	n/a	ISIRate	Mixed
73.804	3.0	0.027	591.679	32.0	2	-0.5	-0.25	20.4564	70.0	2.0	Outcome2	8.9	-0.5	0.0	No	2.0	-9.403628117913833	1.141	74.945	n/a	GetAnswer	Gain
74.957	4.0	0.012	592.832	32.0	2	-0.5	-0.25	20.4564	70.0	2.0	Outcome2	8.9	-0.5	0.0	No	n/a	-9.403628117913833	n/a	n/a	n/a	ShowChoice	Gain
78.969	1.0	0.012	596.844	32.0	2	-0.5	-0.25	20.4564	70.0	2.0	Outcome2	8.9	-0.5	0.0	No	n/a	-9.403628117913833	n/a	n/a	n/a	ShowResult	Gain
79.989	2.0	0.02	597.864	32.0	2	-0.5	-0.25	20.4564	70.0	2.0	Outcome2	8.9	-0.5	0.0	No	n/a	-9.403628117913833	n/a	n/a	n/a	ISITrial	Gain
82.012	3.0	0.023	599.887	33.0	2	2.0	2.0	20.7064	70.0	2.22	Certain	0.79	2.78	0.0	No	4.0	1.9947089947089895	1.658	83.67	n/a	GetAnswer	Loss
83.683	4.0	0.013	601.558	33.0	2	2.0	2.0	20.7064	70.0	2.22	Certain	0.79	2.78	0.0	No	n/a	1.9947089947089895	n/a	n/a	n/a	ShowChoice	Loss
87.696	1.0	0.013	605.571	33.0	2	2.0	2.0	20.7064	70.0	2.22	Certain	0.79	2.78	0.0	No	n/a	1.9947089947089895	n/a	n/a	n/a	ShowResult	Loss
88.715	5.099	0.019	606.59	33.0	2	2.0	2.0	20.7064	70.0	2.22	Certain	0.79	2.78	0.0	No	n/a	1.9947089947089895	n/a	n/a	n/a	ISITrial	Loss
93.847	3.0	0.033	611.722	34.0	2	-6.51	-1.0	19.8926	70.0	1.2	Outcome2	3.9	-6.51	3.2315	Yes	2.0	-10.40589569161	1.665	95.512	n/a	GetAnswer	Mixed
95.536	4.0	0.024	613.411	34.0	2	-6.51	-1.0	19.8926	70.0	1.2	Outcome2	3.9	-6.51	3.2315	Yes	n/a	-10.40589569161	n/a	n/a	n/a	ShowChoice	Mixed
99.548	1.0	0.012	617.423	34.0	2	-6.51	-1.0	19.8926	70.0	1.2	Outcome2	3.9	-6.51	3.2315	Yes	n/a	-10.40589569161	n/a	n/a	n/a	ShowResult	Mixed
100.567	4.784	0.019	618.442	34.0	2	-6.51	-1.0	19.8926	70.0	1.2	Outcome2	3.9	-6.51	3.2315	Yes	n/a	-10.40589569161	n/a	n/a	n/a	ISITrial	Mixed
105.365	3.232	0.014	623.24	34.0	2	-6.51	-1.0	19.8926	70.0	1.2	Outcome2	3.9	-6.51	3.2315	Yes	n/a	-10.40589569161	n/a	n/a	n/a	TrialHappPreview	Mixed
108.625	4.012	0.028	626.5	34.0	2	-6.51	-1.0	19.8926	70.0	1.2	Outcome2	3.9	-6.51	3.2315	Yes	2{-2}2{-2}2{-2}2{-2}2{-2}	-10.40589569161	2.123	110.748	600.0	TrialHappiness	Mixed
108.625	1.864	n/a	626.759	34.0	2	-6.51	-1.0	19.8926	70.0	1.2	Outcome2	3.9	-6.51	3.2315	Yes	n/a	-10.40589569161	n/a	n/a	600.0	TrialHappinessSliderResponse	Mixed
112.637	4.926	4.012	630.512	34.0	2	-6.51	-1.0	19.8926	70.0	1.2	Outcome2	3.9	-6.51	3.2315	Yes	n/a	-10.40589569161	n/a	n/a	n/a	ISIRate	Mixed
117.585	3.0	0.022	635.46	35.0	2	2.0	2.0	20.1426	70.0	1.68	Certain	8.5	-3.9	0.0	No	4.0	-12.4036281179138	1.015	118.6	n/a	GetAnswer	Gain
118.621	4.0	0.021	636.496	35.0	2	2.0	2.0	20.1426	70.0	1.68	Certain	8.5	-3.9	0.0	No	n/a	-12.4036281179138	n/a	n/a	n/a	ShowChoice	Gain
122.633	1.0	0.012	640.508	35.0	2	2.0	2.0	20.1426	70.0	1.68	Certain	8.5	-3.9	0.0	No	n/a	-12.4036281179138	n/a	n/a	n/a	ShowResult	Gain
123.653	2.098	0.02	641.528	35.0	2	2.0	2.0	20.1426	70.0	1.68	Certain	8.5	-3.9	0.0	No	n/a	-12.4036281179138	n/a	n/a	n/a	ISITrial	Gain
125.776	3.0	0.025	643.651	36.0	2	-0.1	-0.05	20.1301	70.0	2.0	Outcome2	12.9	-0.1	3.33575	Yes	2.0	-13.004535147392302	1.131	126.907	n/a	GetAnswer	Loss
126.93	4.0	0.023	644.805	36.0	2	-0.1	-0.05	20.1301	70.0	2.0	Outcome2	12.9	-0.1	3.33575	Yes	n/a	-13.004535147392302	n/a	n/a	n/a	ShowChoice	Loss
130.942	1.0	0.012	648.817	36.0	2	-0.1	-0.05	20.1301	70.0	2.0	Outcome2	12.9	-0.1	3.33575	Yes	n/a	-13.004535147392302	n/a	n/a	n/a	ShowResult	Loss
131.961	5.156	0.019	649.836	36.0	2	-0.1	-0.05	20.1301	70.0	2.0	Outcome2	12.9	-0.1	3.33575	Yes	n/a	-13.004535147392302	n/a	n/a	n/a	ISITrial	Loss
137.144	3.336	0.027	655.019	36.0	2	-0.1	-0.05	20.1301	70.0	2.0	Outcome2	12.9	-0.1	3.33575	Yes	n/a	-13.004535147392302	n/a	n/a	n/a	TrialHappPreview	Loss
140.504	4.012	0.024	658.379	36.0	2	-0.1	-0.05	20.1301	70.0	2.0	Outcome2	12.9	-0.1	3.33575	Yes	n/a	-13.004535147392302	n/a	n/a	512.0	TrialHappiness	Loss
140.504	0.0	n/a	658.379	36.0	2	-0.1	-0.05	20.1301	70.0	2.0	Outcome2	12.9	-0.1	3.33575	Yes	n/a	-13.004535147392302	n/a	n/a	512.0	TrialHappinessSliderResponse	Loss
144.516	5.343	4.012	662.391	36.0	2	-0.1	-0.05	20.1301	70.0	2.0	Outcome2	12.9	-0.1	3.33575	Yes	n/a	-13.004535147392302	n/a	n/a	n/a	ISIRate	Loss
149.882	3.0	0.023	667.757	37.0	2	0.39	0.2	20.1789	70.0	1.68	Outcome1	0.39	12.5	0.0	No	2.0	-12.108843537415	1.142	151.024	n/a	GetAnswer	Loss
151.052	4.0	0.028	668.927	37.0	2	0.39	0.2	20.1789	70.0	1.68	Outcome1	0.39	12.5	0.0	No	n/a	-12.108843537415	n/a	n/a	n/a	ShowChoice	Loss
155.064	1.0	0.012	672.939	37.0	2	0.39	0.2	20.1789	70.0	1.68	Outcome1	0.39	12.5	0.0	No	n/a	-12.108843537415	n/a	n/a	n/a	ShowResult	Loss
156.084	3.598	0.02	673.959	37.0	2	0.39	0.2	20.1789	70.0	1.68	Outcome1	0.39	12.5	0.0	No	n/a	-12.108843537415	n/a	n/a	n/a	ISITrial	Loss
159.711	3.0	0.029	677.586	38.0	2	-1.0	-1.0	20.0539	70.0	0.4	Certain	-2.5	-0.28	0.0	No	4.0	2.22014361300076	1.825	161.536	n/a	GetAnswer	Mixed
161.55	4.0	0.014	679.425	38.0	2	-1.0	-1.0	20.0539	70.0	0.4	Certain	-2.5	-0.28	0.0	No	n/a	2.22014361300076	n/a	n/a	n/a	ShowChoice	Mixed
165.562	1.0	0.012	683.437	38.0	2	-1.0	-1.0	20.0539	70.0	0.4	Certain	-2.5	-0.28	0.0	No	n/a	2.22014361300076	n/a	n/a	n/a	ShowResult	Mixed
166.582	4.787	0.02	684.457	38.0	2	-1.0	-1.0	20.0539	70.0	0.4	Certain	-2.5	-0.28	0.0	No	n/a	2.22014361300076	n/a	n/a	n/a	ISITrial	Mixed
171.396	3.0	0.027	689.271	39.0	2	-2.0	-2.0	19.8039	70.0	1.82	Certain	4.7	-8.41	2.86425	Yes	4.0	-13.1111111111111	1.286	172.682	n/a	GetAnswer	Gain
172.7	4.0	0.018	690.575	39.0	2	-2.0	-2.0	19.8039	70.0	1.82	Certain	4.7	-8.41	2.86425	Yes	n/a	-13.1111111111111	n/a	n/a	n/a	ShowChoice	Gain
176.712	1.0	0.012	694.587	39.0	2	-2.0	-2.0	19.8039	70.0	1.82	Certain	4.7	-8.41	2.86425	Yes	n/a	-13.1111111111111	n/a	n/a	n/a	ShowResult	Gain
177.732	2.348	0.02	695.607	39.0	2	-2.0	-2.0	19.8039	70.0	1.82	Certain	4.7	-8.41	2.86425	Yes	n/a	-13.1111111111111	n/a	n/a	n/a	ISITrial	Gain
180.105	2.864	0.025	697.98	39.0	2	-2.0	-2.0	19.8039	70.0	1.82	Certain	4.7	-8.41	2.86425	Yes	n/a	-13.1111111111111	n/a	n/a	n/a	TrialHappPreview	Gain
182.997	4.012	0.028	700.872	39.0	2	-2.0	-2.0	19.8039	70.0	1.82	Certain	4.7	-8.41	2.86425	Yes	n/a	-13.1111111111111	n/a	n/a	532.0	TrialHappiness	Gain
182.998	0.128	n/a	701.202	39.0	2	-2.0	-2.0	19.8039	70.0	1.82	Certain	4.7	-8.41	2.86425	Yes	n/a	-13.1111111111111	n/a	n/a	532.0	TrialHappinessSliderResponse	Gain
187.009	3.457	4.012	704.884	39.0	2	-2.0	-2.0	19.8039	70.0	1.82	Certain	4.7	-8.41	2.86425	Yes	n/a	-13.1111111111111	n/a	n/a	n/a	ISIRate	Gain
190.487	3.0	0.021	708.362	40.0	2	-3.85	-1.92	19.3227	70.0	4.2	Outcome1	-3.85	10.1	0.0	No	2.0	-13.952380952381	1.181	191.668	n/a	GetAnswer	Gain
191.69	4.0	0.022	709.565	40.0	2	-3.85	-1.92	19.3227	70.0	4.2	Outcome1	-3.85	10.1	0.0	No	n/a	-13.952380952381	n/a	n/a	n/a	ShowChoice	Gain
195.702	1.0	0.012	713.577	40.0	2	-3.85	-1.92	19.3227	70.0	4.2	Outcome1	-3.85	10.1	0.0	No	n/a	-13.952380952381	n/a	n/a	n/a	ShowResult	Gain
196.722	3.158	0.02	714.597	40.0	2	-3.85	-1.92	19.3227	70.0	4.2	Outcome1	-3.85	10.1	0.0	No	n/a	-13.952380952381	n/a	n/a	n/a	ISITrial	Gain
199.898	3.0	0.018	717.773	41.0	2	-2.09	-2.09	19.0614	70.0	5.0	Certain	10.3	-4.18	4.0	Yes	4.0	-14.4761904761905	1.243	201.141	n/a	GetAnswer	Gain
201.152	4.0	0.011	719.027	41.0	2	-2.09	-2.09	19.0614	70.0	5.0	Certain	10.3	-4.18	4.0	Yes	n/a	-14.4761904761905	n/a	n/a	n/a	ShowChoice	Gain
205.164	1.0	0.012	723.039	41.0	2	-2.09	-2.09	19.0614	70.0	5.0	Certain	10.3	-4.18	4.0	Yes	n/a	-14.4761904761905	n/a	n/a	n/a	ShowResult	Gain
206.184	4.506	0.02	724.059	41.0	2	-2.09	-2.09	19.0614	70.0	5.0	Certain	10.3	-4.18	4.0	Yes	n/a	-14.4761904761905	n/a	n/a	n/a	ISITrial	Gain
210.714	4.0	0.024	728.589	41.0	2	-2.09	-2.09	19.0614	70.0	5.0	Certain	10.3	-4.18	4.0	Yes	n/a	-14.4761904761905	n/a	n/a	n/a	TrialHappPreview	Gain
214.742	4.012	0.028	732.617	41.0	2	-2.09	-2.09	19.0614	70.0	5.0	Certain	10.3	-4.18	4.0	Yes	n/a	-14.4761904761905	n/a	n/a	512.0	TrialHappiness	Gain
214.743	0.89	n/a	735.024	41.0	2	-2.09	-2.09	19.0614	70.0	5.0	Certain	10.3	-4.18	4.0	Yes	n/a	-14.4761904761905	n/a	n/a	512.0	TrialHappinessSliderResponse	Gain
218.754	8.0	4.012	736.629	41.0	2	-2.09	-2.09	19.0614	70.0	5.0	Certain	10.3	-4.18	4.0	Yes	n/a	-14.4761904761905	n/a	n/a	n/a	ISIRate	Gain
226.778	3.0	0.024	744.653	42.0	2	-1.0	-1.0	18.9364	70.0	3.16	Certain	5.7	-8.96	0.0	No	4.0	-14.659863945578198	1.167	227.945	n/a	GetAnswer	Gain
227.965	4.0	0.02	745.84	42.0	2	-1.0	-1.0	18.9364	70.0	3.16	Certain	5.7	-8.96	0.0	No	n/a	-14.659863945578198	n/a	n/a	n/a	ShowChoice	Gain
231.977	1.0	0.012	749.852	42.0	2	-1.0	-1.0	18.9364	70.0	3.16	Certain	5.7	-8.96	0.0	No	n/a	-14.659863945578198	n/a	n/a	n/a	ShowResult	Gain
232.997	6.248	0.02	750.872	42.0	2	-1.0	-1.0	18.9364	70.0	3.16	Certain	5.7	-8.96	0.0	No	n/a	-14.659863945578198	n/a	n/a	n/a	ISITrial	Gain
239.266	3.0	0.021	757.141	43.0	2	-1.0	-1.0	18.8114	70.0	0.82	Certain	-2.55	-0.12	2.77575	Yes	4.0	2.43272864701436	1.531	240.797	n/a	GetAnswer	Mixed
240.821	4.0	0.024	758.696	43.0	2	-1.0	-1.0	18.8114	70.0	0.82	Certain	-2.55	-0.12	2.77575	Yes	n/a	2.43272864701436	n/a	n/a	n/a	ShowChoice	Mixed
244.833	1.0	0.012	762.708	43.0	2	-1.0	-1.0	18.8114	70.0	0.82	Certain	-2.55	-0.12	2.77575	Yes	n/a	2.43272864701436	n/a	n/a	n/a	ShowResult	Mixed
245.852	4.596	0.019	763.727	43.0	2	-1.0	-1.0	18.8114	70.0	0.82	Certain	-2.55	-0.12	2.77575	Yes	n/a	2.43272864701436	n/a	n/a	n/a	ISITrial	Mixed
250.466	2.776	0.018	768.341	43.0	2	-1.0	-1.0	18.8114	70.0	0.82	Certain	-2.55	-0.12	2.77575	Yes	n/a	2.43272864701436	n/a	n/a	n/a	TrialHappPreview	Mixed
253.258	4.012	0.016	771.133	43.0	2	-1.0	-1.0	18.8114	70.0	0.82	Certain	-2.55	-0.12	2.77575	Yes	n/a	2.43272864701436	n/a	n/a	516.0	TrialHappiness	Mixed
253.258	1.638	n/a	771.392	43.0	2	-1.0	-1.0	18.8114	70.0	0.82	Certain	-2.55	-0.12	2.77575	Yes	n/a	2.43272864701436	n/a	n/a	516.0	TrialHappinessSliderResponse	Mixed
257.27	3.103	4.012	775.145	43.0	2	-1.0	-1.0	18.8114	70.0	0.82	Certain	-2.55	-0.12	2.77575	Yes	n/a	2.43272864701436	n/a	n/a	n/a	ISIRate	Mixed
260.396	3.0	0.023	778.271	44.0	2	2.28	1.0	19.0964	70.0	2.22	Outcome1	2.28	-0.21	0.0	No	2.0	2.4907407407407405	1.172	261.568	n/a	GetAnswer	Gain
261.583	4.0	0.015	779.458	44.0	2	2.28	1.0	19.0964	70.0	2.22	Outcome1	2.28	-0.21	0.0	No	n/a	2.4907407407407405	n/a	n/a	n/a	ShowChoice	Gain
265.595	1.0	0.012	783.47	44.0	2	2.28	1.0	19.0964	70.0	2.22	Outcome1	2.28	-0.21	0.0	No	n/a	2.4907407407407405	n/a	n/a	n/a	ShowResult	Gain
266.614	2.42	0.019	784.489	44.0	2	2.28	1.0	19.0964	70.0	2.22	Outcome1	2.28	-0.21	0.0	No	n/a	2.4907407407407405	n/a	n/a	n/a	ISITrial	Gain
269.055	3.0	0.021	786.93	45.0	2	0.0	0.0	19.0964	70.0	3.6	Certain	1.48	-1.05	0.0	No	4.0	2.5328798185941004	1.71	270.765	n/a	GetAnswer	Gain
270.777	4.0	0.012	788.652	45.0	2	0.0	0.0	19.0964	70.0	3.6	Certain	1.48	-1.05	0.0	No	n/a	2.5328798185941004	n/a	n/a	n/a	ShowChoice	Gain
274.789	1.0	0.012	792.664	45.0	2	0.0	0.0	19.0964	70.0	3.6	Certain	1.48	-1.05	0.0	No	n/a	2.5328798185941004	n/a	n/a	n/a	ShowResult	Gain
275.809	3.144	0.02	793.684	45.0	2	0.0	0.0	19.0964	70.0	3.6	Certain	1.48	-1.05	0.0	No	n/a	2.5328798185941004	n/a	n/a	n/a	ISITrial	Gain
278.985	3.0	0.032	796.86	46.0	2	-3.24	-1.62	18.6914	70.0	2.8	Outcome1	-3.24	13.5	3.84125	Yes	2.0	-16.7414965986395	1.529	280.514	n/a	GetAnswer	Loss
280.539	4.0	0.025	798.414	46.0	2	-3.24	-1.62	18.6914	70.0	2.8	Outcome1	-3.24	13.5	3.84125	Yes	n/a	-16.7414965986395	n/a	n/a	n/a	ShowChoice	Loss
284.551	1.0	0.012	802.426	46.0	2	-3.24	-1.62	18.6914	70.0	2.8	Outcome1	-3.24	13.5	3.84125	Yes	n/a	-16.7414965986395	n/a	n/a	n/a	ShowResult	Loss
285.571	2.246	0.02	803.446	46.0	2	-3.24	-1.62	18.6914	70.0	2.8	Outcome1	-3.24	13.5	3.84125	Yes	n/a	-16.7414965986395	n/a	n/a	n/a	ISITrial	Loss
287.828	3.841	0.011	805.703	46.0	2	-3.24	-1.62	18.6914	70.0	2.8	Outcome1	-3.24	13.5	3.84125	Yes	n/a	-16.7414965986395	n/a	n/a	n/a	TrialHappPreview	Loss
291.689	4.012	0.02	809.564	46.0	2	-3.24	-1.62	18.6914	70.0	2.8	Outcome1	-3.24	13.5	3.84125	Yes	4{-4}2{-2}2{-2}2{-2}4{-4}4{-4}	-16.7414965986395	3.717	295.406	460.0	TrialHappiness	Loss
291.69	3.419	n/a	809.863	46.0	2	-3.24	-1.62	18.6914	70.0	2.8	Outcome1	-3.24	13.5	3.84125	Yes	n/a	-16.7414965986395	n/a	n/a	460.0	TrialHappinessSliderResponse	Loss
295.701	7.365	4.012	813.576	46.0	2	-3.24	-1.62	18.6914	70.0	2.8	Outcome1	-3.24	13.5	3.84125	Yes	n/a	-16.7414965986395	n/a	n/a	n/a	ISIRate	Loss
303.09	3.0	0.024	820.965	47.0	2	-1.0	-1.0	18.5664	70.0	1.68	Certain	6.5	-9.79	0.0	No	4.0	-16.2947845804989	1.068	304.158	n/a	GetAnswer	Gain
304.177	4.0	0.019	822.052	47.0	2	-1.0	-1.0	18.5664	70.0	1.68	Certain	6.5	-9.79	0.0	No	n/a	-16.2947845804989	n/a	n/a	n/a	ShowChoice	Gain
308.189	1.0	0.012	826.064	47.0	2	-1.0	-1.0	18.5664	70.0	1.68	Certain	6.5	-9.79	0.0	No	n/a	-16.2947845804989	n/a	n/a	n/a	ShowResult	Gain
309.209	2.0	0.02	827.084	47.0	2	-1.0	-1.0	18.5664	70.0	1.68	Certain	6.5	-9.79	0.0	No	n/a	-16.2947845804989	n/a	n/a	n/a	ISITrial	Gain
311.231	3.0	0.022	829.106	48.0	2	-5.0	-5.0	17.9414	70.0	0.3	Certain	2.7	-14.04	2.83175	Yes	4.0	-16.736961451247197	1.568	312.799	n/a	GetAnswer	Mixed
312.819	4.0	0.02	830.694	48.0	2	-5.0	-5.0	17.9414	70.0	0.3	Certain	2.7	-14.04	2.83175	Yes	n/a	-16.736961451247197	n/a	n/a	n/a	ShowChoice	Mixed
316.831	1.0	0.012	834.706	48.0	2	-5.0	-5.0	17.9414	70.0	0.3	Certain	2.7	-14.04	2.83175	Yes	n/a	-16.736961451247197	n/a	n/a	n/a	ShowResult	Mixed
317.851	3.692	0.02	835.726	48.0	2	-5.0	-5.0	17.9414	70.0	0.3	Certain	2.7	-14.04	2.83175	Yes	n/a	-16.736961451247197	n/a	n/a	n/a	ISITrial	Mixed
321.562	2.832	0.019	839.437	48.0	2	-5.0	-5.0	17.9414	70.0	0.3	Certain	2.7	-14.04	2.83175	Yes	n/a	-16.736961451247197	n/a	n/a	n/a	TrialHappPreview	Mixed
324.421	4.028	0.027	842.296	48.0	2	-5.0	-5.0	17.9414	70.0	0.3	Certain	2.7	-14.04	2.83175	Yes	n/a	-16.736961451247197	n/a	n/a	392.0	TrialHappiness	Mixed
324.421	0.83	n/a	843.286	48.0	2	-5.0	-5.0	17.9414	70.0	0.3	Certain	2.7	-14.04	2.83175	Yes	n/a	-16.736961451247197	n/a	n/a	392.0	TrialHappinessSliderResponse	Mixed
328.449	3.327	4.028	846.324	48.0	2	-5.0	-5.0	17.9414	70.0	0.3	Certain	2.7	-14.04	2.83175	Yes	n/a	-16.736961451247197	n/a	n/a	n/a	ISIRate	Mixed
331.81	3.0	0.034	849.685	49.0	2	-1.0	-1.0	17.8164	70.0	2.22	Certain	7.1	-8.92	0.0	No	4.0	-16.0226757369615	1.148	332.958	n/a	GetAnswer	Gain
332.98	4.0	0.022	850.855	49.0	2	-1.0	-1.0	17.8164	70.0	2.22	Certain	7.1	-8.92	0.0	No	n/a	-16.0226757369615	n/a	n/a	n/a	ShowChoice	Gain
336.992	1.0	0.012	854.867	49.0	2	-1.0	-1.0	17.8164	70.0	2.22	Certain	7.1	-8.92	0.0	No	n/a	-16.0226757369615	n/a	n/a	n/a	ShowResult	Gain
338.011	8.0	0.019	855.886	49.0	2	-1.0	-1.0	17.8164	70.0	2.22	Certain	7.1	-8.92	0.0	No	n/a	-16.0226757369615	n/a	n/a	n/a	ISITrial	Gain
346.035	3.0	0.024	863.91	50.0	2	0.28	-1.0	17.8514	70.0	0.52	Outcome1	0.28	-1.94	3.54725	Yes	2.0	2.21749811035525	1.238	347.273	n/a	GetAnswer	Mixed
347.289	4.0	0.016	865.164	50.0	2	0.28	-1.0	17.8514	70.0	0.52	Outcome1	0.28	-1.94	3.54725	Yes	n/a	2.21749811035525	n/a	n/a	n/a	ShowChoice	Mixed
351.301	1.0	0.012	869.176	50.0	2	0.28	-1.0	17.8514	70.0	0.52	Outcome1	0.28	-1.94	3.54725	Yes	n/a	2.21749811035525	n/a	n/a	n/a	ShowResult	Mixed
352.321	7.537	0.02	870.196	50.0	2	0.28	-1.0	17.8514	70.0	0.52	Outcome1	0.28	-1.94	3.54725	Yes	n/a	2.21749811035525	n/a	n/a	n/a	ISITrial	Mixed
359.877	3.547	0.019	877.752	50.0	2	0.28	-1.0	17.8514	70.0	0.52	Outcome1	0.28	-1.94	3.54725	Yes	n/a	2.21749811035525	n/a	n/a	n/a	TrialHappPreview	Mixed
363.454	4.012	0.03	881.329	50.0	2	0.28	-1.0	17.8514	70.0	0.52	Outcome1	0.28	-1.94	3.54725	Yes	n/a	2.21749811035525	n/a	n/a	412.0	TrialHappiness	Mixed
363.455	2.879	n/a	881.579	50.0	2	0.28	-1.0	17.8514	70.0	0.52	Outcome1	0.28	-1.94	3.54725	Yes	n/a	2.21749811035525	n/a	n/a	412.0	TrialHappinessSliderResponse	Mixed
367.466	6.189	4.012	885.341	50.0	2	0.28	-1.0	17.8514	70.0	0.52	Outcome1	0.28	-1.94	3.54725	Yes	n/a	2.21749811035525	n/a	n/a	n/a	ISIRate	Mixed
373.685	3.0	0.03	891.56	51.0	2	-17.79	-9.0	15.6276	70.0	0.66	Outcome2	-0.7	-17.79	0.0	No	2.0	-17.092970521542	1.812	375.497	n/a	GetAnswer	Mixed
375.524	4.0	0.027	893.399	51.0	2	-17.79	-9.0	15.6276	70.0	0.66	Outcome2	-0.7	-17.79	0.0	No	n/a	-17.092970521542	n/a	n/a	n/a	ShowChoice	Mixed
379.536	1.0	0.012	897.411	51.0	2	-17.79	-9.0	15.6276	70.0	0.66	Outcome2	-0.7	-17.79	0.0	No	n/a	-17.092970521542	n/a	n/a	n/a	ShowResult	Mixed
380.555	5.508	0.019	898.43	51.0	2	-17.79	-9.0	15.6276	70.0	0.66	Outcome2	-0.7	-17.79	0.0	No	n/a	-17.092970521542	n/a	n/a	n/a	ISITrial	Mixed
386.089	3.0	0.026	903.964	52.0	2	0.0	0.0	15.6276	70.0	4.2	Certain	8.1	-9.38	0.0	No	4.0	-17.480725623582803	1.88	387.969	n/a	GetAnswer	Gain
387.994	4.0	0.025	905.869	52.0	2	0.0	0.0	15.6276	70.0	4.2	Certain	8.1	-9.38	0.0	No	n/a	-17.480725623582803	n/a	n/a	n/a	ShowChoice	Gain
392.006	1.0	0.012	909.881	52.0	2	0.0	0.0	15.6276	70.0	4.2	Certain	8.1	-9.38	0.0	No	n/a	-17.480725623582803	n/a	n/a	n/a	ShowResult	Gain
393.026	5.913	0.02	910.901	52.0	2	0.0	0.0	15.6276	70.0	4.2	Certain	8.1	-9.38	0.0	No	n/a	-17.480725623582803	n/a	n/a	n/a	ISITrial	Gain
398.961	3.0	0.022	916.836	53.0	2	-5.97	-2.98	14.8813	70.0	3.6	Outcome2	11.9	-5.97	2.99675	Yes	2.0	-17.868480725623602	1.593	400.554	n/a	GetAnswer	Loss
400.565	4.0	0.011	918.44	53.0	2	-5.97	-2.98	14.8813	70.0	3.6	Outcome2	11.9	-5.97	2.99675	Yes	n/a	-17.868480725623602	n/a	n/a	n/a	ShowChoice	Loss
404.577	1.0	0.012	922.452	53.0	2	-5.97	-2.98	14.8813	70.0	3.6	Outcome2	11.9	-5.97	2.99675	Yes	n/a	-17.868480725623602	n/a	n/a	n/a	ShowResult	Loss
405.597	3.66	0.02	923.472	53.0	2	-5.97	-2.98	14.8813	70.0	3.6	Outcome2	11.9	-5.97	2.99675	Yes	n/a	-17.868480725623602	n/a	n/a	n/a	ISITrial	Loss
409.275	2.997	0.018	927.15	53.0	2	-5.97	-2.98	14.8813	70.0	3.6	Outcome2	11.9	-5.97	2.99675	Yes	n/a	-17.868480725623602	n/a	n/a	n/a	TrialHappPreview	Loss
412.3	4.012	0.028	930.175	53.0	2	-5.97	-2.98	14.8813	70.0	3.6	Outcome2	11.9	-5.97	2.99675	Yes	n/a	-17.868480725623602	n/a	n/a	208.0	TrialHappiness	Loss
412.301	2.904	n/a	930.373	53.0	2	-5.97	-2.98	14.8813	70.0	3.6	Outcome2	11.9	-5.97	2.99675	Yes	n/a	-17.868480725623602	n/a	n/a	208.0	TrialHappinessSliderResponse	Loss
416.312	3.987	4.012	934.187	53.0	2	-5.97	-2.98	14.8813	70.0	3.6	Outcome2	11.9	-5.97	2.99675	Yes	n/a	-17.868480725623602	n/a	n/a	n/a	ISIRate	Loss
420.325	3.0	0.026	938.2	54.0	2	-8.0	-8.0	13.8813	70.0	0.3	Certain	-16.09	-1.3	0.0	No	4.0	-14.7868480725624	1.575	421.9	n/a	GetAnswer	Mixed
421.913	4.0	0.013	939.788	54.0	2	-8.0	-8.0	13.8813	70.0	0.3	Certain	-16.09	-1.3	0.0	No	n/a	-14.7868480725624	n/a	n/a	n/a	ShowChoice	Mixed
425.925	1.0	0.012	943.8	54.0	2	-8.0	-8.0	13.8813	70.0	0.3	Certain	-16.09	-1.3	0.0	No	n/a	-14.7868480725624	n/a	n/a	n/a	ShowResult	Mixed
426.944	8.0	0.019	944.819	54.0	2	-8.0	-8.0	13.8813	70.0	0.3	Certain	-16.09	-1.3	0.0	No	n/a	-14.7868480725624	n/a	n/a	n/a	ISITrial	Mixed
466.814	0.0	n/a	984.689	n/a	2	n/a	n/a	n/a	n/a	n/a	n/a	n/a	n/a	n/a	n/a	n/a	n/a	n/a	n/a	512.0	BlockStartHappinessSliderResponse	n/a
-39.836	-0.001	0.024	952.843	n/a	3	n/a	n/a	n/a	n/a	n/a	n/a	n/a	n/a	n/a	n/a	{SPACE}	n/a	27.807	-12.029	n/a	Rest	n/a
-12.002	4.0	0.027	980.677	n/a	3	n/a	n/a	n/a	n/a	n/a	n/a	n/a	n/a	n/a	n/a	n/a	n/a	n/a	n/a	n/a	BlockHappyPreview	n/a
-7.99	0.0	0.012	984.689	n/a	3	n/a	n/a	n/a	n/a	n/a	n/a	n/a	n/a	n/a	n/a	n/a	n/a	n/a	n/a	512.0	BlockStartHappiness	n/a
-2.039	-0.001	0.022	990.64	n/a	3	n/a	n/a	n/a	n/a	n/a	n/a	n/a	n/a	n/a	n/a	5.0	n/a	2.017	-0.022	n/a	ScanWait	n/a
0.0	10.0	0.022	992.679	n/a	3	n/a	n/a	n/a	n/a	n/a	n/a	n/a	n/a	n/a	n/a	n/a	n/a	n/a	n/a	n/a	GetReady	n/a
10.014	3.0	0.014	1002.693	55.0	3	3.5	0.0	14.3188	955.0	0.82	Outcome1	3.5	-4.03	2.53325	Yes	2.0	7.52548131370328	1.232	11.246	n/a	GetAnswer	Mixed
11.267	4.0	0.021	1003.946	55.0	3	3.5	0.0	14.3188	955.0	0.82	Outcome1	3.5	-4.03	2.53325	Yes	n/a	7.52548131370328	n/a	n/a	n/a	ShowChoice	Mixed
15.279	1.0	0.012	1007.958	55.0	3	3.5	0.0	14.3188	955.0	0.82	Outcome1	3.5	-4.03	2.53325	Yes	n/a	7.52548131370328	n/a	n/a	n/a	ShowResult	Mixed
16.299	7.709	0.02	1008.978	55.0	3	3.5	0.0	14.3188	955.0	0.82	Outcome1	3.5	-4.03	2.53325	Yes	n/a	7.52548131370328	n/a	n/a	n/a	ISITrial	Mixed
24.022	2.533	0.014	1016.701	55.0	3	3.5	0.0	14.3188	955.0	0.82	Outcome1	3.5	-4.03	2.53325	Yes	n/a	7.52548131370328	n/a	n/a	n/a	TrialHappPreview	Mixed
26.58	4.012	0.025	1019.259	55.0	3	3.5	0.0	14.3188	955.0	0.82	Outcome1	3.5	-4.03	2.53325	Yes	2{-2}	7.52548131370328	1.161	27.741	532.0	TrialHappiness	Mixed
26.58	0.14	n/a	1020.28	55.0	3	3.5	0.0	14.3188	955.0	0.82	Outcome1	3.5	-4.03	2.53325	Yes	n/a	7.52548131370328	n/a	n/a	532.0	TrialHappinessSliderResponse	Mixed
30.592	2.133	4.012	1023.271	55.0	3	3.5	0.0	14.3188	955.0	0.82	Outcome1	3.5	-4.03	2.53325	Yes	n/a	7.52548131370328	n/a	n/a	n/a	ISIRate	Mixed
32.748	3.0	0.023	1025.427	56.0	3	5.3	1.0	14.9813	955.0	2.48	Outcome1	5.3	-2.39	0.0	No	2.0	7.687429218573049	0.837	33.585	n/a	GetAnswer	Gain
33.601	4.0	0.016	1026.28	56.0	3	5.3	1.0	14.9813	955.0	2.48	Outcome1	5.3	-2.39	0.0	No	n/a	7.687429218573049	n/a	n/a	n/a	ShowChoice	Gain
37.63	1.0	0.029	1030.309	56.0	3	5.3	1.0	14.9813	955.0	2.48	Outcome1	5.3	-2.39	0.0	No	n/a	7.687429218573049	n/a	n/a	n/a	ShowResult	Gain
38.649	4.697	0.019	1031.328	56.0	3	5.3	1.0	14.9813	955.0	2.48	Outcome1	5.3	-2.39	0.0	No	n/a	7.687429218573049	n/a	n/a	n/a	ISITrial	Gain
43.363	3.0	0.017	1036.042	57.0	3	9.5	4.75	16.1688	955.0	2.48	Outcome1	9.5	11.3	0.0	No	2.0	-1.7983201208003	0.824	44.187	n/a	GetAnswer	Loss
44.216	4.0	0.029	1036.895	57.0	3	9.5	4.75	16.1688	955.0	2.48	Outcome1	9.5	11.3	0.0	No	n/a	-1.7983201208003	n/a	n/a	n/a	ShowChoice	Loss
48.228	1.0	0.012	1040.907	57.0	3	9.5	4.75	16.1688	955.0	2.48	Outcome1	9.5	11.3	0.0	No	n/a	-1.7983201208003	n/a	n/a	n/a	ShowResult	Loss
49.248	4.291	0.02	1041.927	57.0	3	9.5	4.75	16.1688	955.0	2.48	Outcome1	9.5	11.3	0.0	No	n/a	-1.7983201208003	n/a	n/a	n/a	ISITrial	Loss
53.561	3.0	0.022	1046.24	58.0	3	0.1	-4.0	16.1813	955.0	1.5	Outcome2	-8.55	0.1	3.04575	Yes	2.0	8.645526613816541	1.433	54.994	n/a	GetAnswer	Mixed
55.015	4.0	0.021	1047.694	58.0	3	0.1	-4.0	16.1813	955.0	1.5	Outcome2	-8.55	0.1	3.04575	Yes	n/a	8.645526613816541	n/a	n/a	n/a	ShowChoice	Mixed
59.044	1.0	0.029	1051.723	58.0	3	0.1	-4.0	16.1813	955.0	1.5	Outcome2	-8.55	0.1	3.04575	Yes	n/a	8.645526613816541	n/a	n/a	n/a	ShowResult	Mixed
60.063	2.037	0.019	1052.742	58.0	3	0.1	-4.0	16.1813	955.0	1.5	Outcome2	-8.55	0.1	3.04575	Yes	n/a	8.645526613816541	n/a	n/a	n/a	ISITrial	Mixed
62.12	3.046	0.02	1054.799	58.0	3	0.1	-4.0	16.1813	955.0	1.5	Outcome2	-8.55	0.1	3.04575	Yes	n/a	8.645526613816541	n/a	n/a	n/a	TrialHappPreview	Mixed
65.195	4.012	0.029	1057.874	58.0	3	0.1	-4.0	16.1813	955.0	1.5	Outcome2	-8.55	0.1	3.04575	Yes	n/a	8.645526613816541	n/a	n/a	596.0	TrialHappiness	Mixed
65.196	1.752	n/a	1058.349	58.0	3	0.1	-4.0	16.1813	955.0	1.5	Outcome2	-8.55	0.1	3.04575	Yes	n/a	8.645526613816541	n/a	n/a	596.0	TrialHappinessSliderResponse	Mixed
69.207	4.183	4.012	1061.886	58.0	3	0.1	-4.0	16.1813	955.0	1.5	Outcome2	-8.55	0.1	3.04575	Yes	n/a	8.645526613816541	n/a	n/a	n/a	ISIRate	Mixed
73.42	3.0	0.03	1066.099	59.0	3	3.7	0.0	16.6438	955.0	1.0	Outcome1	3.7	-4.34	0.0	No	2.0	8.03737259343148	0.827	74.247	n/a	GetAnswer	Mixed
74.273	4.0	0.026	1066.952	59.0	3	3.7	0.0	16.6438	955.0	1.0	Outcome1	3.7	-4.34	0.0	No	n/a	8.03737259343148	n/a	n/a	n/a	ShowChoice	Mixed
78.301	1.0	0.028	1070.98	59.0	3	3.7	0.0	16.6438	955.0	1.0	Outcome1	3.7	-4.34	0.0	No	n/a	8.03737259343148	n/a	n/a	n/a	ShowResult	Mixed
79.321	5.064	0.02	1072.0	59.0	3	3.7	0.0	16.6438	955.0	1.0	Outcome1	3.7	-4.34	0.0	No	n/a	8.03737259343148	n/a	n/a	n/a	ISITrial	Mixed
84.42	3.0	0.035	1077.099	60.0	3	3.25	1.62	17.05	955.0	2.0	Outcome1	3.25	4.9	3.5625	Yes	2.0	-1.65232163080408	0.683	85.103	n/a	GetAnswer	Gain
85.122	4.0	0.019	1077.801	60.0	3	3.25	1.62	17.05	955.0	2.0	Outcome1	3.25	4.9	3.5625	Yes	n/a	-1.65232163080408	n/a	n/a	n/a	ShowChoice	Gain
89.134	1.0	0.012	1081.813	60.0	3	3.25	1.62	17.05	955.0	2.0	Outcome1	3.25	4.9	3.5625	Yes	n/a	-1.65232163080408	n/a	n/a	n/a	ShowResult	Gain
90.153	8.0	0.019	1082.832	60.0	3	3.25	1.62	17.05	955.0	2.0	Outcome1	3.25	4.9	3.5625	Yes	n/a	-1.65232163080408	n/a	n/a	n/a	ISITrial	Gain
98.177	3.562	0.024	1090.856	60.0	3	3.25	1.62	17.05	955.0	2.0	Outcome1	3.25	4.9	3.5625	Yes	n/a	-1.65232163080408	n/a	n/a	n/a	TrialHappPreview	Gain
101.755	4.029	0.016	1094.434	60.0	3	3.25	1.62	17.05	955.0	2.0	Outcome1	3.25	4.9	3.5625	Yes	n/a	-1.65232163080408	n/a	n/a	636.0	TrialHappiness	Gain
101.755	0.953	n/a	1094.667	60.0	3	3.25	1.62	17.05	955.0	2.0	Outcome1	3.25	4.9	3.5625	Yes	n/a	-1.65232163080408	n/a	n/a	636.0	TrialHappinessSliderResponse	Gain
105.784	6.25	4.029	1098.463	60.0	3	3.25	1.62	17.05	955.0	2.0	Outcome1	3.25	4.9	3.5625	Yes	n/a	-1.65232163080408	n/a	n/a	n/a	ISIRate	Gain
112.052	3.0	0.018	1104.731	61.0	3	9.98	4.99	18.2975	955.0	2.8	Outcome1	9.98	11.5	0.0	No	2.0	-1.5238769346923402	0.633	112.685	n/a	GetAnswer	Loss
112.704	4.0	0.019	1105.383	61.0	3	9.98	4.99	18.2975	955.0	2.8	Outcome1	9.98	11.5	0.0	No	n/a	-1.5238769346923402	n/a	n/a	n/a	ShowChoice	Loss
116.733	1.0	0.029	1109.412	61.0	3	9.98	4.99	18.2975	955.0	2.8	Outcome1	9.98	11.5	0.0	No	n/a	-1.5238769346923402	n/a	n/a	n/a	ShowResult	Loss
117.753	4.586	0.02	1110.432	61.0	3	9.98	4.99	18.2975	955.0	2.8	Outcome1	9.98	11.5	0.0	No	n/a	-1.5238769346923402	n/a	n/a	n/a	ISITrial	Loss
122.367	3.0	0.028	1115.046	62.0	3	13.7	2.58	20.01	955.0	3.16	Outcome2	5.17	13.7	3.74875	Yes	2.0	8.532276330690829	0.601	122.968	n/a	GetAnswer	Loss
122.985	4.0	0.017	1115.664	62.0	3	13.7	2.58	20.01	955.0	3.16	Outcome2	5.17	13.7	3.74875	Yes	n/a	8.532276330690829	n/a	n/a	n/a	ShowChoice	Loss
126.997	1.0	0.012	1119.676	62.0	3	13.7	2.58	20.01	955.0	3.16	Outcome2	5.17	13.7	3.74875	Yes	n/a	8.532276330690829	n/a	n/a	n/a	ShowResult	Loss
128.017	5.212	0.02	1120.696	62.0	3	13.7	2.58	20.01	955.0	3.16	Outcome2	5.17	13.7	3.74875	Yes	n/a	8.532276330690829	n/a	n/a	n/a	ISITrial	Loss
133.249	3.749	0.02	1125.928	62.0	3	13.7	2.58	20.01	955.0	3.16	Outcome2	5.17	13.7	3.74875	Yes	n/a	8.532276330690829	n/a	n/a	n/a	TrialHappPreview	Loss
137.027	4.012	0.029	1129.706	62.0	3	13.7	2.58	20.01	955.0	3.16	Outcome2	5.17	13.7	3.74875	Yes	n/a	8.532276330690829	n/a	n/a	628.0	TrialHappiness	Loss
137.028	2.746	n/a	1130.052	62.0	3	13.7	2.58	20.01	955.0	3.16	Outcome2	5.17	13.7	3.74875	Yes	n/a	8.532276330690829	n/a	n/a	628.0	TrialHappinessSliderResponse	Loss
141.039	6.995	4.012	1133.718	62.0	3	13.7	2.58	20.01	955.0	3.16	Outcome2	5.17	13.7	3.74875	Yes	n/a	8.532276330690829	n/a	n/a	n/a	ISIRate	Loss
148.06	3.0	0.026	1140.739	63.0	3	10.48	5.24	21.32	955.0	4.2	Outcome1	10.48	12.1	0.0	No	2.0	-1.61655341638354	0.688	148.748	n/a	GetAnswer	Loss
148.762	4.0	0.014	1141.441	63.0	3	10.48	5.24	21.32	955.0	4.2	Outcome1	10.48	12.1	0.0	No	n/a	-1.61655341638354	n/a	n/a	n/a	ShowChoice	Loss
152.774	1.0	0.012	1145.453	63.0	3	10.48	5.24	21.32	955.0	4.2	Outcome1	10.48	12.1	0.0	No	n/a	-1.61655341638354	n/a	n/a	n/a	ShowResult	Loss
153.794	5.595	0.02	1146.473	63.0	3	10.48	5.24	21.32	955.0	4.2	Outcome1	10.48	12.1	0.0	No	n/a	-1.61655341638354	n/a	n/a	n/a	ISITrial	Loss
159.411	3.0	0.022	1152.09	64.0	3	9.7	0.15	22.5325	955.0	3.16	Outcome2	0.3	9.7	0.0	No	2.0	9.39977349943375	0.513	159.924	n/a	GetAnswer	Gain
159.946	4.0	0.022	1152.625	64.0	3	9.7	0.15	22.5325	955.0	3.16	Outcome2	0.3	9.7	0.0	No	n/a	9.39977349943375	n/a	n/a	n/a	ShowChoice	Gain
163.958	1.0	0.012	1156.637	64.0	3	9.7	0.15	22.5325	955.0	3.16	Outcome2	0.3	9.7	0.0	No	n/a	9.39977349943375	n/a	n/a	n/a	ShowResult	Gain
164.977	5.47	0.019	1157.656	64.0	3	9.7	0.15	22.5325	955.0	3.16	Outcome2	0.3	9.7	0.0	No	n/a	9.39977349943375	n/a	n/a	n/a	ISITrial	Gain
170.477	3.0	0.03	1163.156	65.0	3	7.02	3.51	23.41	955.0	1.82	Outcome1	7.02	8.7	2.99675	Yes	2.0	-1.67827482068705	0.833	171.31	n/a	GetAnswer	Gain
171.33	4.0	0.02	1164.009	65.0	3	7.02	3.51	23.41	955.0	1.82	Outcome1	7.02	8.7	2.99675	Yes	n/a	-1.67827482068705	n/a	n/a	n/a	ShowChoice	Gain
175.342	1.0	0.012	1168.021	65.0	3	7.02	3.51	23.41	955.0	1.82	Outcome1	7.02	8.7	2.99675	Yes	n/a	-1.67827482068705	n/a	n/a	n/a	ShowResult	Gain
176.361	3.344	0.019	1169.04	65.0	3	7.02	3.51	23.41	955.0	1.82	Outcome1	7.02	8.7	2.99675	Yes	n/a	-1.67827482068705	n/a	n/a	n/a	ISITrial	Gain
179.722	2.997	0.017	1172.401	65.0	3	7.02	3.51	23.41	955.0	1.82	Outcome1	7.02	8.7	2.99675	Yes	n/a	-1.67827482068705	n/a	n/a	n/a	TrialHappPreview	Gain
182.747	4.012	0.028	1175.426	65.0	3	7.02	3.51	23.41	955.0	1.82	Outcome1	7.02	8.7	2.99675	Yes	2{-2}	-1.67827482068705	0.626	183.373	552.0	TrialHappiness	Gain
182.748	0.227	n/a	1175.826	65.0	3	7.02	3.51	23.41	955.0	1.82	Outcome1	7.02	8.7	2.99675	Yes	n/a	-1.67827482068705	n/a	n/a	552.0	TrialHappinessSliderResponse	Gain
186.759	3.987	4.012	1179.438	65.0	3	7.02	3.51	23.41	955.0	1.82	Outcome1	7.02	8.7	2.99675	Yes	n/a	-1.67827482068705	n/a	n/a	n/a	ISIRate	Gain
190.771	3.0	0.025	1183.45	66.0	3	0.5	-5.0	23.4725	955.0	0.2	Outcome1	0.5	-10.93	0.0	No	2.0	11.4314835787089	1.195	191.966	n/a	GetAnswer	Mixed
191.992	4.0	0.026	1184.671	66.0	3	0.5	-5.0	23.4725	955.0	0.2	Outcome1	0.5	-10.93	0.0	No	n/a	11.4314835787089	n/a	n/a	n/a	ShowChoice	Mixed
196.004	1.0	0.012	1188.683	66.0	3	0.5	-5.0	23.4725	955.0	0.2	Outcome1	0.5	-10.93	0.0	No	n/a	11.4314835787089	n/a	n/a	n/a	ShowResult	Mixed
197.023	3.959	0.019	1189.702	66.0	3	0.5	-5.0	23.4725	955.0	0.2	Outcome1	0.5	-10.93	0.0	No	n/a	11.4314835787089	n/a	n/a	n/a	ISITrial	Mixed
201.002	3.0	0.02	1193.681	67.0	3	10.64	5.32	24.8025	955.0	1.82	Outcome1	10.64	12.7	2.9185	Yes	2.0	-2.0555870139675303	0.803	201.805	n/a	GetAnswer	Loss
201.821	4.0	0.016	1194.5	67.0	3	10.64	5.32	24.8025	955.0	1.82	Outcome1	10.64	12.7	2.9185	Yes	n/a	-2.0555870139675303	n/a	n/a	n/a	ShowChoice	Loss
205.833	1.0	0.012	1198.512	67.0	3	10.64	5.32	24.8025	955.0	1.82	Outcome1	10.64	12.7	2.9185	Yes	n/a	-2.0555870139675303	n/a	n/a	n/a	ShowResult	Loss
206.853	4.199	0.02	1199.532	67.0	3	10.64	5.32	24.8025	955.0	1.82	Outcome1	10.64	12.7	2.9185	Yes	n/a	-2.0555870139675303	n/a	n/a	n/a	ISITrial	Loss
211.065	2.918	0.013	1203.744	67.0	3	10.64	5.32	24.8025	955.0	1.82	Outcome1	10.64	12.7	2.9185	Yes	n/a	-2.0555870139675303	n/a	n/a	n/a	TrialHappPreview	Loss
214.008	4.028	0.025	1206.687	67.0	3	10.64	5.32	24.8025	955.0	1.82	Outcome1	10.64	12.7	2.9185	Yes	n/a	-2.0555870139675303	n/a	n/a	532.0	TrialHappiness	Loss
214.008	0.126	n/a	1207.424	67.0	3	10.64	5.32	24.8025	955.0	1.82	Outcome1	10.64	12.7	2.9185	Yes	n/a	-2.0555870139675303	n/a	n/a	532.0	TrialHappinessSliderResponse	Loss
218.036	3.674	4.028	1210.715	67.0	3	10.64	5.32	24.8025	955.0	1.82	Outcome1	10.64	12.7	2.9185	Yes	n/a	-2.0555870139675303	n/a	n/a	n/a	ISIRate	Loss
221.731	3.0	0.021	1214.41	68.0	3	-0.87	0.0	24.6937	955.0	0.66	Outcome2	1.3	-0.87	0.0	No	2.0	-2.17478293695734	0.668	222.399	n/a	GetAnswer	Mixed
222.416	4.0	0.017	1215.095	68.0	3	-0.87	0.0	24.6937	955.0	0.66	Outcome2	1.3	-0.87	0.0	No	n/a	-2.17478293695734	n/a	n/a	n/a	ShowChoice	Mixed
226.445	1.0	0.029	1219.124	68.0	3	-0.87	0.0	24.6937	955.0	0.66	Outcome2	1.3	-0.87	0.0	No	n/a	-2.17478293695734	n/a	n/a	n/a	ShowResult	Mixed
227.464	2.185	0.019	1220.143	68.0	3	-0.87	0.0	24.6937	955.0	0.66	Outcome2	1.3	-0.87	0.0	No	n/a	-2.17478293695734	n/a	n/a	n/a	ISITrial	Mixed
229.671	3.0	0.022	1222.35	69.0	3	6.09	3.04	25.4549	955.0	5.0	Outcome2	8.3	6.09	0.0	No	2.0	-2.2147036617591502	0.729	230.4	n/a	GetAnswer	Gain
230.423	4.0	0.023	1223.102	69.0	3	6.09	3.04	25.4549	955.0	5.0	Outcome2	8.3	6.09	0.0	No	n/a	-2.2147036617591502	n/a	n/a	n/a	ShowChoice	Gain
234.452	1.0	0.029	1227.131	69.0	3	6.09	3.04	25.4549	955.0	5.0	Outcome2	8.3	6.09	0.0	No	n/a	-2.2147036617591502	n/a	n/a	n/a	ShowResult	Gain
235.472	2.0	0.02	1228.151	69.0	3	6.09	3.04	25.4549	955.0	5.0	Outcome2	8.3	6.09	0.0	No	n/a	-2.2147036617591502	n/a	n/a	n/a	ISITrial	Gain
237.494	3.0	0.022	1230.173	70.0	3	0.0	0.0	25.4549	955.0	2.8	Certain	-6.14	7.5	3.65125	Yes	4.0	13.6421291053228	1.01	238.504	n/a	GetAnswer	Gain
238.531	4.0	0.027	1231.21	70.0	3	0.0	0.0	25.4549	955.0	2.8	Certain	-6.14	7.5	3.65125	Yes	n/a	13.6421291053228	n/a	n/a	n/a	ShowChoice	Gain
242.543	1.0	0.012	1235.222	70.0	3	0.0	0.0	25.4549	955.0	2.8	Certain	-6.14	7.5	3.65125	Yes	n/a	13.6421291053228	n/a	n/a	n/a	ShowResult	Gain
243.563	2.623	0.02	1236.242	70.0	3	0.0	0.0	25.4549	955.0	2.8	Certain	-6.14	7.5	3.65125	Yes	n/a	13.6421291053228	n/a	n/a	n/a	ISITrial	Gain
246.204	3.651	0.018	1238.883	70.0	3	0.0	0.0	25.4549	955.0	2.8	Certain	-6.14	7.5	3.65125	Yes	n/a	13.6421291053228	n/a	n/a	n/a	TrialHappPreview	Gain
249.882	4.028	0.027	1242.561	70.0	3	0.0	0.0	25.4549	955.0	2.8	Certain	-6.14	7.5	3.65125	Yes	n/a	13.6421291053228	n/a	n/a	472.0	TrialHappiness	Gain
249.882	0.356	n/a	1242.873	70.0	3	0.0	0.0	25.4549	955.0	2.8	Certain	-6.14	7.5	3.65125	Yes	n/a	13.6421291053228	n/a	n/a	472.0	TrialHappinessSliderResponse	Gain
253.91	6.605	4.028	1246.589	70.0	3	0.0	0.0	25.4549	955.0	2.8	Certain	-6.14	7.5	3.65125	Yes	n/a	13.6421291053228	n/a	n/a	n/a	ISIRate	Gain
260.547	3.0	0.032	1253.226	71.0	3	10.9	-2.12	26.8174	955.0	2.0	Outcome2	-4.24	10.9	0.0	No	2.0	15.1404303510759	0.912	261.459	n/a	GetAnswer	Loss
261.483	4.0	0.024	1254.162	71.0	3	10.9	-2.12	26.8174	955.0	2.0	Outcome2	-4.24	10.9	0.0	No	n/a	15.1404303510759	n/a	n/a	n/a	ShowChoice	Loss
265.512	1.0	0.029	1258.191	71.0	3	10.9	-2.12	26.8174	955.0	2.0	Outcome2	-4.24	10.9	0.0	No	n/a	15.1404303510759	n/a	n/a	n/a	ShowResult	Loss
266.531	5.499	0.019	1259.21	71.0	3	10.9	-2.12	26.8174	955.0	2.0	Outcome2	-4.24	10.9	0.0	No	n/a	15.1404303510759	n/a	n/a	n/a	ISITrial	Loss
272.048	3.0	0.018	1264.727	72.0	3	7.32	3.66	27.7324	955.0	3.6	Outcome1	7.32	9.9	3.0805	Yes	2.0	-2.58361645904115	0.929	272.977	n/a	GetAnswer	Gain
273.001	4.0	0.024	1265.68	72.0	3	7.32	3.66	27.7324	955.0	3.6	Outcome1	7.32	9.9	3.0805	Yes	n/a	-2.58361645904115	n/a	n/a	n/a	ShowChoice	Gain
277.029	1.0	0.028	1269.708	72.0	3	7.32	3.66	27.7324	955.0	3.6	Outcome1	7.32	9.9	3.0805	Yes	n/a	-2.58361645904115	n/a	n/a	n/a	ShowResult	Gain
278.049	5.672	0.02	1270.728	72.0	3	7.32	3.66	27.7324	955.0	3.6	Outcome1	7.32	9.9	3.0805	Yes	n/a	-2.58361645904115	n/a	n/a	n/a	ISITrial	Gain
283.75	3.08	0.029	1276.429	72.0	3	7.32	3.66	27.7324	955.0	3.6	Outcome1	7.32	9.9	3.0805	Yes	n/a	-2.58361645904115	n/a	n/a	n/a	TrialHappPreview	Gain
286.859	4.029	0.029	1279.538	72.0	3	7.32	3.66	27.7324	955.0	3.6	Outcome1	7.32	9.9	3.0805	Yes	n/a	-2.58361645904115	n/a	n/a	492.0	TrialHappiness	Gain
286.86	0.131	n/a	1279.889	72.0	3	7.32	3.66	27.7324	955.0	3.6	Outcome1	7.32	9.9	3.0805	Yes	n/a	-2.58361645904115	n/a	n/a	492.0	TrialHappinessSliderResponse	Gain
290.888	4.322	4.029	1283.567	72.0	3	7.32	3.66	27.7324	955.0	3.6	Outcome1	7.32	9.9	3.0805	Yes	n/a	-2.58361645904115	n/a	n/a	n/a	ISIRate	Gain
295.234	3.0	0.024	1287.913	73.0	3	-0.65	0.0	27.6512	955.0	1.2	Outcome2	1.9	-0.65	0.0	No	2.0	-2.5480369950924904	1.32	296.554	n/a	GetAnswer	Mixed
296.571	4.0	0.017	1289.25	73.0	3	-0.65	0.0	27.6512	955.0	1.2	Outcome2	1.9	-0.65	0.0	No	n/a	-2.5480369950924904	n/a	n/a	n/a	ShowChoice	Mixed
300.583	1.0	0.012	1293.262	73.0	3	-0.65	0.0	27.6512	955.0	1.2	Outcome2	1.9	-0.65	0.0	No	n/a	-2.5480369950924904	n/a	n/a	n/a	ShowResult	Mixed
301.603	4.616	0.02	1294.282	73.0	3	-0.65	0.0	27.6512	955.0	1.2	Outcome2	1.9	-0.65	0.0	No	n/a	-2.5480369950924904	n/a	n/a	n/a	ISITrial	Mixed
306.25	3.0	0.031	1298.929	74.0	3	9.5	1.0	28.8387	955.0	2.8	Outcome1	9.5	-6.92	3.05625	Yes	2.0	16.4190260475651	1.516	307.766	n/a	GetAnswer	Gain
307.788	4.0	0.022	1300.467	74.0	3	9.5	1.0	28.8387	955.0	2.8	Outcome1	9.5	-6.92	3.05625	Yes	n/a	16.4190260475651	n/a	n/a	n/a	ShowChoice	Gain
311.8	1.0	0.012	1304.479	74.0	3	9.5	1.0	28.8387	955.0	2.8	Outcome1	9.5	-6.92	3.05625	Yes	n/a	16.4190260475651	n/a	n/a	n/a	ShowResult	Gain
312.82	3.909	0.02	1305.499	74.0	3	9.5	1.0	28.8387	955.0	2.8	Outcome1	9.5	-6.92	3.05625	Yes	n/a	16.4190260475651	n/a	n/a	n/a	ISITrial	Gain
316.748	3.056	0.019	1309.427	74.0	3	9.5	1.0	28.8387	955.0	2.8	Outcome1	9.5	-6.92	3.05625	Yes	n/a	16.4190260475651	n/a	n/a	n/a	TrialHappPreview	Gain
319.824	4.012	0.02	1312.503	74.0	3	9.5	1.0	28.8387	955.0	2.8	Outcome1	9.5	-6.92	3.05625	Yes	n/a	16.4190260475651	n/a	n/a	512.0	TrialHappiness	Gain
319.825	0.0	n/a	1312.504	74.0	3	9.5	1.0	28.8387	955.0	2.8	Outcome1	9.5	-6.92	3.05625	Yes	n/a	16.4190260475651	n/a	n/a	512.0	TrialHappinessSliderResponse	Gain
323.836	4.225	4.012	1316.515	74.0	3	9.5	1.0	28.8387	955.0	2.8	Outcome1	9.5	-6.92	3.05625	Yes	n/a	16.4190260475651	n/a	n/a	n/a	ISIRate	Gain
328.082	3.0	0.021	1320.761	75.0	3	5.5	-3.0	29.5262	955.0	2.8	Outcome2	-11.1	5.5	0.0	No	2.0	16.603624009060002	1.129	329.211	n/a	GetAnswer	Gain
329.236	4.0	0.025	1321.915	75.0	3	5.5	-3.0	29.5262	955.0	2.8	Outcome2	-11.1	5.5	0.0	No	n/a	16.603624009060002	n/a	n/a	n/a	ShowChoice	Gain
333.248	1.0	0.012	1325.927	75.0	3	5.5	-3.0	29.5262	955.0	2.8	Outcome2	-11.1	5.5	0.0	No	n/a	16.603624009060002	n/a	n/a	n/a	ShowResult	Gain
334.267	4.979	0.019	1326.946	75.0	3	5.5	-3.0	29.5262	955.0	2.8	Outcome2	-11.1	5.5	0.0	No	n/a	16.603624009060002	n/a	n/a	n/a	ISITrial	Gain
339.266	3.0	0.02	1331.945	76.0	3	6.3	-2.0	30.3137	955.0	5.0	Outcome1	6.3	-10.81	0.0	No	2.0	17.1053227633069	1.227	340.493	n/a	GetAnswer	Gain
340.52	4.0	0.027	1333.199	76.0	3	6.3	-2.0	30.3137	955.0	5.0	Outcome1	6.3	-10.81	0.0	No	n/a	17.1053227633069	n/a	n/a	n/a	ShowChoice	Gain
344.532	1.0	0.012	1337.211	76.0	3	6.3	-2.0	30.3137	955.0	5.0	Outcome1	6.3	-10.81	0.0	No	n/a	17.1053227633069	n/a	n/a	n/a	ShowResult	Gain
345.551	3.931	0.019	1338.23	76.0	3	6.3	-2.0	30.3137	955.0	5.0	Outcome1	6.3	-10.81	0.0	No	n/a	17.1053227633069	n/a	n/a	n/a	ISITrial	Gain
349.513	3.0	0.031	1342.192	77.0	3	0.9	-8.0	30.4262	955.0	0.4	Outcome1	0.9	-16.71	4.0	Yes	2.0	17.6070215175538	1.668	351.181	n/a	GetAnswer	Mixed
351.202	4.0	0.021	1343.881	77.0	3	0.9	-8.0	30.4262	955.0	0.4	Outcome1	0.9	-16.71	4.0	Yes	n/a	17.6070215175538	n/a	n/a	n/a	ShowChoice	Mixed
355.214	1.0	0.012	1347.893	77.0	3	0.9	-8.0	30.4262	955.0	0.4	Outcome1	0.9	-16.71	4.0	Yes	n/a	17.6070215175538	n/a	n/a	n/a	ShowResult	Mixed
356.233	7.022	0.019	1348.912	77.0	3	0.9	-8.0	30.4262	955.0	0.4	Outcome1	0.9	-16.71	4.0	Yes	n/a	17.6070215175538	n/a	n/a	n/a	ISITrial	Mixed
363.271	4.0	0.016	1355.95	77.0	3	0.9	-8.0	30.4262	955.0	0.4	Outcome1	0.9	-16.71	4.0	Yes	n/a	17.6070215175538	n/a	n/a	n/a	TrialHappPreview	Mixed
367.3	4.012	0.029	1359.979	77.0	3	0.9	-8.0	30.4262	955.0	0.4	Outcome1	0.9	-16.71	4.0	Yes	n/a	17.6070215175538	n/a	n/a	524.0	TrialHappiness	Mixed
367.3	2.429	n/a	1360.527	77.0	3	0.9	-8.0	30.4262	955.0	0.4	Outcome1	0.9	-16.71	4.0	Yes	n/a	17.6070215175538	n/a	n/a	524.0	TrialHappinessSliderResponse	Mixed
371.312	8.0	4.012	1363.991	77.0	3	0.9	-8.0	30.4262	955.0	0.4	Outcome1	0.9	-16.71	4.0	Yes	n/a	17.6070215175538	n/a	n/a	n/a	ISIRate	Mixed
379.336	3.0	0.024	1372.015	78.0	3	7.3	-1.0	31.3387	955.0	2.48	Outcome1	7.3	-10.6	0.0	No	2.0	17.9048697621744	0.981	380.317	n/a	GetAnswer	Gain
380.339	4.0	0.022	1373.018	78.0	3	7.3	-1.0	31.3387	955.0	2.48	Outcome1	7.3	-10.6	0.0	No	n/a	17.9048697621744	n/a	n/a	n/a	ShowChoice	Gain
384.351	1.0	0.012	1377.03	78.0	3	7.3	-1.0	31.3387	955.0	2.48	Outcome1	7.3	-10.6	0.0	No	n/a	17.9048697621744	n/a	n/a	n/a	ShowResult	Gain
385.37	2.078	0.019	1378.049	78.0	3	7.3	-1.0	31.3387	955.0	2.48	Outcome1	7.3	-10.6	0.0	No	n/a	17.9048697621744	n/a	n/a	n/a	ISITrial	Gain
387.477	3.0	0.029	1380.156	79.0	3	3.1	-6.0	31.7262	955.0	0.52	Outcome1	3.1	-15.29	2.7295	Yes	2.0	18.3929784824462	0.96	388.437	n/a	GetAnswer	Mixed
388.463	4.0	0.026	1381.142	79.0	3	3.1	-6.0	31.7262	955.0	0.52	Outcome1	3.1	-15.29	2.7295	Yes	n/a	18.3929784824462	n/a	n/a	n/a	ShowChoice	Mixed
392.475	1.0	0.012	1385.154	79.0	3	3.1	-6.0	31.7262	955.0	0.52	Outcome1	3.1	-15.29	2.7295	Yes	n/a	18.3929784824462	n/a	n/a	n/a	ShowResult	Mixed
393.495	3.829	0.02	1386.174	79.0	3	3.1	-6.0	31.7262	955.0	0.52	Outcome1	3.1	-15.29	2.7295	Yes	n/a	18.3929784824462	n/a	n/a	n/a	ISITrial	Mixed
397.34	2.73	0.016	1390.019	79.0	3	3.1	-6.0	31.7262	955.0	0.52	Outcome1	3.1	-15.29	2.7295	Yes	n/a	18.3929784824462	n/a	n/a	n/a	TrialHappPreview	Mixed
400.098	4.012	0.028	1392.777	79.0	3	3.1	-6.0	31.7262	955.0	0.52	Outcome1	3.1	-15.29	2.7295	Yes	n/a	18.3929784824462	n/a	n/a	512.0	TrialHappiness	Mixed
400.098	0.0	n/a	1392.777	79.0	3	3.1	-6.0	31.7262	955.0	0.52	Outcome1	3.1	-15.29	2.7295	Yes	n/a	18.3929784824462	n/a	n/a	512.0	TrialHappinessSliderResponse	Mixed
404.11	2.918	4.012	1396.789	79.0	3	3.1	-6.0	31.7262	955.0	0.52	Outcome1	3.1	-15.29	2.7295	Yes	n/a	18.3929784824462	n/a	n/a	n/a	ISIRate	Mixed
407.052	3.0	0.024	1399.731	80.0	3	11.3	2.0	33.1387	955.0	2.48	Outcome1	11.3	-7.78	0.0	No	2.0	19.0849377123443	0.962	408.014	n/a	GetAnswer	Loss
408.038	4.0	0.024	1400.717	80.0	3	11.3	2.0	33.1387	955.0	2.48	Outcome1	11.3	-7.78	0.0	No	n/a	19.0849377123443	n/a	n/a	n/a	ShowChoice	Loss
412.05	1.0	0.012	1404.729	80.0	3	11.3	2.0	33.1387	955.0	2.48	Outcome1	11.3	-7.78	0.0	No	n/a	19.0849377123443	n/a	n/a	n/a	ShowResult	Loss
413.07	3.336	0.02	1405.749	80.0	3	11.3	2.0	33.1387	955.0	2.48	Outcome1	11.3	-7.78	0.0	No	n/a	19.0849377123443	n/a	n/a	n/a	ISITrial	Loss
416.43	3.0	0.024	1409.109	81.0	3	12.3	2.0	34.6762	955.0	5.0	Outcome2	-7.29	12.3	3.92375	Yes	2.0	19.5866364665912	0.797	417.227	n/a	GetAnswer	Loss
417.249	4.0	0.022	1409.928	81.0	3	12.3	2.0	34.6762	955.0	5.0	Outcome2	-7.29	12.3	3.92375	Yes	n/a	19.5866364665912	n/a	n/a	n/a	ShowChoice	Loss
421.261	1.0	0.012	1413.94	81.0	3	12.3	2.0	34.6762	955.0	5.0	Outcome2	-7.29	12.3	3.92375	Yes	n/a	19.5866364665912	n/a	n/a	n/a	ShowResult	Loss
422.281	3.919	0.02	1414.96	81.0	3	12.3	2.0	34.6762	955.0	5.0	Outcome2	-7.29	12.3	3.92375	Yes	n/a	19.5866364665912	n/a	n/a	n/a	ISITrial	Loss
426.226	3.924	0.026	1418.905	81.0	3	12.3	2.0	34.6762	955.0	5.0	Outcome2	-7.29	12.3	3.92375	Yes	n/a	19.5866364665912	n/a	n/a	n/a	TrialHappPreview	Loss
430.171	4.012	0.021	1422.85	81.0	3	12.3	2.0	34.6762	955.0	5.0	Outcome2	-7.29	12.3	3.92375	Yes	2{-2}	19.5866364665912	0.426	430.597	532.0	TrialHappiness	Loss
430.172	0.143	n/a	1423.134	81.0	3	12.3	2.0	34.6762	955.0	5.0	Outcome2	-7.29	12.3	3.92375	Yes	n/a	19.5866364665912	n/a	n/a	532.0	TrialHappinessSliderResponse	Loss
434.183	7.695	4.012	1426.862	81.0	3	12.3	2.0	34.6762	955.0	5.0	Outcome2	-7.29	12.3	3.92375	Yes	n/a	19.5866364665912	n/a	n/a	n/a	ISIRate	Loss
441.906	3.0	0.028	1434.585	n/a	3	n/a	n/a	n/a	n/a	n/a	n/a	n/a	n/a	n/a	n/a	n/a	n/a	n/a	n/a	n/a	CurrentEarnings	n/a
444.932	-0.001	0.026	1437.611	n/a	3	n/a	n/a	n/a	n/a	n/a	n/a	n/a	n/a	n/a	n/a	{SPACE}	n/a	95.028	539.96	n/a	Goodbye	n/a
