onset	duration	onset_delay	onset_unadjusted	trial_number	block	amount_change	certain_amount	current_amount	mood_target	multiplier	outcome	outcome1_amount	outcome2_amount	question_duration	rating	response	rpe	rt	rt_time	slider_response	trial_phase	trial_type
-30.964	-0.001	0.017	19.91	n/a	0	n/a	n/a	n/a	n/a	n/a	n/a	n/a	n/a	n/a	n/a	{SPACE}	n/a	3.385	-27.579	n/a	Welcome	n/a
-27.566	5.0	0.013	23.308	n/a	0	n/a	n/a	n/a	n/a	n/a	n/a	n/a	n/a	n/a	n/a	n/a	n/a	n/a	n/a	n/a	LifeHappyPreview	n/a
-22.535	1.495	0.031	28.339	n/a	0	n/a	n/a	n/a	n/a	n/a	n/a	n/a	n/a	n/a	n/a	n/a	n/a	n/a	n/a	872.0	LifeHappiness	n/a
-22.534	0.898	n/a	28.937	n/a	0	n/a	n/a	n/a	n/a	n/a	n/a	n/a	n/a	n/a	n/a	n/a	n/a	n/a	n/a	872.0	LifeHappinessSliderResponse	n/a
-17.436	4.0	0.015	33.438	n/a	0	n/a	n/a	n/a	n/a	n/a	n/a	n/a	n/a	n/a	n/a	n/a	n/a	n/a	n/a	n/a	BlockHappyPreview	n/a
-13.424	1.109	0.012	37.45	n/a	0	n/a	n/a	n/a	n/a	n/a	n/a	n/a	n/a	n/a	n/a	n/a	n/a	n/a	n/a	720.0	BlockStartHappiness	n/a
-13.423	0.579	n/a	37.981	n/a	0	n/a	n/a	n/a	n/a	n/a	n/a	n/a	n/a	n/a	n/a	n/a	n/a	n/a	n/a	720.0	BlockStartHappinessSliderResponse	n/a
-1.756	-0.001	0.015	49.118	n/a	0	n/a	n/a	n/a	n/a	n/a	n/a	n/a	n/a	n/a	n/a	5.0	n/a	1.742	-0.014	n/a	ScanWait	n/a
0.0	10.0	0.014	50.874	n/a	1	n/a	n/a	n/a	n/a	n/a	n/a	n/a	n/a	n/a	n/a	n/a	n/a	n/a	n/a	n/a	GetReady	n/a
10.03	3.0	0.03	60.904	1.0	1	12.5	4.26	11.5625	955.0	1.68	Outcome2	8.51	12.5	0.0	No	2.0	3.9920724801812	1.293	11.323	n/a	GetAnswer	Loss
11.35	4.0	0.027	62.224	1.0	1	12.5	4.26	11.5625	955.0	1.68	Outcome2	8.51	12.5	0.0	No	n/a	3.9920724801812	n/a	n/a	n/a	ShowChoice	Loss
15.362	1.0	0.012	66.236	1.0	1	12.5	4.26	11.5625	955.0	1.68	Outcome2	8.51	12.5	0.0	No	n/a	3.9920724801812	n/a	n/a	n/a	ShowResult	Loss
16.382	2.431	0.02	67.256	1.0	1	12.5	4.26	11.5625	955.0	1.68	Outcome2	8.51	12.5	0.0	No	n/a	3.9920724801812	n/a	n/a	n/a	ISITrial	Loss
18.84	3.0	0.027	69.714	2.0	1	2.72	1.36	11.9025	955.0	1.0	Outcome1	2.72	3.7	0.0	No	2.0	-0.9758399395998492	1.223	20.063	n/a	GetAnswer	Mixed
20.093	4.0	0.029	70.967	2.0	1	2.72	1.36	11.9025	955.0	1.0	Outcome1	2.72	3.7	0.0	No	n/a	-0.9758399395998492	n/a	n/a	n/a	ShowChoice	Mixed
24.105	1.0	0.012	74.979	2.0	1	2.72	1.36	11.9025	955.0	1.0	Outcome1	2.72	3.7	0.0	No	n/a	-0.9758399395998492	n/a	n/a	n/a	ShowResult	Mixed
25.125	4.568	0.02	75.999	2.0	1	2.72	1.36	11.9025	955.0	1.0	Outcome1	2.72	3.7	0.0	No	n/a	-0.9758399395998492	n/a	n/a	n/a	ISITrial	Mixed
29.722	3.0	0.029	80.596	3.0	1	11.5	3.49	13.34	955.0	2.8	Outcome1	11.5	6.98	2.868	Yes	2.0	4.524348810872031	1.258	30.98	n/a	GetAnswer	Loss
31.009	4.0	0.029	81.883	3.0	1	11.5	3.49	13.34	955.0	2.8	Outcome1	11.5	6.98	2.868	Yes	n/a	4.524348810872031	n/a	n/a	n/a	ShowChoice	Loss
35.021	1.0	0.012	85.895	3.0	1	11.5	3.49	13.34	955.0	2.8	Outcome1	11.5	6.98	2.868	Yes	n/a	4.524348810872031	n/a	n/a	n/a	ShowResult	Loss
36.041	3.243	0.02	86.915	3.0	1	11.5	3.49	13.34	955.0	2.8	Outcome1	11.5	6.98	2.868	Yes	n/a	4.524348810872031	n/a	n/a	n/a	ISITrial	Loss
39.301	2.868	0.017	90.175	3.0	1	11.5	3.49	13.34	955.0	2.8	Outcome1	11.5	6.98	2.868	Yes	n/a	4.524348810872031	n/a	n/a	n/a	TrialHappPreview	Loss
42.193	4.029	0.024	93.067	3.0	1	11.5	3.49	13.34	955.0	2.8	Outcome1	11.5	6.98	2.868	Yes	n/a	4.524348810872031	n/a	n/a	664.0	TrialHappiness	Loss
42.194	0.468	n/a	93.491	3.0	1	11.5	3.49	13.34	955.0	2.8	Outcome1	11.5	6.98	2.868	Yes	n/a	4.524348810872031	n/a	n/a	664.0	TrialHappinessSliderResponse	Loss
46.222	3.472	4.029	97.096	3.0	1	11.5	3.49	13.34	955.0	2.8	Outcome1	11.5	6.98	2.868	Yes	n/a	4.524348810872031	n/a	n/a	n/a	ISIRate	Loss
49.715	3.0	0.021	100.589	4.0	1	0.0	0.0	13.34	955.0	0.4	Certain	-2.84	2.9	0.0	No	4.0	5.741789354473389	2.942	52.657	n/a	GetAnswer	Mixed
52.674	4.0	0.017	103.548	4.0	1	0.0	0.0	13.34	955.0	0.4	Certain	-2.84	2.9	0.0	No	n/a	5.741789354473389	n/a	n/a	n/a	ShowChoice	Mixed
56.703	1.0	0.029	107.577	4.0	1	0.0	0.0	13.34	955.0	0.4	Certain	-2.84	2.9	0.0	No	n/a	5.741789354473389	n/a	n/a	n/a	ShowResult	Mixed
57.723	2.011	0.02	108.597	4.0	1	0.0	0.0	13.34	955.0	0.4	Certain	-2.84	2.9	0.0	No	n/a	5.741789354473389	n/a	n/a	n/a	ISITrial	Mixed
59.762	3.0	0.028	110.636	5.0	1	-0.9	-4.0	13.2275	955.0	0.52	Outcome1	-0.9	-6.97	2.5825	Yes	n/a	6.0713476783692	n/a	n/a	n/a	GetAnswer	Mixed
62.788	4.0	0.026	113.662	5.0	1	-0.9	-4.0	13.2275	955.0	0.52	Outcome1	-0.9	-6.97	2.5825	Yes	n/a	6.0713476783692	n/a	n/a	n/a	ShowChoice	Mixed
66.817	1.0	0.029	117.691	5.0	1	-0.9	-4.0	13.2275	955.0	0.52	Outcome1	-0.9	-6.97	2.5825	Yes	n/a	6.0713476783692	n/a	n/a	n/a	ShowResult	Mixed
67.836	5.129	0.019	118.71	5.0	1	-0.9	-4.0	13.2275	955.0	0.52	Outcome1	-0.9	-6.97	2.5825	Yes	n/a	6.0713476783692	n/a	n/a	n/a	ISITrial	Mixed
72.985	2.582	0.02	123.859	5.0	1	-0.9	-4.0	13.2275	955.0	0.52	Outcome1	-0.9	-6.97	2.5825	Yes	n/a	6.0713476783692	n/a	n/a	n/a	TrialHappPreview	Mixed
75.593	4.012	0.026	126.467	5.0	1	-0.9	-4.0	13.2275	955.0	0.52	Outcome1	-0.9	-6.97	2.5825	Yes	n/a	6.0713476783692	n/a	n/a	584.0	TrialHappiness	Mixed
75.594	0.616	n/a	127.096	5.0	1	-0.9	-4.0	13.2275	955.0	0.52	Outcome1	-0.9	-6.97	2.5825	Yes	n/a	6.0713476783692	n/a	n/a	584.0	TrialHappinessSliderResponse	Mixed
79.605	2.33	4.012	130.479	5.0	1	-0.9	-4.0	13.2275	955.0	0.52	Outcome1	-0.9	-6.97	2.5825	Yes	n/a	6.0713476783692	n/a	n/a	n/a	ISIRate	Mixed
81.962	3.0	0.027	132.836	6.0	1	-2.0	-2.0	12.9775	955.0	1.0	Certain	1.7	-6.06	0.0	No	4.0	7.7599093997735	1.79	83.752	n/a	GetAnswer	Mixed
83.768	4.0	0.016	134.642	6.0	1	-2.0	-2.0	12.9775	955.0	1.0	Certain	1.7	-6.06	0.0	No	n/a	7.7599093997735	n/a	n/a	n/a	ShowChoice	Mixed
87.796	1.0	0.028	138.67	6.0	1	-2.0	-2.0	12.9775	955.0	1.0	Certain	1.7	-6.06	0.0	No	n/a	7.7599093997735	n/a	n/a	n/a	ShowResult	Mixed
88.816	6.232	0.02	139.69	6.0	1	-2.0	-2.0	12.9775	955.0	1.0	Certain	1.7	-6.06	0.0	No	n/a	7.7599093997735	n/a	n/a	n/a	ISITrial	Mixed
95.068	3.0	0.02	145.942	7.0	1	4.1	0.0	13.49	955.0	1.5	Outcome1	4.1	-4.08	0.0	No	2.0	8.18006795016988	1.23	96.298	n/a	GetAnswer	Mixed
96.322	4.0	0.023	147.196	7.0	1	4.1	0.0	13.49	955.0	1.5	Outcome1	4.1	-4.08	0.0	No	n/a	8.18006795016988	n/a	n/a	n/a	ShowChoice	Mixed
100.351	1.0	0.029	151.225	7.0	1	4.1	0.0	13.49	955.0	1.5	Outcome1	4.1	-4.08	0.0	No	n/a	8.18006795016988	n/a	n/a	n/a	ShowResult	Mixed
101.37	2.305	0.019	152.244	7.0	1	4.1	0.0	13.49	955.0	1.5	Outcome1	4.1	-4.08	0.0	No	n/a	8.18006795016988	n/a	n/a	n/a	ISITrial	Mixed
103.694	3.0	0.019	154.568	8.0	1	-5.0	-5.0	12.865	955.0	0.66	Certain	-9.3	-0.7	3.1125	Yes	4.0	8.60022650056625	2.02	105.714	n/a	GetAnswer	Mixed
105.734	4.0	0.02	156.608	8.0	1	-5.0	-5.0	12.865	955.0	0.66	Certain	-9.3	-0.7	3.1125	Yes	n/a	8.60022650056625	n/a	n/a	n/a	ShowChoice	Mixed
109.762	1.0	0.028	160.636	8.0	1	-5.0	-5.0	12.865	955.0	0.66	Certain	-9.3	-0.7	3.1125	Yes	n/a	8.60022650056625	n/a	n/a	n/a	ShowResult	Mixed
110.782	3.506	0.02	161.656	8.0	1	-5.0	-5.0	12.865	955.0	0.66	Certain	-9.3	-0.7	3.1125	Yes	n/a	8.60022650056625	n/a	n/a	n/a	ISITrial	Mixed
114.309	3.112	0.021	165.183	8.0	1	-5.0	-5.0	12.865	955.0	0.66	Certain	-9.3	-0.7	3.1125	Yes	n/a	8.60022650056625	n/a	n/a	n/a	TrialHappPreview	Mixed
117.452	4.029	0.031	168.326	8.0	1	-5.0	-5.0	12.865	955.0	0.66	Certain	-9.3	-0.7	3.1125	Yes	n/a	8.60022650056625	n/a	n/a	532.0	TrialHappiness	Mixed
117.453	0.131	n/a	169.435	8.0	1	-5.0	-5.0	12.865	955.0	0.66	Certain	-9.3	-0.7	3.1125	Yes	n/a	8.60022650056625	n/a	n/a	532.0	TrialHappinessSliderResponse	Mixed
121.481	4.45	4.029	172.355	8.0	1	-5.0	-5.0	12.865	955.0	0.66	Certain	-9.3	-0.7	3.1125	Yes	n/a	8.60022650056625	n/a	n/a	n/a	ISIRate	Mixed
125.961	3.0	0.03	176.835	9.0	1	13.7	1.9	14.5775	955.0	3.16	Outcome1	13.7	3.8	0.0	No	2.0	9.903737259343153	0.995	126.956	n/a	GetAnswer	Loss
126.981	4.0	0.025	177.855	9.0	1	13.7	1.9	14.5775	955.0	3.16	Outcome1	13.7	3.8	0.0	No	n/a	9.903737259343153	n/a	n/a	n/a	ShowChoice	Loss
131.009	1.0	0.028	181.883	9.0	1	13.7	1.9	14.5775	955.0	3.16	Outcome1	13.7	3.8	0.0	No	n/a	9.903737259343153	n/a	n/a	n/a	ShowResult	Loss
132.029	2.0	0.02	182.903	9.0	1	13.7	1.9	14.5775	955.0	3.16	Outcome1	13.7	3.8	0.0	No	n/a	9.903737259343153	n/a	n/a	n/a	ISITrial	Loss
134.052	3.0	0.023	184.926	10.0	1	9.32	4.66	15.7425	955.0	2.48	Outcome1	9.32	11.3	4.0	Yes	2.0	-1.98301245753114	1.177	135.229	n/a	GetAnswer	Loss
135.255	4.0	0.026	186.129	10.0	1	9.32	4.66	15.7425	955.0	2.48	Outcome1	9.32	11.3	4.0	Yes	n/a	-1.98301245753114	n/a	n/a	n/a	ShowChoice	Loss
139.267	1.0	0.012	190.141	10.0	1	9.32	4.66	15.7425	955.0	2.48	Outcome1	9.32	11.3	4.0	Yes	n/a	-1.98301245753114	n/a	n/a	n/a	ShowResult	Loss
140.287	2.0	0.02	191.161	10.0	1	9.32	4.66	15.7425	955.0	2.48	Outcome1	9.32	11.3	4.0	Yes	n/a	-1.98301245753114	n/a	n/a	n/a	ISITrial	Loss
142.31	4.0	0.023	193.184	10.0	1	9.32	4.66	15.7425	955.0	2.48	Outcome1	9.32	11.3	4.0	Yes	n/a	-1.98301245753114	n/a	n/a	n/a	TrialHappPreview	Loss
146.339	4.028	0.029	197.213	10.0	1	9.32	4.66	15.7425	955.0	2.48	Outcome1	9.32	11.3	4.0	Yes	n/a	-1.98301245753114	n/a	n/a	832.0	TrialHappiness	Loss
146.339	0.807	n/a	197.531	10.0	1	9.32	4.66	15.7425	955.0	2.48	Outcome1	9.32	11.3	4.0	Yes	n/a	-1.98301245753114	n/a	n/a	832.0	TrialHappinessSliderResponse	Loss
150.367	8.0	4.028	201.241	10.0	1	9.32	4.66	15.7425	955.0	2.48	Outcome1	9.32	11.3	4.0	Yes	n/a	-1.98301245753114	n/a	n/a	n/a	ISIRate	Loss
158.391	3.0	0.024	209.265	11.0	1	7.9	1.06	16.73	955.0	3.6	Outcome1	7.9	2.13	0.0	No	2.0	5.76557191392978	0.936	159.327	n/a	GetAnswer	Gain
159.344	4.0	0.017	210.218	11.0	1	7.9	1.06	16.73	955.0	3.6	Outcome1	7.9	2.13	0.0	No	n/a	5.76557191392978	n/a	n/a	n/a	ShowChoice	Gain
163.356	1.0	0.012	214.23	11.0	1	7.9	1.06	16.73	955.0	3.6	Outcome1	7.9	2.13	0.0	No	n/a	5.76557191392978	n/a	n/a	n/a	ShowResult	Gain
164.376	3.324	0.02	215.25	11.0	1	7.9	1.06	16.73	955.0	3.6	Outcome1	7.9	2.13	0.0	No	n/a	5.76557191392978	n/a	n/a	n/a	ISITrial	Gain
167.719	3.0	0.019	218.593	12.0	1	12.9	3.5	18.3425	955.0	2.0	Outcome2	7.0	12.9	2.61875	Yes	2.0	5.9048697621744095	1.096	168.815	n/a	GetAnswer	Loss
168.839	4.0	0.024	219.713	12.0	1	12.9	3.5	18.3425	955.0	2.0	Outcome2	7.0	12.9	2.61875	Yes	n/a	5.9048697621744095	n/a	n/a	n/a	ShowChoice	Loss
172.852	1.0	0.013	223.726	12.0	1	12.9	3.5	18.3425	955.0	2.0	Outcome2	7.0	12.9	2.61875	Yes	n/a	5.9048697621744095	n/a	n/a	n/a	ShowResult	Loss
173.871	6.642	0.019	224.745	12.0	1	12.9	3.5	18.3425	955.0	2.0	Outcome2	7.0	12.9	2.61875	Yes	n/a	5.9048697621744095	n/a	n/a	n/a	ISITrial	Loss
180.541	2.619	0.028	231.415	12.0	1	12.9	3.5	18.3425	955.0	2.0	Outcome2	7.0	12.9	2.61875	Yes	n/a	5.9048697621744095	n/a	n/a	n/a	TrialHappPreview	Loss
183.183	4.028	0.023	234.057	12.0	1	12.9	3.5	18.3425	955.0	2.0	Outcome2	7.0	12.9	2.61875	Yes	n/a	5.9048697621744095	n/a	n/a	884.0	TrialHappiness	Loss
183.183	1.805	n/a	234.388	12.0	1	12.9	3.5	18.3425	955.0	2.0	Outcome2	7.0	12.9	2.61875	Yes	n/a	5.9048697621744095	n/a	n/a	884.0	TrialHappinessSliderResponse	Loss
187.211	2.475	4.028	238.085	12.0	1	12.9	3.5	18.3425	955.0	2.0	Outcome2	7.0	12.9	2.61875	Yes	n/a	5.9048697621744095	n/a	n/a	n/a	ISIRate	Loss
189.719	3.0	0.033	240.593	13.0	1	-0.3	-3.0	18.305	955.0	1.0	Outcome2	-5.46	-0.3	0.0	No	2.0	5.1608154020385095	2.707	192.426	n/a	GetAnswer	Mixed
192.444	4.0	0.018	243.318	13.0	1	-0.3	-3.0	18.305	955.0	1.0	Outcome2	-5.46	-0.3	0.0	No	n/a	5.1608154020385095	n/a	n/a	n/a	ShowChoice	Mixed
196.472	1.0	0.028	247.346	13.0	1	-0.3	-3.0	18.305	955.0	1.0	Outcome2	-5.46	-0.3	0.0	No	n/a	5.1608154020385095	n/a	n/a	n/a	ShowResult	Mixed
197.492	3.48	0.02	248.366	13.0	1	-0.3	-3.0	18.305	955.0	1.0	Outcome2	-5.46	-0.3	0.0	No	n/a	5.1608154020385095	n/a	n/a	n/a	ISITrial	Mixed
201.003	3.0	0.031	251.877	14.0	1	11.48	5.74	19.74	955.0	4.2	Outcome2	12.1	11.48	0.0	No	2.0	-0.624386560966402	1.26	202.263	n/a	GetAnswer	Loss
202.29	4.0	0.027	253.164	14.0	1	11.48	5.74	19.74	955.0	4.2	Outcome2	12.1	11.48	0.0	No	n/a	-0.624386560966402	n/a	n/a	n/a	ShowChoice	Loss
206.302	1.0	0.012	257.176	14.0	1	11.48	5.74	19.74	955.0	4.2	Outcome2	12.1	11.48	0.0	No	n/a	-0.624386560966402	n/a	n/a	n/a	ShowResult	Loss
207.322	5.019	0.02	258.196	14.0	1	11.48	5.74	19.74	955.0	4.2	Outcome2	12.1	11.48	0.0	No	n/a	-0.624386560966402	n/a	n/a	n/a	ISITrial	Loss
212.37	3.0	0.029	263.244	15.0	1	7.3	0.99	20.6525	955.0	2.48	Outcome1	7.3	1.98	3.3485	Yes	2.0	5.321630804077009	1.196	213.566	n/a	GetAnswer	Gain
213.59	4.0	0.024	264.464	15.0	1	7.3	0.99	20.6525	955.0	2.48	Outcome1	7.3	1.98	3.3485	Yes	n/a	5.321630804077009	n/a	n/a	n/a	ShowChoice	Gain
217.602	1.0	0.012	268.476	15.0	1	7.3	0.99	20.6525	955.0	2.48	Outcome1	7.3	1.98	3.3485	Yes	n/a	5.321630804077009	n/a	n/a	n/a	ShowResult	Gain
218.622	7.614	0.02	269.496	15.0	1	7.3	0.99	20.6525	955.0	2.48	Outcome1	7.3	1.98	3.3485	Yes	n/a	5.321630804077009	n/a	n/a	n/a	ISITrial	Gain
226.262	3.348	0.026	277.136	15.0	1	7.3	0.99	20.6525	955.0	2.48	Outcome1	7.3	1.98	3.3485	Yes	n/a	5.321630804077009	n/a	n/a	n/a	TrialHappPreview	Gain
229.639	4.012	0.029	280.513	15.0	1	7.3	0.99	20.6525	955.0	2.48	Outcome1	7.3	1.98	3.3485	Yes	n/a	5.321630804077009	n/a	n/a	952.0	TrialHappiness	Gain
229.639	1.347	n/a	280.943	15.0	1	7.3	0.99	20.6525	955.0	2.48	Outcome1	7.3	1.98	3.3485	Yes	n/a	5.321630804077009	n/a	n/a	952.0	TrialHappinessSliderResponse	Gain
233.651	5.394	4.012	284.525	15.0	1	7.3	0.99	20.6525	955.0	2.48	Outcome1	7.3	1.98	3.3485	Yes	n/a	5.321630804077009	n/a	n/a	n/a	ISIRate	Gain
239.067	3.0	0.022	289.941	16.0	1	-1.0	-1.0	20.5275	955.0	0.3	Certain	0.7	-3.55	0.0	No	4.0	4.246885617214041	2.63	241.697	n/a	GetAnswer	Mixed
241.708	4.0	0.011	292.582	16.0	1	-1.0	-1.0	20.5275	955.0	0.3	Certain	0.7	-3.55	0.0	No	n/a	4.246885617214041	n/a	n/a	n/a	ShowChoice	Mixed
245.72	1.0	0.012	296.594	16.0	1	-1.0	-1.0	20.5275	955.0	0.3	Certain	0.7	-3.55	0.0	No	n/a	4.246885617214041	n/a	n/a	n/a	ShowResult	Mixed
246.74	3.008	0.02	297.614	16.0	1	-1.0	-1.0	20.5275	955.0	0.3	Certain	0.7	-3.55	0.0	No	n/a	4.246885617214041	n/a	n/a	n/a	ISITrial	Mixed
249.766	3.0	0.018	300.64	17.0	1	5.5	0.62	21.215	955.0	2.8	Outcome2	1.25	5.5	3.0415	Yes	2.0	4.25028312570781	1.177	250.943	n/a	GetAnswer	Gain
250.969	4.0	0.026	301.843	17.0	1	5.5	0.62	21.215	955.0	2.8	Outcome2	1.25	5.5	3.0415	Yes	n/a	4.25028312570781	n/a	n/a	n/a	ShowChoice	Gain
254.981	1.0	0.012	305.855	17.0	1	5.5	0.62	21.215	955.0	2.8	Outcome2	1.25	5.5	3.0415	Yes	n/a	4.25028312570781	n/a	n/a	n/a	ShowResult	Gain
256.001	3.566	0.02	306.875	17.0	1	5.5	0.62	21.215	955.0	2.8	Outcome2	1.25	5.5	3.0415	Yes	n/a	4.25028312570781	n/a	n/a	n/a	ISITrial	Gain
259.578	3.042	0.011	310.452	17.0	1	5.5	0.62	21.215	955.0	2.8	Outcome2	1.25	5.5	3.0415	Yes	n/a	4.25028312570781	n/a	n/a	n/a	TrialHappPreview	Gain
262.638	4.012	0.018	313.512	17.0	1	5.5	0.62	21.215	955.0	2.8	Outcome2	1.25	5.5	3.0415	Yes	n/a	4.25028312570781	n/a	n/a	920.0	TrialHappiness	Gain
262.638	1.472	n/a	313.901	17.0	1	5.5	0.62	21.215	955.0	2.8	Outcome2	1.25	5.5	3.0415	Yes	n/a	4.25028312570781	n/a	n/a	920.0	TrialHappinessSliderResponse	Gain
266.65	4.166	4.012	317.524	17.0	1	5.5	0.62	21.215	955.0	2.8	Outcome2	1.25	5.5	3.0415	Yes	n/a	4.25028312570781	n/a	n/a	n/a	ISIRate	Gain
270.845	3.0	0.029	321.719	18.0	1	3.5	1.0	21.6525	955.0	0.82	Outcome1	3.5	-1.3	0.0	No	2.0	4.79728199320498	1.363	272.208	n/a	GetAnswer	Mixed
272.233	4.0	0.025	323.107	18.0	1	3.5	1.0	21.6525	955.0	0.82	Outcome1	3.5	-1.3	0.0	No	n/a	4.79728199320498	n/a	n/a	n/a	ShowChoice	Mixed
276.245	1.0	0.012	327.119	18.0	1	3.5	1.0	21.6525	955.0	0.82	Outcome1	3.5	-1.3	0.0	No	n/a	4.79728199320498	n/a	n/a	n/a	ShowResult	Mixed
277.265	6.787	0.02	328.139	18.0	1	3.5	1.0	21.6525	955.0	0.82	Outcome1	3.5	-1.3	0.0	No	n/a	4.79728199320498	n/a	n/a	n/a	ISITrial	Mixed
284.068	3.0	0.016	334.942	19.0	1	-1.0	-1.0	21.5275	955.0	0.82	Certain	1.5	-3.34	0.0	No	4.0	4.8369195922989805	1.823	285.891	n/a	GetAnswer	Mixed
285.907	4.0	0.016	336.781	19.0	1	-1.0	-1.0	21.5275	955.0	0.82	Certain	1.5	-3.34	0.0	No	n/a	4.8369195922989805	n/a	n/a	n/a	ShowChoice	Mixed
289.919	1.0	0.012	340.793	19.0	1	-1.0	-1.0	21.5275	955.0	0.82	Certain	1.5	-3.34	0.0	No	n/a	4.8369195922989805	n/a	n/a	n/a	ShowResult	Mixed
290.939	2.0	0.02	341.813	19.0	1	-1.0	-1.0	21.5275	955.0	0.82	Certain	1.5	-3.34	0.0	No	n/a	4.8369195922989805	n/a	n/a	n/a	ISITrial	Mixed
292.962	3.0	0.023	343.836	20.0	1	0.0	0.0	21.5275	955.0	0.3	Certain	2.7	-2.18	2.92125	Yes	4.0	4.876557191392981	1.873	294.835	n/a	GetAnswer	Mixed
294.851	4.0	0.016	345.725	20.0	1	0.0	0.0	21.5275	955.0	0.3	Certain	2.7	-2.18	2.92125	Yes	n/a	4.876557191392981	n/a	n/a	n/a	ShowChoice	Mixed
298.863	1.0	0.012	349.737	20.0	1	0.0	0.0	21.5275	955.0	0.3	Certain	2.7	-2.18	2.92125	Yes	n/a	4.876557191392981	n/a	n/a	n/a	ShowResult	Mixed
299.883	8.0	0.02	350.757	20.0	1	0.0	0.0	21.5275	955.0	0.3	Certain	2.7	-2.18	2.92125	Yes	n/a	4.876557191392981	n/a	n/a	n/a	ISITrial	Mixed
307.907	2.921	0.024	358.781	20.0	1	0.0	0.0	21.5275	955.0	0.3	Certain	2.7	-2.18	2.92125	Yes	n/a	4.876557191392981	n/a	n/a	n/a	TrialHappPreview	Mixed
310.849	4.029	0.021	361.723	20.0	1	0.0	0.0	21.5275	955.0	0.3	Certain	2.7	-2.18	2.92125	Yes	n/a	4.876557191392981	n/a	n/a	648.0	TrialHappiness	Mixed
310.849	0.428	n/a	362.253	20.0	1	0.0	0.0	21.5275	955.0	0.3	Certain	2.7	-2.18	2.92125	Yes	n/a	4.876557191392981	n/a	n/a	648.0	TrialHappinessSliderResponse	Mixed
314.878	3.685	4.029	365.752	20.0	1	0.0	0.0	21.5275	955.0	0.3	Certain	2.7	-2.18	2.92125	Yes	n/a	4.876557191392981	n/a	n/a	n/a	ISIRate	Mixed
318.589	3.0	0.026	369.463	21.0	1	-3.0	-3.0	21.1525	955.0	0.66	Certain	1.3	-8.24	0.0	No	4.0	9.536806342015849	1.583	320.172	n/a	GetAnswer	Mixed
320.194	4.0	0.022	371.068	21.0	1	-3.0	-3.0	21.1525	955.0	0.66	Certain	1.3	-8.24	0.0	No	n/a	9.536806342015849	n/a	n/a	n/a	ShowChoice	Mixed
324.206	1.0	0.012	375.08	21.0	1	-3.0	-3.0	21.1525	955.0	0.66	Certain	1.3	-8.24	0.0	No	n/a	9.536806342015849	n/a	n/a	n/a	ShowResult	Mixed
325.225	3.555	0.019	376.099	21.0	1	-3.0	-3.0	21.1525	955.0	0.66	Certain	1.3	-8.24	0.0	No	n/a	9.536806342015849	n/a	n/a	n/a	ISITrial	Mixed
328.803	3.0	0.023	379.677	22.0	1	-3.14	-2.0	20.76	955.0	0.2	Outcome1	-3.14	-1.5	3.2195	Yes	2.0	-1.63495658739147	1.779	330.582	n/a	GetAnswer	Mixed
330.608	4.0	0.026	381.482	22.0	1	-3.14	-2.0	20.76	955.0	0.2	Outcome1	-3.14	-1.5	3.2195	Yes	n/a	-1.63495658739147	n/a	n/a	n/a	ShowChoice	Mixed
334.62	1.0	0.012	385.494	22.0	1	-3.14	-2.0	20.76	955.0	0.2	Outcome1	-3.14	-1.5	3.2195	Yes	n/a	-1.63495658739147	n/a	n/a	n/a	ShowResult	Mixed
335.64	6.793	0.02	386.514	22.0	1	-3.14	-2.0	20.76	955.0	0.2	Outcome1	-3.14	-1.5	3.2195	Yes	n/a	-1.63495658739147	n/a	n/a	n/a	ISITrial	Mixed
342.444	3.22	0.011	393.318	22.0	1	-3.14	-2.0	20.76	955.0	0.2	Outcome1	-3.14	-1.5	3.2195	Yes	n/a	-1.63495658739147	n/a	n/a	n/a	TrialHappPreview	Mixed
345.687	4.012	0.023	396.561	22.0	1	-3.14	-2.0	20.76	955.0	0.2	Outcome1	-3.14	-1.5	3.2195	Yes	n/a	-1.63495658739147	n/a	n/a	552.0	TrialHappiness	Mixed
345.687	0.227	n/a	398.38	22.0	1	-3.14	-2.0	20.76	955.0	0.2	Outcome1	-3.14	-1.5	3.2195	Yes	n/a	-1.63495658739147	n/a	n/a	552.0	TrialHappinessSliderResponse	Mixed
349.699	4.878	4.012	400.573	22.0	1	-3.14	-2.0	20.76	955.0	0.2	Outcome1	-3.14	-1.5	3.2195	Yes	n/a	-1.63495658739147	n/a	n/a	n/a	ISIRate	Mixed
354.597	3.0	0.02	405.471	23.0	1	-4.0	-4.0	20.26	955.0	1.5	Certain	-9.76	2.1	0.0	No	4.0	11.8629671574179	2.1	356.697	n/a	GetAnswer	Mixed
356.72	4.0	0.023	407.594	23.0	1	-4.0	-4.0	20.26	955.0	1.5	Certain	-9.76	2.1	0.0	No	n/a	11.8629671574179	n/a	n/a	n/a	ShowChoice	Mixed
360.732	1.0	0.012	411.606	23.0	1	-4.0	-4.0	20.26	955.0	1.5	Certain	-9.76	2.1	0.0	No	n/a	11.8629671574179	n/a	n/a	n/a	ShowResult	Mixed
361.752	8.0	0.02	412.626	23.0	1	-4.0	-4.0	20.26	955.0	1.5	Certain	-9.76	2.1	0.0	No	n/a	11.8629671574179	n/a	n/a	n/a	ISITrial	Mixed
369.776	3.0	0.024	420.65	24.0	1	-3.0	-3.0	19.885	955.0	0.2	Certain	-9.82	2.5	3.255	Yes	4.0	12.3193657984145	2.043	371.819	n/a	GetAnswer	Mixed
371.832	4.0	0.013	422.706	24.0	1	-3.0	-3.0	19.885	955.0	0.2	Certain	-9.82	2.5	3.255	Yes	n/a	12.3193657984145	n/a	n/a	n/a	ShowChoice	Mixed
375.844	1.0	0.012	426.718	24.0	1	-3.0	-3.0	19.885	955.0	0.2	Certain	-9.82	2.5	3.255	Yes	n/a	12.3193657984145	n/a	n/a	n/a	ShowResult	Mixed
376.864	2.0	0.02	427.738	24.0	1	-3.0	-3.0	19.885	955.0	0.2	Certain	-9.82	2.5	3.255	Yes	n/a	12.3193657984145	n/a	n/a	n/a	ISITrial	Mixed
378.886	3.255	0.022	429.76	24.0	1	-3.0	-3.0	19.885	955.0	0.2	Certain	-9.82	2.5	3.255	Yes	n/a	12.3193657984145	n/a	n/a	n/a	TrialHappPreview	Mixed
382.163	4.012	0.022	433.037	24.0	1	-3.0	-3.0	19.885	955.0	0.2	Certain	-9.82	2.5	3.255	Yes	n/a	12.3193657984145	n/a	n/a	480.0	TrialHappiness	Mixed
382.163	0.207	n/a	433.506	24.0	1	-3.0	-3.0	19.885	955.0	0.2	Certain	-9.82	2.5	3.255	Yes	n/a	12.3193657984145	n/a	n/a	480.0	TrialHappinessSliderResponse	Mixed
386.175	5.02	4.012	437.049	24.0	1	-3.0	-3.0	19.885	955.0	0.2	Certain	-9.82	2.5	3.255	Yes	n/a	12.3193657984145	n/a	n/a	n/a	ISIRate	Mixed
391.223	3.0	0.028	442.097	25.0	1	4.68	2.34	20.47	955.0	2.22	Outcome1	4.68	7.1	0.0	No	2.0	-2.42176292940732	0.975	392.198	n/a	GetAnswer	Gain
392.21	4.0	0.012	443.084	25.0	1	4.68	2.34	20.47	955.0	2.22	Outcome1	4.68	7.1	0.0	No	n/a	-2.42176292940732	n/a	n/a	n/a	ShowChoice	Gain
396.238	1.0	0.028	447.112	25.0	1	4.68	2.34	20.47	955.0	2.22	Outcome1	4.68	7.1	0.0	No	n/a	-2.42176292940732	n/a	n/a	n/a	ShowResult	Gain
397.258	3.749	0.02	448.132	25.0	1	4.68	2.34	20.47	955.0	2.22	Outcome1	4.68	7.1	0.0	No	n/a	-2.42176292940732	n/a	n/a	n/a	ISITrial	Gain
401.036	3.0	0.029	451.91	26.0	1	9.23	4.62	21.6238	955.0	3.16	Outcome1	9.23	11.7	0.0	No	2.0	-2.46659116647792	0.943	401.979	n/a	GetAnswer	Loss
402.006	4.0	0.027	452.88	26.0	1	9.23	4.62	21.6238	955.0	3.16	Outcome1	9.23	11.7	0.0	No	n/a	-2.46659116647792	n/a	n/a	n/a	ShowChoice	Loss
406.018	1.0	0.012	456.892	26.0	1	9.23	4.62	21.6238	955.0	3.16	Outcome1	9.23	11.7	0.0	No	n/a	-2.46659116647792	n/a	n/a	n/a	ShowResult	Loss
407.037	7.834	0.019	457.911	26.0	1	9.23	4.62	21.6238	955.0	3.16	Outcome1	9.23	11.7	0.0	No	n/a	-2.46659116647792	n/a	n/a	n/a	ISITrial	Loss
414.894	3.0	0.023	465.768	27.0	1	8.5	1.0	22.6863	955.0	1.68	Outcome2	-6.57	8.5	2.54975	Yes	2.0	15.074745186863	2.191	417.085	n/a	GetAnswer	Gain
417.101	4.0	0.016	467.975	27.0	1	8.5	1.0	22.6863	955.0	1.68	Outcome2	-6.57	8.5	2.54975	Yes	n/a	15.074745186863	n/a	n/a	n/a	ShowChoice	Gain
421.113	1.0	0.012	471.987	27.0	1	8.5	1.0	22.6863	955.0	1.68	Outcome2	-6.57	8.5	2.54975	Yes	n/a	15.074745186863	n/a	n/a	n/a	ShowResult	Gain
422.133	4.225	0.02	473.007	27.0	1	8.5	1.0	22.6863	955.0	1.68	Outcome2	-6.57	8.5	2.54975	Yes	n/a	15.074745186863	n/a	n/a	n/a	ISITrial	Gain
426.379	2.55	0.021	477.253	27.0	1	8.5	1.0	22.6863	955.0	1.68	Outcome2	-6.57	8.5	2.54975	Yes	n/a	15.074745186863	n/a	n/a	n/a	TrialHappPreview	Gain
428.953	4.012	0.024	479.827	27.0	1	8.5	1.0	22.6863	955.0	1.68	Outcome2	-6.57	8.5	2.54975	Yes	n/a	15.074745186863	n/a	n/a	672.0	TrialHappiness	Gain
428.954	1.11	n/a	480.479	27.0	1	8.5	1.0	22.6863	955.0	1.68	Outcome2	-6.57	8.5	2.54975	Yes	n/a	15.074745186863	n/a	n/a	672.0	TrialHappinessSliderResponse	Gain
432.965	2.199	4.012	483.839	27.0	1	8.5	1.0	22.6863	955.0	1.68	Outcome2	-6.57	8.5	2.54975	Yes	n/a	15.074745186863	n/a	n/a	n/a	ISIRate	Gain
470.445	3.375	n/a	521.762	n/a	1	n/a	n/a	n/a	n/a	n/a	n/a	n/a	n/a	n/a	n/a	n/a	n/a	n/a	n/a	720.0	BlockStartHappinessSliderResponse	n/a
-42.862	-0.001	0.024	486.062	n/a	2	n/a	n/a	n/a	n/a	n/a	n/a	n/a	n/a	n/a	n/a	{SPACE}	n/a	31.227	-11.635	n/a	Rest	n/a
-11.618	4.0	0.017	517.306	n/a	2	n/a	n/a	n/a	n/a	n/a	n/a	n/a	n/a	n/a	n/a	n/a	n/a	n/a	n/a	n/a	BlockHappyPreview	n/a
-7.606	3.818	0.012	521.318	n/a	2	n/a	n/a	n/a	n/a	n/a	n/a	n/a	n/a	n/a	n/a	2{-2}2{-2}	n/a	3.818	-3.788	720.0	BlockStartHappiness	n/a
-1.738	-0.001	0.026	527.186	n/a	2	n/a	n/a	n/a	n/a	n/a	n/a	n/a	n/a	n/a	n/a	5.0	n/a	1.713	-0.025	n/a	ScanWait	n/a
0.0	10.0	0.024	528.924	n/a	2	n/a	n/a	n/a	n/a	n/a	n/a	n/a	n/a	n/a	n/a	n/a	n/a	n/a	n/a	n/a	GetReady	n/a
10.014	3.0	0.014	538.938	28.0	2	-0.28	-1.0	22.6513	70.0	0.4	Outcome1	-0.28	-2.92	0.0	No	2.0	2.64077853363568	2.246	12.26	n/a	GetAnswer	Mixed
12.287	4.0	0.027	541.211	28.0	2	-0.28	-1.0	22.6513	70.0	0.4	Outcome1	-0.28	-2.92	0.0	No	n/a	2.64077853363568	n/a	n/a	n/a	ShowChoice	Mixed
16.299	1.0	0.012	545.223	28.0	2	-0.28	-1.0	22.6513	70.0	0.4	Outcome1	-0.28	-2.92	0.0	No	n/a	2.64077853363568	n/a	n/a	n/a	ShowResult	Mixed
17.319	3.575	0.02	546.243	28.0	2	-0.28	-1.0	22.6513	70.0	0.4	Outcome1	-0.28	-2.92	0.0	No	n/a	2.64077853363568	n/a	n/a	n/a	ISITrial	Mixed
20.913	3.0	0.019	549.837	29.0	2	-5.89	0.0	21.915	70.0	3.6	Outcome2	5.9	-5.89	3.529	Yes	2.0	-11.7913832199546	1.77	22.683	n/a	GetAnswer	Gain
22.702	4.0	0.019	551.626	29.0	2	-5.89	0.0	21.915	70.0	3.6	Outcome2	5.9	-5.89	3.529	Yes	n/a	-11.7913832199546	n/a	n/a	n/a	ShowChoice	Gain
26.714	1.0	0.012	555.638	29.0	2	-5.89	0.0	21.915	70.0	3.6	Outcome2	5.9	-5.89	3.529	Yes	n/a	-11.7913832199546	n/a	n/a	n/a	ShowResult	Gain
27.734	3.955	0.02	556.658	29.0	2	-5.89	0.0	21.915	70.0	3.6	Outcome2	5.9	-5.89	3.529	Yes	n/a	-11.7913832199546	n/a	n/a	n/a	ISITrial	Gain
31.712	3.529	0.023	560.636	29.0	2	-5.89	0.0	21.915	70.0	3.6	Outcome2	5.9	-5.89	3.529	Yes	n/a	-11.7913832199546	n/a	n/a	n/a	TrialHappPreview	Gain
35.256	4.012	0.015	564.18	29.0	2	-5.89	0.0	21.915	70.0	3.6	Outcome2	5.9	-5.89	3.529	Yes	4{-4}4{-4}	-11.7913832199546	0.96	36.216	464.0	TrialHappiness	Gain
35.257	0.492	n/a	564.649	29.0	2	-5.89	0.0	21.915	70.0	3.6	Outcome2	5.9	-5.89	3.529	Yes	n/a	-11.7913832199546	n/a	n/a	464.0	TrialHappinessSliderResponse	Gain
39.268	6.116	4.012	568.192	29.0	2	-5.89	0.0	21.915	70.0	3.6	Outcome2	5.9	-5.89	3.529	Yes	n/a	-11.7913832199546	n/a	n/a	n/a	ISIRate	Gain
45.403	3.0	0.019	574.327	30.0	2	5.33	2.66	22.5812	70.0	2.8	Outcome2	13.5	5.33	0.0	No	2.0	-8.17460317460317	1.341	46.744	n/a	GetAnswer	Loss
46.757	4.0	0.013	575.681	30.0	2	5.33	2.66	22.5812	70.0	2.8	Outcome2	13.5	5.33	0.0	No	n/a	-8.17460317460317	n/a	n/a	n/a	ShowChoice	Loss
50.769	1.0	0.012	579.693	30.0	2	5.33	2.66	22.5812	70.0	2.8	Outcome2	13.5	5.33	0.0	No	n/a	-8.17460317460317	n/a	n/a	n/a	ShowResult	Loss
51.789	4.453	0.02	580.713	30.0	2	5.33	2.66	22.5812	70.0	2.8	Outcome2	13.5	5.33	0.0	No	n/a	-8.17460317460317	n/a	n/a	n/a	ISITrial	Loss
56.269	3.0	0.027	585.193	31.0	2	0.12	-1.0	22.5962	70.0	0.2	Outcome1	0.12	-1.64	2.50325	Yes	2.0	1.76077097505669	1.972	58.241	n/a	GetAnswer	Mixed
58.258	4.0	0.017	587.182	31.0	2	0.12	-1.0	22.5962	70.0	0.2	Outcome1	0.12	-1.64	2.50325	Yes	n/a	1.76077097505669	n/a	n/a	n/a	ShowChoice	Mixed
62.271	1.0	0.013	591.195	31.0	2	0.12	-1.0	22.5962	70.0	0.2	Outcome1	0.12	-1.64	2.50325	Yes	n/a	1.76077097505669	n/a	n/a	n/a	ShowResult	Mixed
63.29	4.786	0.019	592.214	31.0	2	0.12	-1.0	22.5962	70.0	0.2	Outcome1	0.12	-1.64	2.50325	Yes	n/a	1.76077097505669	n/a	n/a	n/a	ISITrial	Mixed
68.088	2.503	0.012	597.012	31.0	2	0.12	-1.0	22.5962	70.0	0.2	Outcome1	0.12	-1.64	2.50325	Yes	n/a	1.76077097505669	n/a	n/a	n/a	TrialHappPreview	Mixed
70.612	4.012	0.021	599.536	31.0	2	0.12	-1.0	22.5962	70.0	0.2	Outcome1	0.12	-1.64	2.50325	Yes	n/a	1.76077097505669	n/a	n/a	512.0	TrialHappiness	Mixed
70.613	0.0	n/a	599.537	31.0	2	0.12	-1.0	22.5962	70.0	0.2	Outcome1	0.12	-1.64	2.50325	Yes	n/a	1.76077097505669	n/a	n/a	512.0	TrialHappinessSliderResponse	Mixed
74.624	2.013	4.012	603.548	31.0	2	0.12	-1.0	22.5962	70.0	0.2	Outcome1	0.12	-1.64	2.50325	Yes	n/a	1.76077097505669	n/a	n/a	n/a	ISIRate	Mixed
76.664	3.0	0.027	605.588	32.0	2	2.58	1.0	22.9187	70.0	5.0	Outcome1	2.58	0.59	0.0	No	2.0	1.99300831443689	1.239	77.903	n/a	GetAnswer	Gain
77.917	4.0	0.014	606.841	32.0	2	2.58	1.0	22.9187	70.0	5.0	Outcome1	2.58	0.59	0.0	No	n/a	1.99300831443689	n/a	n/a	n/a	ShowChoice	Gain
81.93	1.0	0.013	610.854	32.0	2	2.58	1.0	22.9187	70.0	5.0	Outcome1	2.58	0.59	0.0	No	n/a	1.99300831443689	n/a	n/a	n/a	ShowResult	Gain
82.949	2.0	0.019	611.873	32.0	2	2.58	1.0	22.9187	70.0	5.0	Outcome1	2.58	0.59	0.0	No	n/a	1.99300831443689	n/a	n/a	n/a	ISITrial	Gain
84.972	3.0	0.023	613.896	33.0	2	-2.69	2.0	22.5825	70.0	3.16	Outcome1	-2.69	7.7	0.0	No	2.0	-10.3854875283447	2.303	87.275	n/a	GetAnswer	Gain
87.296	4.0	0.021	616.22	33.0	2	-2.69	2.0	22.5825	70.0	3.16	Outcome1	-2.69	7.7	0.0	No	n/a	-10.3854875283447	n/a	n/a	n/a	ShowChoice	Gain
91.308	1.0	0.012	620.232	33.0	2	-2.69	2.0	22.5825	70.0	3.16	Outcome1	-2.69	7.7	0.0	No	n/a	-10.3854875283447	n/a	n/a	n/a	ShowResult	Gain
92.327	5.099	0.019	621.251	33.0	2	-2.69	2.0	22.5825	70.0	3.16	Outcome1	-2.69	7.7	0.0	No	n/a	-10.3854875283447	n/a	n/a	n/a	ISITrial	Gain
97.443	3.0	0.017	626.367	34.0	2	2.41	1.2	22.8837	70.0	2.48	Outcome2	13.3	2.41	3.2315	Yes	2.0	-10.8866213151927	1.276	98.719	n/a	GetAnswer	Loss
98.747	4.0	0.028	627.671	34.0	2	2.41	1.2	22.8837	70.0	2.48	Outcome2	13.3	2.41	3.2315	Yes	n/a	-10.8866213151927	n/a	n/a	n/a	ShowChoice	Loss
102.759	1.0	0.012	631.683	34.0	2	2.41	1.2	22.8837	70.0	2.48	Outcome2	13.3	2.41	3.2315	Yes	n/a	-10.8866213151927	n/a	n/a	n/a	ShowResult	Loss
103.778	4.784	0.019	632.702	34.0	2	2.41	1.2	22.8837	70.0	2.48	Outcome2	13.3	2.41	3.2315	Yes	n/a	-10.8866213151927	n/a	n/a	n/a	ISITrial	Loss
108.576	3.232	0.014	637.5	34.0	2	2.41	1.2	22.8837	70.0	2.48	Outcome2	13.3	2.41	3.2315	Yes	n/a	-10.8866213151927	n/a	n/a	n/a	TrialHappPreview	Loss
111.836	4.012	0.028	640.76	34.0	2	2.41	1.2	22.8837	70.0	2.48	Outcome2	13.3	2.41	3.2315	Yes	n/a	-10.8866213151927	n/a	n/a	492.0	TrialHappiness	Loss
111.837	0.141	n/a	642.097	34.0	2	2.41	1.2	22.8837	70.0	2.48	Outcome2	13.3	2.41	3.2315	Yes	n/a	-10.8866213151927	n/a	n/a	492.0	TrialHappinessSliderResponse	Loss
115.848	4.926	4.012	644.772	34.0	2	2.41	1.2	22.8837	70.0	2.48	Outcome2	13.3	2.41	3.2315	Yes	n/a	-10.8866213151927	n/a	n/a	n/a	ISIRate	Loss
120.796	3.0	0.022	649.72	35.0	2	-1.35	-0.68	22.7149	70.0	3.16	Outcome1	-1.35	9.7	0.0	No	2.0	-11.047619047619	0.747	121.543	n/a	GetAnswer	Gain
121.565	4.0	0.022	650.489	35.0	2	-1.35	-0.68	22.7149	70.0	3.16	Outcome1	-1.35	9.7	0.0	No	n/a	-11.047619047619	n/a	n/a	n/a	ShowChoice	Gain
125.577	1.0	0.012	654.501	35.0	2	-1.35	-0.68	22.7149	70.0	3.16	Outcome1	-1.35	9.7	0.0	No	n/a	-11.047619047619	n/a	n/a	n/a	ShowResult	Gain
126.597	2.098	0.02	655.521	35.0	2	-1.35	-0.68	22.7149	70.0	3.16	Outcome1	-1.35	9.7	0.0	No	n/a	-11.047619047619	n/a	n/a	n/a	ISITrial	Gain
128.72	3.0	0.025	657.644	36.0	2	-1.0	-1.0	22.5899	70.0	1.5	Certain	0.02	-2.06	3.33575	Yes	4.0	2.07690854119426	2.776	131.496	n/a	GetAnswer	Mixed
131.512	4.0	0.016	660.436	36.0	2	-1.0	-1.0	22.5899	70.0	1.5	Certain	0.02	-2.06	3.33575	Yes	n/a	2.07690854119426	n/a	n/a	n/a	ShowChoice	Mixed
135.524	1.0	0.012	664.448	36.0	2	-1.0	-1.0	22.5899	70.0	1.5	Certain	0.02	-2.06	3.33575	Yes	n/a	2.07690854119426	n/a	n/a	n/a	ShowResult	Mixed
136.543	5.156	0.019	665.467	36.0	2	-1.0	-1.0	22.5899	70.0	1.5	Certain	0.02	-2.06	3.33575	Yes	n/a	2.07690854119426	n/a	n/a	n/a	ISITrial	Mixed
141.726	3.336	0.027	670.65	36.0	2	-1.0	-1.0	22.5899	70.0	1.5	Certain	0.02	-2.06	3.33575	Yes	n/a	2.07690854119426	n/a	n/a	n/a	TrialHappPreview	Mixed
145.086	4.012	0.024	674.01	36.0	2	-1.0	-1.0	22.5899	70.0	1.5	Certain	0.02	-2.06	3.33575	Yes	n/a	2.07690854119426	n/a	n/a	472.0	TrialHappiness	Mixed
145.086	0.363	n/a	674.511	36.0	2	-1.0	-1.0	22.5899	70.0	1.5	Certain	0.02	-2.06	3.33575	Yes	n/a	2.07690854119426	n/a	n/a	472.0	TrialHappinessSliderResponse	Mixed
149.098	5.343	4.012	678.022	36.0	2	-1.0	-1.0	22.5899	70.0	1.5	Certain	0.02	-2.06	3.33575	Yes	n/a	2.07690854119426	n/a	n/a	n/a	ISIRate	Mixed
154.464	3.0	0.023	683.388	37.0	2	-2.96	-1.48	22.2199	70.0	1.82	Outcome2	8.7	-2.96	0.0	No	2.0	-11.6643990929705	1.096	155.56	n/a	GetAnswer	Gain
155.584	4.0	0.024	684.508	37.0	2	-2.96	-1.48	22.2199	70.0	1.82	Outcome2	8.7	-2.96	0.0	No	n/a	-11.6643990929705	n/a	n/a	n/a	ShowChoice	Gain
159.596	1.0	0.012	688.52	37.0	2	-2.96	-1.48	22.2199	70.0	1.82	Outcome2	8.7	-2.96	0.0	No	n/a	-11.6643990929705	n/a	n/a	n/a	ShowResult	Gain
160.616	3.598	0.02	689.54	37.0	2	-2.96	-1.48	22.2199	70.0	1.82	Outcome2	8.7	-2.96	0.0	No	n/a	-11.6643990929705	n/a	n/a	n/a	ISITrial	Gain
164.243	3.0	0.029	693.167	38.0	2	-2.82	-1.41	21.8674	70.0	2.48	Outcome2	9.3	-2.82	0.0	No	2.0	-12.120181405895698	2.744	166.987	n/a	GetAnswer	Gain
167.001	4.0	0.014	695.925	38.0	2	-2.82	-1.41	21.8674	70.0	2.48	Outcome2	9.3	-2.82	0.0	No	n/a	-12.120181405895698	n/a	n/a	n/a	ShowChoice	Gain
171.013	1.0	0.012	699.937	38.0	2	-2.82	-1.41	21.8674	70.0	2.48	Outcome2	9.3	-2.82	0.0	No	n/a	-12.120181405895698	n/a	n/a	n/a	ShowResult	Gain
172.033	4.787	0.02	700.957	38.0	2	-2.82	-1.41	21.8674	70.0	2.48	Outcome2	9.3	-2.82	0.0	No	n/a	-12.120181405895698	n/a	n/a	n/a	ISITrial	Gain
176.848	3.0	0.028	705.772	39.0	2	0.0	0.0	21.8674	70.0	2.0	Certain	0.57	-1.54	2.86425	Yes	4.0	2.1114890400604702	2.131	178.979	n/a	GetAnswer	Mixed
179.004	4.0	0.025	707.928	39.0	2	0.0	0.0	21.8674	70.0	2.0	Certain	0.57	-1.54	2.86425	Yes	n/a	2.1114890400604702	n/a	n/a	n/a	ShowChoice	Mixed
183.033	1.0	0.029	711.957	39.0	2	0.0	0.0	21.8674	70.0	2.0	Certain	0.57	-1.54	2.86425	Yes	n/a	2.1114890400604702	n/a	n/a	n/a	ShowResult	Mixed
184.053	2.348	0.02	712.977	39.0	2	0.0	0.0	21.8674	70.0	2.0	Certain	0.57	-1.54	2.86425	Yes	n/a	2.1114890400604702	n/a	n/a	n/a	ISITrial	Mixed
186.426	2.864	0.025	715.35	39.0	2	0.0	0.0	21.8674	70.0	2.0	Certain	0.57	-1.54	2.86425	Yes	n/a	2.1114890400604702	n/a	n/a	n/a	TrialHappPreview	Mixed
189.318	4.012	0.028	718.242	39.0	2	0.0	0.0	21.8674	70.0	2.0	Certain	0.57	-1.54	2.86425	Yes	n/a	2.1114890400604702	n/a	n/a	448.0	TrialHappiness	Mixed
189.319	1.681	n/a	719.729	39.0	2	0.0	0.0	21.8674	70.0	2.0	Certain	0.57	-1.54	2.86425	Yes	n/a	2.1114890400604702	n/a	n/a	448.0	TrialHappinessSliderResponse	Mixed
193.33	3.457	4.012	722.254	39.0	2	0.0	0.0	21.8674	70.0	2.0	Certain	0.57	-1.54	2.86425	Yes	n/a	2.1114890400604702	n/a	n/a	n/a	ISIRate	Mixed
196.807	3.0	0.02	725.731	40.0	2	-4.52	2.0	21.3024	70.0	4.2	Outcome1	-4.52	8.1	0.0	No	2.0	-12.6235827664399	1.705	198.512	n/a	GetAnswer	Gain
198.529	4.0	0.017	727.453	40.0	2	-4.52	2.0	21.3024	70.0	4.2	Outcome1	-4.52	8.1	0.0	No	n/a	-12.6235827664399	n/a	n/a	n/a	ShowChoice	Gain
202.541	1.0	0.012	731.465	40.0	2	-4.52	2.0	21.3024	70.0	4.2	Outcome1	-4.52	8.1	0.0	No	n/a	-12.6235827664399	n/a	n/a	n/a	ShowResult	Gain
203.561	3.158	0.02	732.485	40.0	2	-4.52	2.0	21.3024	70.0	4.2	Outcome1	-4.52	8.1	0.0	No	n/a	-12.6235827664399	n/a	n/a	n/a	ISITrial	Gain
206.737	3.0	0.018	735.661	41.0	2	-6.35	0.0	20.5086	70.0	1.82	Outcome2	6.7	-6.35	4.0	Yes	2.0	-13.0521541950113	2.009	208.746	n/a	GetAnswer	Gain
208.76	4.0	0.014	737.684	41.0	2	-6.35	0.0	20.5086	70.0	1.82	Outcome2	6.7	-6.35	4.0	Yes	n/a	-13.0521541950113	n/a	n/a	n/a	ShowChoice	Gain
212.772	1.0	0.012	741.696	41.0	2	-6.35	0.0	20.5086	70.0	1.82	Outcome2	6.7	-6.35	4.0	Yes	n/a	-13.0521541950113	n/a	n/a	n/a	ShowResult	Gain
213.792	4.506	0.02	742.716	41.0	2	-6.35	0.0	20.5086	70.0	1.82	Outcome2	6.7	-6.35	4.0	Yes	n/a	-13.0521541950113	n/a	n/a	n/a	ISITrial	Gain
218.322	4.0	0.024	747.246	41.0	2	-6.35	0.0	20.5086	70.0	1.82	Outcome2	6.7	-6.35	4.0	Yes	n/a	-13.0521541950113	n/a	n/a	n/a	TrialHappPreview	Gain
222.351	4.012	0.029	751.275	41.0	2	-6.35	0.0	20.5086	70.0	1.82	Outcome2	6.7	-6.35	4.0	Yes	n/a	-13.0521541950113	n/a	n/a	376.0	TrialHappiness	Gain
222.351	0.434	n/a	751.699	41.0	2	-6.35	0.0	20.5086	70.0	1.82	Outcome2	6.7	-6.35	4.0	Yes	n/a	-13.0521541950113	n/a	n/a	376.0	TrialHappinessSliderResponse	Gain
226.363	8.0	4.012	755.287	41.0	2	-6.35	0.0	20.5086	70.0	1.82	Outcome2	6.7	-6.35	4.0	Yes	n/a	-13.0521541950113	n/a	n/a	n/a	ISIRate	Gain
234.387	3.0	0.024	763.311	42.0	2	1.23	0.0	20.6624	70.0	2.0	Outcome2	-0.6	1.23	0.0	No	2.0	1.83087679516251	2.269	236.656	n/a	GetAnswer	Gain
236.677	4.0	0.021	765.601	42.0	2	1.23	0.0	20.6624	70.0	2.0	Outcome2	-0.6	1.23	0.0	No	n/a	1.83087679516251	n/a	n/a	n/a	ShowChoice	Gain
240.689	1.0	0.012	769.613	42.0	2	1.23	0.0	20.6624	70.0	2.0	Outcome2	-0.6	1.23	0.0	No	n/a	1.83087679516251	n/a	n/a	n/a	ShowResult	Gain
241.709	6.248	0.02	770.633	42.0	2	1.23	0.0	20.6624	70.0	2.0	Outcome2	-0.6	1.23	0.0	No	n/a	1.83087679516251	n/a	n/a	n/a	ISITrial	Gain
247.978	3.0	0.021	776.902	43.0	2	-0.35	-0.35	20.6186	70.0	3.6	Certain	-0.7	11.9	2.77575	Yes	4.0	-12.6031746031746	2.955	250.933	n/a	GetAnswer	Loss
250.953	4.0	0.02	779.877	43.0	2	-0.35	-0.35	20.6186	70.0	3.6	Certain	-0.7	11.9	2.77575	Yes	n/a	-12.6031746031746	n/a	n/a	n/a	ShowChoice	Loss
254.965	1.0	0.012	783.889	43.0	2	-0.35	-0.35	20.6186	70.0	3.6	Certain	-0.7	11.9	2.77575	Yes	n/a	-12.6031746031746	n/a	n/a	n/a	ShowResult	Loss
255.985	4.596	0.02	784.909	43.0	2	-0.35	-0.35	20.6186	70.0	3.6	Certain	-0.7	11.9	2.77575	Yes	n/a	-12.6031746031746	n/a	n/a	n/a	ISITrial	Loss
260.599	2.776	0.018	789.523	43.0	2	-0.35	-0.35	20.6186	70.0	3.6	Certain	-0.7	11.9	2.77575	Yes	n/a	-12.6031746031746	n/a	n/a	n/a	TrialHappPreview	Loss
263.391	4.012	0.016	792.315	43.0	2	-0.35	-0.35	20.6186	70.0	3.6	Certain	-0.7	11.9	2.77575	Yes	n/a	-12.6031746031746	n/a	n/a	512.0	TrialHappiness	Loss
263.391	0.0	n/a	792.315	43.0	2	-0.35	-0.35	20.6186	70.0	3.6	Certain	-0.7	11.9	2.77575	Yes	n/a	-12.6031746031746	n/a	n/a	512.0	TrialHappinessSliderResponse	Loss
267.403	3.103	4.012	796.327	43.0	2	-0.35	-0.35	20.6186	70.0	3.6	Certain	-0.7	11.9	2.77575	Yes	n/a	-12.6031746031746	n/a	n/a	n/a	ISIRate	Loss
270.529	3.0	0.023	799.453	44.0	2	-1.0	-1.0	20.4936	70.0	0.3	Certain	-2.76	-0.32	0.0	No	4.0	2.44123204837491	1.973	272.502	n/a	GetAnswer	Mixed
272.518	4.0	0.016	801.442	44.0	2	-1.0	-1.0	20.4936	70.0	0.3	Certain	-2.76	-0.32	0.0	No	n/a	2.44123204837491	n/a	n/a	n/a	ShowChoice	Mixed
276.53	1.0	0.012	805.454	44.0	2	-1.0	-1.0	20.4936	70.0	0.3	Certain	-2.76	-0.32	0.0	No	n/a	2.44123204837491	n/a	n/a	n/a	ShowResult	Mixed
277.55	2.42	0.02	806.474	44.0	2	-1.0	-1.0	20.4936	70.0	0.3	Certain	-2.76	-0.32	0.0	No	n/a	2.44123204837491	n/a	n/a	n/a	ISITrial	Mixed
279.99	3.0	0.02	808.914	45.0	2	2.28	1.0	20.7786	70.0	2.22	Outcome1	2.28	-0.2	0.0	No	2.0	2.48299319727891	1.759	281.749	n/a	GetAnswer	Gain
281.762	4.0	0.013	810.686	45.0	2	2.28	1.0	20.7786	70.0	2.22	Outcome1	2.28	-0.2	0.0	No	n/a	2.48299319727891	n/a	n/a	n/a	ShowChoice	Gain
285.774	1.0	0.012	814.698	45.0	2	2.28	1.0	20.7786	70.0	2.22	Outcome1	2.28	-0.2	0.0	No	n/a	2.48299319727891	n/a	n/a	n/a	ShowResult	Gain
286.794	3.144	0.02	815.718	45.0	2	2.28	1.0	20.7786	70.0	2.22	Outcome1	2.28	-0.2	0.0	No	n/a	2.48299319727891	n/a	n/a	n/a	ISITrial	Gain
289.954	3.0	0.016	818.878	46.0	2	1.27	0.0	20.9374	70.0	2.22	Outcome2	-1.25	1.27	3.84125	Yes	2.0	2.52475434618292	1.965	291.919	n/a	GetAnswer	Gain
291.943	4.0	0.023	820.867	46.0	2	1.27	0.0	20.9374	70.0	2.22	Outcome2	-1.25	1.27	3.84125	Yes	n/a	2.52475434618292	n/a	n/a	n/a	ShowChoice	Gain
295.955	1.0	0.012	824.879	46.0	2	1.27	0.0	20.9374	70.0	2.22	Outcome2	-1.25	1.27	3.84125	Yes	n/a	2.52475434618292	n/a	n/a	n/a	ShowResult	Gain
296.975	2.246	0.02	825.899	46.0	2	1.27	0.0	20.9374	70.0	2.22	Outcome2	-1.25	1.27	3.84125	Yes	n/a	2.52475434618292	n/a	n/a	n/a	ISITrial	Gain
299.231	3.841	0.01	828.155	46.0	2	1.27	0.0	20.9374	70.0	2.22	Outcome2	-1.25	1.27	3.84125	Yes	n/a	2.52475434618292	n/a	n/a	n/a	TrialHappPreview	Gain
303.093	4.012	0.021	832.017	46.0	2	1.27	0.0	20.9374	70.0	2.22	Outcome2	-1.25	1.27	3.84125	Yes	n/a	2.52475434618292	n/a	n/a	568.0	TrialHappiness	Gain
303.094	2.119	n/a	832.513	46.0	2	1.27	0.0	20.9374	70.0	2.22	Outcome2	-1.25	1.27	3.84125	Yes	n/a	2.52475434618292	n/a	n/a	568.0	TrialHappinessSliderResponse	Gain
307.105	7.365	4.012	836.029	46.0	2	1.27	0.0	20.9374	70.0	2.22	Outcome2	-1.25	1.27	3.84125	Yes	n/a	2.52475434618292	n/a	n/a	n/a	ISIRate	Gain
314.494	3.0	0.024	843.418	47.0	2	-3.0	-3.0	20.5624	70.0	2.48	Certain	-12.42	5.3	0.0	No	4.0	-17.718820861678	1.939	316.433	n/a	GetAnswer	Gain
316.45	4.0	0.017	845.374	47.0	2	-3.0	-3.0	20.5624	70.0	2.48	Certain	-12.42	5.3	0.0	No	n/a	-17.718820861678	n/a	n/a	n/a	ShowChoice	Gain
320.462	1.0	0.012	849.386	47.0	2	-3.0	-3.0	20.5624	70.0	2.48	Certain	-12.42	5.3	0.0	No	n/a	-17.718820861678	n/a	n/a	n/a	ShowResult	Gain
321.481	2.0	0.019	850.405	47.0	2	-3.0	-3.0	20.5624	70.0	2.48	Certain	-12.42	5.3	0.0	No	n/a	-17.718820861678	n/a	n/a	n/a	ISITrial	Gain
323.504	3.0	0.023	852.428	48.0	2	-7.78	1.0	19.5899	70.0	1.68	Outcome2	10.5	-7.78	2.83175	Yes	n/a	-18.2834467120181	n/a	n/a	n/a	GetAnswer	Loss
326.53	4.0	0.026	855.454	48.0	2	-7.78	1.0	19.5899	70.0	1.68	Outcome2	10.5	-7.78	2.83175	Yes	n/a	-18.2834467120181	n/a	n/a	n/a	ShowChoice	Loss
330.542	1.0	0.012	859.466	48.0	2	-7.78	1.0	19.5899	70.0	1.68	Outcome2	10.5	-7.78	2.83175	Yes	n/a	-18.2834467120181	n/a	n/a	n/a	ShowResult	Loss
331.562	3.692	0.02	860.486	48.0	2	-7.78	1.0	19.5899	70.0	1.68	Outcome2	10.5	-7.78	2.83175	Yes	n/a	-18.2834467120181	n/a	n/a	n/a	ISITrial	Loss
335.273	2.832	0.019	864.197	48.0	2	-7.78	1.0	19.5899	70.0	1.68	Outcome2	10.5	-7.78	2.83175	Yes	n/a	-18.2834467120181	n/a	n/a	n/a	TrialHappPreview	Loss
338.131	4.012	0.026	867.055	48.0	2	-7.78	1.0	19.5899	70.0	1.68	Outcome2	10.5	-7.78	2.83175	Yes	n/a	-18.2834467120181	n/a	n/a	448.0	TrialHappiness	Loss
338.132	1.155	n/a	867.597	48.0	2	-7.78	1.0	19.5899	70.0	1.68	Outcome2	10.5	-7.78	2.83175	Yes	n/a	-18.2834467120181	n/a	n/a	448.0	TrialHappinessSliderResponse	Loss
342.143	3.327	4.012	871.067	48.0	2	-7.78	1.0	19.5899	70.0	1.68	Outcome2	10.5	-7.78	2.83175	Yes	n/a	-18.2834467120181	n/a	n/a	n/a	ISIRate	Loss
345.487	3.0	0.017	874.411	49.0	2	-6.11	2.0	18.8261	70.0	1.82	Outcome2	10.7	-6.11	0.0	No	2.0	-16.807256235827698	2.381	347.868	n/a	GetAnswer	Loss
347.894	4.0	0.026	876.818	49.0	2	-6.11	2.0	18.8261	70.0	1.82	Outcome2	10.7	-6.11	0.0	No	n/a	-16.807256235827698	n/a	n/a	n/a	ShowChoice	Loss
351.906	1.0	0.012	880.83	49.0	2	-6.11	2.0	18.8261	70.0	1.82	Outcome2	10.7	-6.11	0.0	No	n/a	-16.807256235827698	n/a	n/a	n/a	ShowResult	Loss
352.926	8.0	0.02	881.85	49.0	2	-6.11	2.0	18.8261	70.0	1.82	Outcome2	10.7	-6.11	0.0	No	n/a	-16.807256235827698	n/a	n/a	n/a	ISITrial	Loss
360.95	3.0	0.024	889.874	50.0	2	2.0	2.0	19.0761	70.0	2.22	Certain	11.1	-6.14	3.54725	Yes	4.0	-17.2358276643991	2.473	363.423	n/a	GetAnswer	Loss
363.441	4.0	0.018	892.365	50.0	2	2.0	2.0	19.0761	70.0	2.22	Certain	11.1	-6.14	3.54725	Yes	n/a	-17.2358276643991	n/a	n/a	n/a	ShowChoice	Loss
367.453	1.0	0.012	896.377	50.0	2	2.0	2.0	19.0761	70.0	2.22	Certain	11.1	-6.14	3.54725	Yes	n/a	-17.2358276643991	n/a	n/a	n/a	ShowResult	Loss
368.472	7.537	0.019	897.396	50.0	2	2.0	2.0	19.0761	70.0	2.22	Certain	11.1	-6.14	3.54725	Yes	n/a	-17.2358276643991	n/a	n/a	n/a	ISITrial	Loss
376.028	3.547	0.019	904.952	50.0	2	2.0	2.0	19.0761	70.0	2.22	Certain	11.1	-6.14	3.54725	Yes	n/a	-17.2358276643991	n/a	n/a	n/a	TrialHappPreview	Loss
379.589	4.012	0.014	908.513	50.0	2	2.0	2.0	19.0761	70.0	2.22	Certain	11.1	-6.14	3.54725	Yes	4{-4}	-17.2358276643991	0.608	380.197	408.0	TrialHappiness	Loss
379.59	0.358	n/a	908.764	50.0	2	2.0	2.0	19.0761	70.0	2.22	Certain	11.1	-6.14	3.54725	Yes	n/a	-17.2358276643991	n/a	n/a	408.0	TrialHappinessSliderResponse	Loss
383.601	6.189	4.012	912.525	50.0	2	2.0	2.0	19.0761	70.0	2.22	Certain	11.1	-6.14	3.54725	Yes	n/a	-17.2358276643991	n/a	n/a	n/a	ISIRate	Loss
389.82	3.0	0.03	918.744	51.0	2	-4.0	-4.0	18.5761	70.0	1.2	Certain	3.9	-13.08	0.0	No	4.0	-16.984126984127	1.736	391.556	n/a	GetAnswer	Mixed
391.575	4.0	0.019	920.499	51.0	2	-4.0	-4.0	18.5761	70.0	1.2	Certain	3.9	-13.08	0.0	No	n/a	-16.984126984127	n/a	n/a	n/a	ShowChoice	Mixed
395.587	1.0	0.012	924.511	51.0	2	-4.0	-4.0	18.5761	70.0	1.2	Certain	3.9	-13.08	0.0	No	n/a	-16.984126984127	n/a	n/a	n/a	ShowResult	Mixed
396.607	5.508	0.02	925.531	51.0	2	-4.0	-4.0	18.5761	70.0	1.2	Certain	3.9	-13.08	0.0	No	n/a	-16.984126984127	n/a	n/a	n/a	ISITrial	Mixed
402.14	3.0	0.025	931.064	52.0	2	-8.0	-8.0	17.5761	70.0	0.4	Certain	0.9	-16.47	0.0	No	4.0	-17.367346938775498	2.896	405.036	n/a	GetAnswer	Mixed
405.049	4.0	0.013	933.973	52.0	2	-8.0	-8.0	17.5761	70.0	0.4	Certain	0.9	-16.47	0.0	No	n/a	-17.367346938775498	n/a	n/a	n/a	ShowChoice	Mixed
409.061	1.0	0.012	937.985	52.0	2	-8.0	-8.0	17.5761	70.0	0.4	Certain	0.9	-16.47	0.0	No	n/a	-17.367346938775498	n/a	n/a	n/a	ShowResult	Mixed
410.081	5.913	0.02	939.005	52.0	2	-8.0	-8.0	17.5761	70.0	0.4	Certain	0.9	-16.47	0.0	No	n/a	-17.367346938775498	n/a	n/a	n/a	ISITrial	Mixed
416.015	3.0	0.021	944.939	53.0	2	-13.25	-4.0	15.9199	70.0	1.68	Outcome1	-13.25	4.5	2.99675	Yes	n/a	-17.750566893424	n/a	n/a	n/a	GetAnswer	Gain
419.041	4.0	0.026	947.965	53.0	2	-13.25	-4.0	15.9199	70.0	1.68	Outcome1	-13.25	4.5	2.99675	Yes	n/a	-17.750566893424	n/a	n/a	n/a	ShowChoice	Gain
423.053	1.0	0.012	951.977	53.0	2	-13.25	-4.0	15.9199	70.0	1.68	Outcome1	-13.25	4.5	2.99675	Yes	n/a	-17.750566893424	n/a	n/a	n/a	ShowResult	Gain
424.073	3.66	0.02	952.997	53.0	2	-13.25	-4.0	15.9199	70.0	1.68	Outcome1	-13.25	4.5	2.99675	Yes	n/a	-17.750566893424	n/a	n/a	n/a	ISITrial	Gain
427.75	2.997	0.017	956.674	53.0	2	-13.25	-4.0	15.9199	70.0	1.68	Outcome1	-13.25	4.5	2.99675	Yes	n/a	-17.750566893424	n/a	n/a	n/a	TrialHappPreview	Gain
430.776	4.012	0.029	959.7	53.0	2	-13.25	-4.0	15.9199	70.0	1.68	Outcome1	-13.25	4.5	2.99675	Yes	n/a	-17.750566893424	n/a	n/a	376.0	TrialHappiness	Gain
430.777	0.426	n/a	960.016	53.0	2	-13.25	-4.0	15.9199	70.0	1.68	Outcome1	-13.25	4.5	2.99675	Yes	n/a	-17.750566893424	n/a	n/a	376.0	TrialHappinessSliderResponse	Gain
434.788	3.987	4.012	963.712	53.0	2	-13.25	-4.0	15.9199	70.0	1.68	Outcome1	-13.25	4.5	2.99675	Yes	n/a	-17.750566893424	n/a	n/a	n/a	ISIRate	Gain
438.8	3.0	0.025	967.724	54.0	2	-1.0	-1.0	15.7949	70.0	0.82	Certain	-0.12	-2.4	0.0	No	4.0	2.27532123960695	2.372	441.172	n/a	GetAnswer	Mixed
441.191	4.0	0.018	970.115	54.0	2	-1.0	-1.0	15.7949	70.0	0.82	Certain	-0.12	-2.4	0.0	No	n/a	2.27532123960695	n/a	n/a	n/a	ShowChoice	Mixed
445.203	1.0	0.012	974.127	54.0	2	-1.0	-1.0	15.7949	70.0	0.82	Certain	-0.12	-2.4	0.0	No	n/a	2.27532123960695	n/a	n/a	n/a	ShowResult	Mixed
446.222	8.0	0.019	975.146	54.0	2	-1.0	-1.0	15.7949	70.0	0.82	Certain	-0.12	-2.4	0.0	No	n/a	2.27532123960695	n/a	n/a	n/a	ISITrial	Mixed
494.585	0.292	n/a	1024.125	n/a	2	n/a	n/a	n/a	n/a	n/a	n/a	n/a	n/a	n/a	n/a	n/a	n/a	n/a	n/a	584.0	BlockStartHappinessSliderResponse	n/a
-49.165	-0.001	0.024	983.17	n/a	3	n/a	n/a	n/a	n/a	n/a	n/a	n/a	n/a	n/a	n/a	{SPACE}	n/a	36.304	-12.861	n/a	Rest	n/a
-12.839	4.0	0.022	1019.496	n/a	3	n/a	n/a	n/a	n/a	n/a	n/a	n/a	n/a	n/a	n/a	n/a	n/a	n/a	n/a	n/a	BlockHappyPreview	n/a
-8.827	0.908	0.012	1023.508	n/a	3	n/a	n/a	n/a	n/a	n/a	n/a	n/a	n/a	n/a	n/a	n/a	n/a	n/a	n/a	584.0	BlockStartHappiness	n/a
-2.725	-0.001	0.024	1029.61	n/a	3	n/a	n/a	n/a	n/a	n/a	n/a	n/a	n/a	n/a	n/a	5.0	n/a	2.702	-0.023	n/a	ScanWait	n/a
0.0	10.0	0.023	1032.335	n/a	3	n/a	n/a	n/a	n/a	n/a	n/a	n/a	n/a	n/a	n/a	n/a	n/a	n/a	n/a	n/a	GetReady	n/a
10.03	3.0	0.03	1042.365	55.0	3	4.99	2.5	16.4187	955.0	1.68	Outcome1	4.99	6.5	2.53325	Yes	2.0	-1.50556813892035	1.075	11.105	n/a	GetAnswer	Gain
11.133	4.0	0.028	1043.468	55.0	3	4.99	2.5	16.4187	955.0	1.68	Outcome1	4.99	6.5	2.53325	Yes	n/a	-1.50556813892035	n/a	n/a	n/a	ShowChoice	Gain
15.162	1.0	0.029	1047.497	55.0	3	4.99	2.5	16.4187	955.0	1.68	Outcome1	4.99	6.5	2.53325	Yes	n/a	-1.50556813892035	n/a	n/a	n/a	ShowResult	Gain
16.181	7.709	0.019	1048.516	55.0	3	4.99	2.5	16.4187	955.0	1.68	Outcome1	4.99	6.5	2.53325	Yes	n/a	-1.50556813892035	n/a	n/a	n/a	ISITrial	Gain
23.905	2.533	0.015	1056.24	55.0	3	4.99	2.5	16.4187	955.0	1.68	Outcome1	4.99	6.5	2.53325	Yes	n/a	-1.50556813892035	n/a	n/a	n/a	TrialHappPreview	Gain
26.462	4.029	0.024	1058.797	55.0	3	4.99	2.5	16.4187	955.0	1.68	Outcome1	4.99	6.5	2.53325	Yes	n/a	-1.50556813892035	n/a	n/a	584.0	TrialHappiness	Gain
26.463	2.448	n/a	1059.299	55.0	3	4.99	2.5	16.4187	955.0	1.68	Outcome1	4.99	6.5	2.53325	Yes	n/a	-1.50556813892035	n/a	n/a	584.0	TrialHappinessSliderResponse	Gain
30.491	2.133	4.029	1062.826	55.0	3	4.99	2.5	16.4187	955.0	1.68	Outcome1	4.99	6.5	2.53325	Yes	n/a	-1.50556813892035	n/a	n/a	n/a	ISIRate	Gain
32.647	3.0	0.023	1064.982	56.0	3	12.3	2.79	17.9562	955.0	5.0	Outcome2	5.58	12.3	0.0	No	2.0	6.72253680634202	0.892	33.539	n/a	GetAnswer	Loss
33.567	4.0	0.028	1065.902	56.0	3	12.3	2.79	17.9562	955.0	5.0	Outcome2	5.58	12.3	0.0	No	n/a	6.72253680634202	n/a	n/a	n/a	ShowChoice	Loss
37.579	1.0	0.012	1069.914	56.0	3	12.3	2.79	17.9562	955.0	5.0	Outcome2	5.58	12.3	0.0	No	n/a	6.72253680634202	n/a	n/a	n/a	ShowResult	Loss
38.599	4.697	0.02	1070.934	56.0	3	12.3	2.79	17.9562	955.0	5.0	Outcome2	5.58	12.3	0.0	No	n/a	6.72253680634202	n/a	n/a	n/a	ISITrial	Loss
43.33	3.0	0.034	1075.665	57.0	3	6.3	2.0	18.7437	955.0	5.0	Outcome2	-0.84	6.3	0.0	No	2.0	7.14269535673839	1.871	45.201	n/a	GetAnswer	Gain
45.219	4.0	0.018	1077.554	57.0	3	6.3	2.0	18.7437	955.0	5.0	Outcome2	-0.84	6.3	0.0	No	n/a	7.14269535673839	n/a	n/a	n/a	ShowChoice	Gain
49.231	1.0	0.012	1081.566	57.0	3	6.3	2.0	18.7437	955.0	5.0	Outcome2	-0.84	6.3	0.0	No	n/a	7.14269535673839	n/a	n/a	n/a	ShowResult	Gain
50.25	4.291	0.019	1082.585	57.0	3	6.3	2.0	18.7437	955.0	5.0	Outcome2	-0.84	6.3	0.0	No	n/a	7.14269535673839	n/a	n/a	n/a	ISITrial	Gain
54.563	3.0	0.022	1086.898	58.0	3	5.29	2.64	19.4049	955.0	2.0	Outcome1	5.29	6.9	3.04575	Yes	2.0	-1.6106077765194398	1.03	55.593	n/a	GetAnswer	Gain
55.616	4.0	0.023	1087.951	58.0	3	5.29	2.64	19.4049	955.0	2.0	Outcome1	5.29	6.9	3.04575	Yes	n/a	-1.6106077765194398	n/a	n/a	n/a	ShowChoice	Gain
59.628	1.0	0.012	1091.963	58.0	3	5.29	2.64	19.4049	955.0	2.0	Outcome1	5.29	6.9	3.04575	Yes	n/a	-1.6106077765194398	n/a	n/a	n/a	ShowResult	Gain
60.648	2.037	0.02	1092.983	58.0	3	5.29	2.64	19.4049	955.0	2.0	Outcome1	5.29	6.9	3.04575	Yes	n/a	-1.6106077765194398	n/a	n/a	n/a	ISITrial	Gain
62.704	3.046	0.019	1095.039	58.0	3	5.29	2.64	19.4049	955.0	2.0	Outcome1	5.29	6.9	3.04575	Yes	n/a	-1.6106077765194398	n/a	n/a	n/a	TrialHappPreview	Gain
65.78	4.012	0.03	1098.115	58.0	3	5.29	2.64	19.4049	955.0	2.0	Outcome1	5.29	6.9	3.04575	Yes	n/a	-1.6106077765194398	n/a	n/a	656.0	TrialHappiness	Gain
65.781	1.296	n/a	1098.519	58.0	3	5.29	2.64	19.4049	955.0	2.0	Outcome1	5.29	6.9	3.04575	Yes	n/a	-1.6106077765194398	n/a	n/a	656.0	TrialHappinessSliderResponse	Gain
69.792	4.183	4.012	1102.127	58.0	3	5.29	2.64	19.4049	955.0	2.0	Outcome1	5.29	6.9	3.04575	Yes	n/a	-1.6106077765194398	n/a	n/a	n/a	ISIRate	Gain
74.005	3.0	0.03	1106.34	59.0	3	-0.25	0.0	19.3737	955.0	0.52	Outcome2	1.1	-0.25	0.0	No	2.0	-1.35343525858815	1.75	75.755	n/a	GetAnswer	Mixed
75.777	4.0	0.022	1108.112	59.0	3	-0.25	0.0	19.3737	955.0	0.52	Outcome2	1.1	-0.25	0.0	No	n/a	-1.35343525858815	n/a	n/a	n/a	ShowChoice	Mixed
79.789	1.0	0.012	1112.124	59.0	3	-0.25	0.0	19.3737	955.0	0.52	Outcome2	1.1	-0.25	0.0	No	n/a	-1.35343525858815	n/a	n/a	n/a	ShowResult	Mixed
80.809	5.064	0.02	1113.144	59.0	3	-0.25	0.0	19.3737	955.0	0.52	Outcome2	1.1	-0.25	0.0	No	n/a	-1.35343525858815	n/a	n/a	n/a	ISITrial	Mixed
85.891	3.0	0.018	1118.226	60.0	3	7.5	0.2	20.3112	955.0	2.8	Outcome1	7.5	0.4	3.5625	Yes	2.0	7.098527746319371	1.622	87.513	n/a	GetAnswer	Gain
87.529	4.0	0.015	1119.864	60.0	3	7.5	0.2	20.3112	955.0	2.8	Outcome1	7.5	0.4	3.5625	Yes	n/a	7.098527746319371	n/a	n/a	n/a	ShowChoice	Gain
91.541	1.0	0.012	1123.876	60.0	3	7.5	0.2	20.3112	955.0	2.8	Outcome1	7.5	0.4	3.5625	Yes	n/a	7.098527746319371	n/a	n/a	n/a	ShowResult	Gain
92.561	8.0	0.02	1124.896	60.0	3	7.5	0.2	20.3112	955.0	2.8	Outcome1	7.5	0.4	3.5625	Yes	n/a	7.098527746319371	n/a	n/a	n/a	ISITrial	Gain
100.585	3.562	0.024	1132.92	60.0	3	7.5	0.2	20.3112	955.0	2.8	Outcome1	7.5	0.4	3.5625	Yes	n/a	7.098527746319371	n/a	n/a	n/a	TrialHappPreview	Gain
104.162	4.012	0.015	1136.497	60.0	3	7.5	0.2	20.3112	955.0	2.8	Outcome1	7.5	0.4	3.5625	Yes	n/a	7.098527746319371	n/a	n/a	684.0	TrialHappiness	Gain
104.163	3.591	n/a	1136.871	60.0	3	7.5	0.2	20.3112	955.0	2.8	Outcome1	7.5	0.4	3.5625	Yes	n/a	7.098527746319371	n/a	n/a	684.0	TrialHappinessSliderResponse	Gain
108.174	6.25	4.012	1140.509	60.0	3	7.5	0.2	20.3112	955.0	2.8	Outcome1	7.5	0.4	3.5625	Yes	n/a	7.098527746319371	n/a	n/a	n/a	ISIRate	Gain
114.443	3.0	0.019	1146.778	61.0	3	1.0	1.0	20.4362	955.0	1.82	Certain	4.7	-2.26	0.0	No	4.0	6.96149490373726	2.063	116.506	n/a	GetAnswer	Gain
116.532	4.0	0.026	1148.867	61.0	3	1.0	1.0	20.4362	955.0	1.82	Certain	4.7	-2.26	0.0	No	n/a	6.96149490373726	n/a	n/a	n/a	ShowChoice	Gain
120.544	1.0	0.012	1152.879	61.0	3	1.0	1.0	20.4362	955.0	1.82	Certain	4.7	-2.26	0.0	No	n/a	6.96149490373726	n/a	n/a	n/a	ShowResult	Gain
121.564	4.586	0.02	1153.899	61.0	3	1.0	1.0	20.4362	955.0	1.82	Certain	4.7	-2.26	0.0	No	n/a	6.96149490373726	n/a	n/a	n/a	ISITrial	Gain
126.178	3.0	0.028	1158.513	62.0	3	4.3	0.0	20.9737	955.0	2.0	Outcome2	-2.97	4.3	3.74875	Yes	2.0	7.26840317100793	2.562	128.74	n/a	GetAnswer	Mixed
128.752	4.0	0.012	1161.087	62.0	3	4.3	0.0	20.9737	955.0	2.0	Outcome2	-2.97	4.3	3.74875	Yes	n/a	7.26840317100793	n/a	n/a	n/a	ShowChoice	Mixed
132.764	1.0	0.012	1165.099	62.0	3	4.3	0.0	20.9737	955.0	2.0	Outcome2	-2.97	4.3	3.74875	Yes	n/a	7.26840317100793	n/a	n/a	n/a	ShowResult	Mixed
133.784	5.212	0.02	1166.119	62.0	3	4.3	0.0	20.9737	955.0	2.0	Outcome2	-2.97	4.3	3.74875	Yes	n/a	7.26840317100793	n/a	n/a	n/a	ISITrial	Mixed
139.017	3.749	0.021	1171.352	62.0	3	4.3	0.0	20.9737	955.0	2.0	Outcome2	-2.97	4.3	3.74875	Yes	n/a	7.26840317100793	n/a	n/a	n/a	TrialHappPreview	Mixed
142.795	4.012	0.029	1175.13	62.0	3	4.3	0.0	20.9737	955.0	2.0	Outcome2	-2.97	4.3	3.74875	Yes	2{-2}2{-2}2{-2}	7.26840317100793	1.711	144.506	608.0	TrialHappiness	Mixed
142.795	1.355	n/a	1175.486	62.0	3	4.3	0.0	20.9737	955.0	2.0	Outcome2	-2.97	4.3	3.74875	Yes	n/a	7.26840317100793	n/a	n/a	608.0	TrialHappinessSliderResponse	Mixed
146.807	6.995	4.012	1179.142	62.0	3	4.3	0.0	20.9737	955.0	2.0	Outcome2	-2.97	4.3	3.74875	Yes	n/a	7.26840317100793	n/a	n/a	n/a	ISIRate	Mixed
153.828	3.0	0.026	1186.163	63.0	3	-1.0	-1.0	20.8487	955.0	0.66	Certain	-5.57	3.3	0.0	No	4.0	8.86636466591166	1.802	155.63	n/a	GetAnswer	Mixed
155.65	4.0	0.02	1187.985	63.0	3	-1.0	-1.0	20.8487	955.0	0.66	Certain	-5.57	3.3	0.0	No	n/a	8.86636466591166	n/a	n/a	n/a	ShowChoice	Mixed
159.662	1.0	0.012	1191.997	63.0	3	-1.0	-1.0	20.8487	955.0	0.66	Certain	-5.57	3.3	0.0	No	n/a	8.86636466591166	n/a	n/a	n/a	ShowResult	Mixed
160.682	5.595	0.02	1193.017	63.0	3	-1.0	-1.0	20.8487	955.0	0.66	Certain	-5.57	3.3	0.0	No	n/a	8.86636466591166	n/a	n/a	n/a	ISITrial	Mixed
166.298	3.0	0.021	1198.633	64.0	3	-1.0	-1.0	20.7237	955.0	0.52	Certain	-6.16	3.1	0.0	No	4.0	9.25934314835787	2.01	168.308	n/a	GetAnswer	Mixed
168.321	4.0	0.013	1200.656	64.0	3	-1.0	-1.0	20.7237	955.0	0.52	Certain	-6.16	3.1	0.0	No	n/a	9.25934314835787	n/a	n/a	n/a	ShowChoice	Mixed
172.333	1.0	0.012	1204.668	64.0	3	-1.0	-1.0	20.7237	955.0	0.52	Certain	-6.16	3.1	0.0	No	n/a	9.25934314835787	n/a	n/a	n/a	ShowResult	Mixed
173.353	5.47	0.02	1205.688	64.0	3	-1.0	-1.0	20.7237	955.0	0.52	Certain	-6.16	3.1	0.0	No	n/a	9.25934314835787	n/a	n/a	n/a	ISITrial	Mixed
178.853	3.0	0.03	1211.188	65.0	3	10.1	0.22	21.9862	955.0	4.2	Outcome2	0.45	10.1	2.99675	Yes	2.0	9.65232163080408	1.859	180.712	n/a	GetAnswer	Gain
180.725	4.0	0.013	1213.06	65.0	3	10.1	0.22	21.9862	955.0	4.2	Outcome2	0.45	10.1	2.99675	Yes	n/a	9.65232163080408	n/a	n/a	n/a	ShowChoice	Gain
184.737	1.0	0.012	1217.072	65.0	3	10.1	0.22	21.9862	955.0	4.2	Outcome2	0.45	10.1	2.99675	Yes	n/a	9.65232163080408	n/a	n/a	n/a	ShowResult	Gain
185.757	3.344	0.02	1218.092	65.0	3	10.1	0.22	21.9862	955.0	4.2	Outcome2	0.45	10.1	2.99675	Yes	n/a	9.65232163080408	n/a	n/a	n/a	ISITrial	Gain
189.117	2.997	0.016	1221.452	65.0	3	10.1	0.22	21.9862	955.0	4.2	Outcome2	0.45	10.1	2.99675	Yes	n/a	9.65232163080408	n/a	n/a	n/a	TrialHappPreview	Gain
192.143	4.012	0.029	1224.478	65.0	3	10.1	0.22	21.9862	955.0	4.2	Outcome2	0.45	10.1	2.99675	Yes	n/a	9.65232163080408	n/a	n/a	712.0	TrialHappiness	Gain
192.143	1.327	n/a	1224.945	65.0	3	10.1	0.22	21.9862	955.0	4.2	Outcome2	0.45	10.1	2.99675	Yes	n/a	9.65232163080408	n/a	n/a	712.0	TrialHappinessSliderResponse	Gain
196.155	3.987	4.012	1228.49	65.0	3	10.1	0.22	21.9862	955.0	4.2	Outcome2	0.45	10.1	2.99675	Yes	n/a	9.65232163080408	n/a	n/a	n/a	ISIRate	Gain
200.167	3.0	0.025	1232.502	66.0	3	-4.0	-4.0	21.4862	955.0	1.2	Certain	-0.1	-8.38	0.0	No	4.0	8.27859569648924	1.452	201.619	n/a	GetAnswer	Mixed
201.638	4.0	0.019	1233.973	66.0	3	-4.0	-4.0	21.4862	955.0	1.2	Certain	-0.1	-8.38	0.0	No	n/a	8.27859569648924	n/a	n/a	n/a	ShowChoice	Mixed
205.65	1.0	0.012	1237.985	66.0	3	-4.0	-4.0	21.4862	955.0	1.2	Certain	-0.1	-8.38	0.0	No	n/a	8.27859569648924	n/a	n/a	n/a	ShowResult	Mixed
206.669	3.959	0.019	1239.004	66.0	3	-4.0	-4.0	21.4862	955.0	1.2	Certain	-0.1	-8.38	0.0	No	n/a	8.27859569648924	n/a	n/a	n/a	ISITrial	Mixed
210.648	3.0	0.02	1242.983	67.0	3	9.5	0.48	22.6737	955.0	2.8	Outcome1	9.5	0.95	2.9185	Yes	2.0	8.55379388448471	1.678	212.326	n/a	GetAnswer	Gain
212.353	4.0	0.027	1244.688	67.0	3	9.5	0.48	22.6737	955.0	2.8	Outcome1	9.5	0.95	2.9185	Yes	n/a	8.55379388448471	n/a	n/a	n/a	ShowChoice	Gain
216.365	1.0	0.012	1248.7	67.0	3	9.5	0.48	22.6737	955.0	2.8	Outcome1	9.5	0.95	2.9185	Yes	n/a	8.55379388448471	n/a	n/a	n/a	ShowResult	Gain
217.385	4.199	0.02	1249.72	67.0	3	9.5	0.48	22.6737	955.0	2.8	Outcome1	9.5	0.95	2.9185	Yes	n/a	8.55379388448471	n/a	n/a	n/a	ISITrial	Gain
221.598	2.918	0.014	1253.933	67.0	3	9.5	0.48	22.6737	955.0	2.8	Outcome1	9.5	0.95	2.9185	Yes	n/a	8.55379388448471	n/a	n/a	n/a	TrialHappPreview	Gain
224.54	4.012	0.024	1256.875	67.0	3	9.5	0.48	22.6737	955.0	2.8	Outcome1	9.5	0.95	2.9185	Yes	n/a	8.55379388448471	n/a	n/a	660.0	TrialHappiness	Gain
224.54	1.831	n/a	1257.494	67.0	3	9.5	0.48	22.6737	955.0	2.8	Outcome1	9.5	0.95	2.9185	Yes	n/a	8.55379388448471	n/a	n/a	660.0	TrialHappinessSliderResponse	Gain
228.552	3.674	4.012	1260.887	67.0	3	9.5	0.48	22.6737	955.0	2.8	Outcome1	9.5	0.95	2.9185	Yes	n/a	8.55379388448471	n/a	n/a	n/a	ISIRate	Gain
232.246	3.0	0.02	1264.581	68.0	3	9.31	4.66	23.8375	955.0	2.0	Outcome1	9.31	10.9	0.0	No	2.0	-1.5889014722536798	1.062	233.308	n/a	GetAnswer	Loss
233.333	4.0	0.025	1265.668	68.0	3	9.31	4.66	23.8375	955.0	2.0	Outcome1	9.31	10.9	0.0	No	n/a	-1.5889014722536798	n/a	n/a	n/a	ShowChoice	Loss
237.345	1.0	0.012	1269.68	68.0	3	9.31	4.66	23.8375	955.0	2.0	Outcome1	9.31	10.9	0.0	No	n/a	-1.5889014722536798	n/a	n/a	n/a	ShowResult	Loss
238.365	2.185	0.02	1270.7	68.0	3	9.31	4.66	23.8375	955.0	2.0	Outcome1	9.31	10.9	0.0	No	n/a	-1.5889014722536798	n/a	n/a	n/a	ISITrial	Loss
240.571	3.0	0.021	1272.906	69.0	3	13.9	1.92	25.575	955.0	3.6	Outcome1	13.9	3.85	0.0	No	2.0	10.0464326160815	0.888	241.459	n/a	GetAnswer	Loss
241.474	4.0	0.014	1273.809	69.0	3	13.9	1.92	25.575	955.0	3.6	Outcome1	13.9	3.85	0.0	No	n/a	10.0464326160815	n/a	n/a	n/a	ShowChoice	Loss
245.486	1.0	0.012	1277.821	69.0	3	13.9	1.92	25.575	955.0	3.6	Outcome1	13.9	3.85	0.0	No	n/a	10.0464326160815	n/a	n/a	n/a	ShowResult	Loss
246.506	2.0	0.02	1278.841	69.0	3	13.9	1.92	25.575	955.0	3.6	Outcome1	13.9	3.85	0.0	No	n/a	10.0464326160815	n/a	n/a	n/a	ISITrial	Loss
248.528	3.0	0.022	1280.863	70.0	3	-3.0	-3.0	25.2	955.0	1.2	Certain	-8.48	1.9	3.65125	Yes	4.0	10.3805209513024	2.396	250.924	n/a	GetAnswer	Mixed
250.936	4.0	0.012	1283.271	70.0	3	-3.0	-3.0	25.2	955.0	1.2	Certain	-8.48	1.9	3.65125	Yes	n/a	10.3805209513024	n/a	n/a	n/a	ShowChoice	Mixed
254.948	1.0	0.012	1287.283	70.0	3	-3.0	-3.0	25.2	955.0	1.2	Certain	-8.48	1.9	3.65125	Yes	n/a	10.3805209513024	n/a	n/a	n/a	ShowResult	Mixed
255.967	2.623	0.019	1288.302	70.0	3	-3.0	-3.0	25.2	955.0	1.2	Certain	-8.48	1.9	3.65125	Yes	n/a	10.3805209513024	n/a	n/a	n/a	ISITrial	Mixed
258.609	3.651	0.019	1290.944	70.0	3	-3.0	-3.0	25.2	955.0	1.2	Certain	-8.48	1.9	3.65125	Yes	n/a	10.3805209513024	n/a	n/a	n/a	TrialHappPreview	Mixed
262.286	4.012	0.026	1294.621	70.0	3	-3.0	-3.0	25.2	955.0	1.2	Certain	-8.48	1.9	3.65125	Yes	n/a	10.3805209513024	n/a	n/a	684.0	TrialHappiness	Mixed
262.287	2.917	n/a	1295.257	70.0	3	-3.0	-3.0	25.2	955.0	1.2	Certain	-8.48	1.9	3.65125	Yes	n/a	10.3805209513024	n/a	n/a	684.0	TrialHappinessSliderResponse	Mixed
266.298	6.605	4.012	1298.633	70.0	3	-3.0	-3.0	25.2	955.0	1.2	Certain	-8.48	1.9	3.65125	Yes	n/a	10.3805209513024	n/a	n/a	n/a	ISIRate	Mixed
272.918	3.0	0.015	1305.253	71.0	3	-5.0	-5.0	24.575	955.0	2.0	Certain	-10.01	0.3	0.0	No	4.0	10.3069082672707	1.573	274.491	n/a	GetAnswer	Mixed
274.506	4.0	0.015	1306.841	71.0	3	-5.0	-5.0	24.575	955.0	2.0	Certain	-10.01	0.3	0.0	No	n/a	10.3069082672707	n/a	n/a	n/a	ShowChoice	Mixed
278.518	1.0	0.012	1310.853	71.0	3	-5.0	-5.0	24.575	955.0	2.0	Certain	-10.01	0.3	0.0	No	n/a	10.3069082672707	n/a	n/a	n/a	ShowResult	Mixed
279.538	5.499	0.02	1311.873	71.0	3	-5.0	-5.0	24.575	955.0	2.0	Certain	-10.01	0.3	0.0	No	n/a	10.3069082672707	n/a	n/a	n/a	ISITrial	Mixed
285.055	3.0	0.018	1317.39	72.0	3	6.1	1.0	25.3375	955.0	4.2	Outcome1	6.1	-4.51	3.0805	Yes	2.0	10.6138165345413	1.904	286.959	n/a	GetAnswer	Gain
286.977	4.0	0.018	1319.312	72.0	3	6.1	1.0	25.3375	955.0	4.2	Outcome1	6.1	-4.51	3.0805	Yes	n/a	10.6138165345413	n/a	n/a	n/a	ShowChoice	Gain
290.989	1.0	0.012	1323.324	72.0	3	6.1	1.0	25.3375	955.0	4.2	Outcome1	6.1	-4.51	3.0805	Yes	n/a	10.6138165345413	n/a	n/a	n/a	ShowResult	Gain
292.009	5.672	0.02	1324.344	72.0	3	6.1	1.0	25.3375	955.0	4.2	Outcome1	6.1	-4.51	3.0805	Yes	n/a	10.6138165345413	n/a	n/a	n/a	ISITrial	Gain
297.693	3.08	0.012	1330.028	72.0	3	6.1	1.0	25.3375	955.0	4.2	Outcome1	6.1	-4.51	3.0805	Yes	n/a	10.6138165345413	n/a	n/a	n/a	TrialHappPreview	Gain
300.802	4.012	0.029	1333.137	72.0	3	6.1	1.0	25.3375	955.0	4.2	Outcome1	6.1	-4.51	3.0805	Yes	n/a	10.6138165345413	n/a	n/a	656.0	TrialHappiness	Gain
300.802	1.853	n/a	1334.298	72.0	3	6.1	1.0	25.3375	955.0	4.2	Outcome1	6.1	-4.51	3.0805	Yes	n/a	10.6138165345413	n/a	n/a	656.0	TrialHappinessSliderResponse	Gain
304.814	4.322	4.012	1337.149	72.0	3	6.1	1.0	25.3375	955.0	4.2	Outcome1	6.1	-4.51	3.0805	Yes	n/a	10.6138165345413	n/a	n/a	n/a	ISIRate	Gain
309.16	3.0	0.024	1341.495	73.0	3	-0.75	-0.75	25.2437	955.0	3.6	Certain	9.9	-1.5	0.0	No	4.0	11.39637599094	2.165	311.325	n/a	GetAnswer	Gain
311.35	4.0	0.024	1343.685	73.0	3	-0.75	-0.75	25.2437	955.0	3.6	Certain	9.9	-1.5	0.0	No	n/a	11.39637599094	n/a	n/a	n/a	ShowChoice	Gain
315.362	1.0	0.012	1347.697	73.0	3	-0.75	-0.75	25.2437	955.0	3.6	Certain	9.9	-1.5	0.0	No	n/a	11.39637599094	n/a	n/a	n/a	ShowResult	Gain
316.382	4.616	0.02	1348.717	73.0	3	-0.75	-0.75	25.2437	955.0	3.6	Certain	9.9	-1.5	0.0	No	n/a	11.39637599094	n/a	n/a	n/a	ISITrial	Gain
321.029	3.0	0.031	1353.364	74.0	3	11.33	5.66	26.6599	955.0	2.22	Outcome2	13.1	11.33	3.05625	Yes	2.0	-1.76802567006418	0.892	321.921	n/a	GetAnswer	Loss
321.949	4.0	0.028	1354.284	74.0	3	11.33	5.66	26.6599	955.0	2.22	Outcome2	13.1	11.33	3.05625	Yes	n/a	-1.76802567006418	n/a	n/a	n/a	ShowChoice	Loss
325.961	1.0	0.012	1358.296	74.0	3	11.33	5.66	26.6599	955.0	2.22	Outcome2	13.1	11.33	3.05625	Yes	n/a	-1.76802567006418	n/a	n/a	n/a	ShowResult	Loss
326.98	3.909	0.019	1359.315	74.0	3	11.33	5.66	26.6599	955.0	2.22	Outcome2	13.1	11.33	3.05625	Yes	n/a	-1.76802567006418	n/a	n/a	n/a	ISITrial	Loss
330.909	3.056	0.02	1363.244	74.0	3	11.33	5.66	26.6599	955.0	2.22	Outcome2	13.1	11.33	3.05625	Yes	n/a	-1.76802567006418	n/a	n/a	n/a	TrialHappPreview	Loss
333.985	4.012	0.02	1366.32	74.0	3	11.33	5.66	26.6599	955.0	2.22	Outcome2	13.1	11.33	3.05625	Yes	n/a	-1.76802567006418	n/a	n/a	608.0	TrialHappiness	Loss
333.985	0.353	n/a	1366.726	74.0	3	11.33	5.66	26.6599	955.0	2.22	Outcome2	13.1	11.33	3.05625	Yes	n/a	-1.76802567006418	n/a	n/a	608.0	TrialHappinessSliderResponse	Loss
337.997	4.225	4.012	1370.332	74.0	3	11.33	5.66	26.6599	955.0	2.22	Outcome2	13.1	11.33	3.05625	Yes	n/a	-1.76802567006418	n/a	n/a	n/a	ISIRate	Loss
342.243	3.0	0.021	1374.578	75.0	3	6.91	3.46	27.5237	955.0	2.0	Outcome2	8.9	6.91	0.0	No	2.0	-1.99103435258588	1.067	343.31	n/a	GetAnswer	Gain
343.329	4.0	0.019	1375.664	75.0	3	6.91	3.46	27.5237	955.0	2.0	Outcome2	8.9	6.91	0.0	No	n/a	-1.99103435258588	n/a	n/a	n/a	ShowChoice	Gain
347.341	1.0	0.012	1379.676	75.0	3	6.91	3.46	27.5237	955.0	2.0	Outcome2	8.9	6.91	0.0	No	n/a	-1.99103435258588	n/a	n/a	n/a	ShowResult	Gain
348.361	4.979	0.02	1380.696	75.0	3	6.91	3.46	27.5237	955.0	2.0	Outcome2	8.9	6.91	0.0	No	n/a	-1.99103435258588	n/a	n/a	n/a	ISITrial	Gain
353.36	3.0	0.02	1385.695	76.0	3	-1.0	-1.0	27.3987	955.0	3.16	Certain	-7.58	5.7	0.0	No	4.0	13.281993204983	1.993	355.353	n/a	GetAnswer	Gain
355.366	4.0	0.013	1387.701	76.0	3	-1.0	-1.0	27.3987	955.0	3.16	Certain	-7.58	5.7	0.0	No	n/a	13.281993204983	n/a	n/a	n/a	ShowChoice	Gain
359.378	1.0	0.012	1391.713	76.0	3	-1.0	-1.0	27.3987	955.0	3.16	Certain	-7.58	5.7	0.0	No	n/a	13.281993204983	n/a	n/a	n/a	ShowResult	Gain
360.397	3.931	0.019	1392.732	76.0	3	-1.0	-1.0	27.3987	955.0	3.16	Certain	-7.58	5.7	0.0	No	n/a	13.281993204983	n/a	n/a	n/a	ISITrial	Gain
364.359	3.0	0.031	1396.694	77.0	3	12.7	-0.49	28.9862	955.0	1.82	Outcome2	-0.98	12.7	4.0	Yes	2.0	13.6749716874292	1.49	365.849	n/a	GetAnswer	Loss
365.864	4.0	0.015	1398.199	77.0	3	12.7	-0.49	28.9862	955.0	1.82	Outcome2	-0.98	12.7	4.0	Yes	n/a	13.6749716874292	n/a	n/a	n/a	ShowChoice	Loss
369.876	1.0	0.012	1402.211	77.0	3	12.7	-0.49	28.9862	955.0	1.82	Outcome2	-0.98	12.7	4.0	Yes	n/a	13.6749716874292	n/a	n/a	n/a	ShowResult	Loss
370.895	7.022	0.019	1403.23	77.0	3	12.7	-0.49	28.9862	955.0	1.82	Outcome2	-0.98	12.7	4.0	Yes	n/a	13.6749716874292	n/a	n/a	n/a	ISITrial	Loss
377.933	4.0	0.016	1410.268	77.0	3	12.7	-0.49	28.9862	955.0	1.82	Outcome2	-0.98	12.7	4.0	Yes	n/a	13.6749716874292	n/a	n/a	n/a	TrialHappPreview	Loss
381.962	4.012	0.029	1414.297	77.0	3	12.7	-0.49	28.9862	955.0	1.82	Outcome2	-0.98	12.7	4.0	Yes	n/a	13.6749716874292	n/a	n/a	728.0	TrialHappiness	Loss
381.963	1.824	n/a	1414.604	77.0	3	12.7	-0.49	28.9862	955.0	1.82	Outcome2	-0.98	12.7	4.0	Yes	n/a	13.6749716874292	n/a	n/a	728.0	TrialHappinessSliderResponse	Loss
385.974	8.0	4.012	1418.309	77.0	3	12.7	-0.49	28.9862	955.0	1.82	Outcome2	-0.98	12.7	4.0	Yes	n/a	13.6749716874292	n/a	n/a	n/a	ISIRate	Loss
393.998	3.0	0.024	1426.333	78.0	3	8.3	2.0	30.0237	955.0	5.0	Outcome2	-3.73	8.3	0.0	No	2.0	12.0294450736127	0.84	394.838	n/a	GetAnswer	Gain
394.851	4.0	0.013	1427.186	78.0	3	8.3	2.0	30.0237	955.0	5.0	Outcome2	-3.73	8.3	0.0	No	n/a	12.0294450736127	n/a	n/a	n/a	ShowChoice	Gain
398.863	1.0	0.012	1431.198	78.0	3	8.3	2.0	30.0237	955.0	5.0	Outcome2	-3.73	8.3	0.0	No	n/a	12.0294450736127	n/a	n/a	n/a	ShowResult	Gain
399.882	2.078	0.019	1432.217	78.0	3	8.3	2.0	30.0237	955.0	5.0	Outcome2	-3.73	8.3	0.0	No	n/a	12.0294450736127	n/a	n/a	n/a	ISITrial	Gain
401.989	3.0	0.029	1434.324	79.0	3	13.7	0.7	31.7362	955.0	3.16	Outcome1	13.7	1.41	2.7295	Yes	2.0	12.286523216308	1.113	403.102	n/a	GetAnswer	Loss
403.125	4.0	0.023	1435.46	79.0	3	13.7	0.7	31.7362	955.0	3.16	Outcome1	13.7	1.41	2.7295	Yes	n/a	12.286523216308	n/a	n/a	n/a	ShowChoice	Loss
407.138	1.0	0.013	1439.473	79.0	3	13.7	0.7	31.7362	955.0	3.16	Outcome1	13.7	1.41	2.7295	Yes	n/a	12.286523216308	n/a	n/a	n/a	ShowResult	Loss
408.157	3.829	0.019	1440.492	79.0	3	13.7	0.7	31.7362	955.0	3.16	Outcome1	13.7	1.41	2.7295	Yes	n/a	12.286523216308	n/a	n/a	n/a	ISITrial	Loss
412.002	2.73	0.016	1444.337	79.0	3	13.7	0.7	31.7362	955.0	3.16	Outcome1	13.7	1.41	2.7295	Yes	n/a	12.286523216308	n/a	n/a	n/a	TrialHappPreview	Loss
414.76	4.012	0.028	1447.095	79.0	3	13.7	0.7	31.7362	955.0	3.16	Outcome1	13.7	1.41	2.7295	Yes	n/a	12.286523216308	n/a	n/a	824.0	TrialHappiness	Loss
414.761	0.792	n/a	1447.514	79.0	3	13.7	0.7	31.7362	955.0	3.16	Outcome1	13.7	1.41	2.7295	Yes	n/a	12.286523216308	n/a	n/a	824.0	TrialHappinessSliderResponse	Loss
418.772	2.918	4.012	1451.107	79.0	3	13.7	0.7	31.7362	955.0	3.16	Outcome1	13.7	1.41	2.7295	Yes	n/a	12.286523216308	n/a	n/a	n/a	ISIRate	Loss
421.715	3.0	0.025	1454.05	80.0	3	7.9	2.0	32.7237	955.0	3.6	Outcome1	7.9	-3.01	0.0	No	2.0	10.912797281993198	1.505	423.22	n/a	GetAnswer	Gain
423.236	4.0	0.016	1455.571	80.0	3	7.9	2.0	32.7237	955.0	3.6	Outcome1	7.9	-3.01	0.0	No	n/a	10.912797281993198	n/a	n/a	n/a	ShowChoice	Gain
427.248	1.0	0.012	1459.583	80.0	3	7.9	2.0	32.7237	955.0	3.6	Outcome1	7.9	-3.01	0.0	No	n/a	10.912797281993198	n/a	n/a	n/a	ShowResult	Gain
428.268	3.336	0.02	1460.603	80.0	3	7.9	2.0	32.7237	955.0	3.6	Outcome1	7.9	-3.01	0.0	No	n/a	10.912797281993198	n/a	n/a	n/a	ISITrial	Gain
431.628	3.0	0.024	1463.963	81.0	3	5.3	0.0	33.3862	955.0	2.48	Outcome2	-5.76	5.3	3.92375	Yes	2.0	11.0611551528879	2.745	434.373	n/a	GetAnswer	Gain
434.386	4.0	0.013	1466.721	81.0	3	5.3	0.0	33.3862	955.0	2.48	Outcome2	-5.76	5.3	3.92375	Yes	n/a	11.0611551528879	n/a	n/a	n/a	ShowChoice	Gain
438.398	1.0	0.012	1470.733	81.0	3	5.3	0.0	33.3862	955.0	2.48	Outcome2	-5.76	5.3	3.92375	Yes	n/a	11.0611551528879	n/a	n/a	n/a	ShowResult	Gain
439.418	3.919	0.02	1471.753	81.0	3	5.3	0.0	33.3862	955.0	2.48	Outcome2	-5.76	5.3	3.92375	Yes	n/a	11.0611551528879	n/a	n/a	n/a	ISITrial	Gain
443.363	3.924	0.026	1475.698	81.0	3	5.3	0.0	33.3862	955.0	2.48	Outcome2	-5.76	5.3	3.92375	Yes	n/a	11.0611551528879	n/a	n/a	n/a	TrialHappPreview	Gain
447.308	4.012	0.021	1479.643	81.0	3	5.3	0.0	33.3862	955.0	2.48	Outcome2	-5.76	5.3	3.92375	Yes	n/a	11.0611551528879	n/a	n/a	752.0	TrialHappiness	Gain
447.309	1.127	n/a	1479.928	81.0	3	5.3	0.0	33.3862	955.0	2.48	Outcome2	-5.76	5.3	3.92375	Yes	n/a	11.0611551528879	n/a	n/a	752.0	TrialHappinessSliderResponse	Gain
451.32	7.695	4.012	1483.655	81.0	3	5.3	0.0	33.3862	955.0	2.48	Outcome2	-5.76	5.3	3.92375	Yes	n/a	11.0611551528879	n/a	n/a	n/a	ISIRate	Gain
459.043	3.0	0.028	1491.378	n/a	3	n/a	n/a	n/a	n/a	n/a	n/a	n/a	n/a	n/a	n/a	n/a	n/a	n/a	n/a	n/a	CurrentEarnings	n/a
462.069	-0.001	0.026	1494.404	n/a	3	n/a	n/a	n/a	n/a	n/a	n/a	n/a	n/a	n/a	n/a	{SPACE}	n/a	105.094	567.163	n/a	Goodbye	n/a
