onset	duration	onset_delay	onset_unadjusted	trial_number	block	amount_change	certain_amount	current_amount	mood_target	multiplier	outcome	outcome1_amount	outcome2_amount	question_duration	rating	response	rpe	rt	rt_time	slider_response	trial_phase	trial_type
-37.308	-0.001	0.017	11.313	n/a	0	n/a	n/a	n/a	n/a	n/a	n/a	n/a	n/a	n/a	n/a	{SPACE}	n/a	3.759	-33.549	n/a	Welcome	n/a
-33.522	5.0	0.027	15.099	n/a	0	n/a	n/a	n/a	n/a	n/a	n/a	n/a	n/a	n/a	n/a	n/a	n/a	n/a	n/a	n/a	LifeHappyPreview	n/a
-28.491	2.476	0.031	20.13	n/a	0	n/a	n/a	n/a	n/a	n/a	n/a	n/a	n/a	n/a	n/a	n/a	n/a	n/a	n/a	412.0	LifeHappiness	n/a
-28.49	1.872	n/a	20.735	n/a	0	n/a	n/a	n/a	n/a	n/a	n/a	n/a	n/a	n/a	n/a	n/a	n/a	n/a	n/a	412.0	LifeHappinessSliderResponse	n/a
-17.511	4.0	0.029	31.11	n/a	0	n/a	n/a	n/a	n/a	n/a	n/a	n/a	n/a	n/a	n/a	n/a	n/a	n/a	n/a	n/a	BlockHappyPreview	n/a
-13.496	1.086	0.015	35.125	n/a	0	n/a	n/a	n/a	n/a	n/a	n/a	n/a	n/a	n/a	n/a	n/a	n/a	n/a	n/a	452.0	BlockStartHappiness	n/a
-13.495	0.725	n/a	35.487	n/a	0	n/a	n/a	n/a	n/a	n/a	n/a	n/a	n/a	n/a	n/a	n/a	n/a	n/a	n/a	452.0	BlockStartHappinessSliderResponse	n/a
-4.182	-0.001	0.024	44.439	n/a	0	n/a	n/a	n/a	n/a	n/a	n/a	n/a	n/a	n/a	n/a	5.0	n/a	4.158	-0.024	n/a	ScanWait	n/a
0.0	10.0	0.024	48.621	n/a	1	n/a	n/a	n/a	n/a	n/a	n/a	n/a	n/a	n/a	n/a	n/a	n/a	n/a	n/a	n/a	GetReady	n/a
10.029	3.0	0.029	58.65	1.0	1	8.7	0.08	11.0875	955.0	1.82	Outcome1	8.7	0.16	0.0	No	2.0	8.54473386183465	1.521	11.55	n/a	GetAnswer	Gain
11.579	4.0	0.029	60.2	1.0	1	8.7	0.08	11.0875	955.0	1.82	Outcome1	8.7	0.16	0.0	No	n/a	8.54473386183465	n/a	n/a	n/a	ShowChoice	Gain
15.594	1.0	0.015	64.215	1.0	1	8.7	0.08	11.0875	955.0	1.82	Outcome1	8.7	0.16	0.0	No	n/a	8.54473386183465	n/a	n/a	n/a	ShowResult	Gain
16.61	2.431	0.016	65.231	1.0	1	8.7	0.08	11.0875	955.0	1.82	Outcome1	8.7	0.16	0.0	No	n/a	8.54473386183465	n/a	n/a	n/a	ISITrial	Gain
19.06	3.0	0.019	67.681	2.0	1	3.41	1.7	11.5137	955.0	2.8	Outcome1	3.41	5.5	0.0	No	2.0	-2.0887127217818	1.345	20.405	n/a	GetAnswer	Gain
20.426	4.0	0.021	69.047	2.0	1	3.41	1.7	11.5137	955.0	2.8	Outcome1	3.41	5.5	0.0	No	n/a	-2.0887127217818	n/a	n/a	n/a	ShowChoice	Gain
24.441	1.0	0.015	73.062	2.0	1	3.41	1.7	11.5137	955.0	2.8	Outcome1	3.41	5.5	0.0	No	n/a	-2.0887127217818	n/a	n/a	n/a	ShowResult	Gain
25.457	4.568	0.016	74.078	2.0	1	3.41	1.7	11.5137	955.0	2.8	Outcome1	3.41	5.5	0.0	No	n/a	-2.0887127217818	n/a	n/a	n/a	ISITrial	Gain
30.056	3.0	0.031	78.677	3.0	1	4.16	2.08	12.0337	955.0	5.0	Outcome1	4.16	6.3	2.868	Yes	2.0	-2.13618346545866	1.195	31.251	n/a	GetAnswer	Gain
31.272	4.0	0.021	79.893	3.0	1	4.16	2.08	12.0337	955.0	5.0	Outcome1	4.16	6.3	2.868	Yes	n/a	-2.13618346545866	n/a	n/a	n/a	ShowChoice	Gain
35.287	1.0	0.015	83.908	3.0	1	4.16	2.08	12.0337	955.0	5.0	Outcome1	4.16	6.3	2.868	Yes	n/a	-2.13618346545866	n/a	n/a	n/a	ShowResult	Gain
36.304	3.243	0.017	84.925	3.0	1	4.16	2.08	12.0337	955.0	5.0	Outcome1	4.16	6.3	2.868	Yes	n/a	-2.13618346545866	n/a	n/a	n/a	ISITrial	Gain
39.569	2.868	0.022	88.19	3.0	1	4.16	2.08	12.0337	955.0	5.0	Outcome1	4.16	6.3	2.868	Yes	n/a	-2.13618346545866	n/a	n/a	n/a	TrialHappPreview	Gain
42.468	4.015	0.031	91.089	3.0	1	4.16	2.08	12.0337	955.0	5.0	Outcome1	4.16	6.3	2.868	Yes	n/a	-2.13618346545866	n/a	n/a	568.0	TrialHappiness	Gain
42.469	2.224	n/a	91.639	3.0	1	4.16	2.08	12.0337	955.0	5.0	Outcome1	4.16	6.3	2.868	Yes	n/a	-2.13618346545866	n/a	n/a	568.0	TrialHappinessSliderResponse	Gain
46.483	3.472	4.015	95.104	3.0	1	4.16	2.08	12.0337	955.0	5.0	Outcome1	4.16	6.3	2.868	Yes	n/a	-2.13618346545866	n/a	n/a	n/a	ISIRate	Gain
49.982	3.0	0.027	98.603	4.0	1	1.0	1.0	12.1587	955.0	2.48	Certain	5.3	-2.98	0.0	No	4.0	8.28312570781427	1.266	51.248	n/a	GetAnswer	Gain
51.265	4.0	0.017	99.886	4.0	1	1.0	1.0	12.1587	955.0	2.48	Certain	5.3	-2.98	0.0	No	n/a	8.28312570781427	n/a	n/a	n/a	ShowChoice	Gain
55.28	1.0	0.015	103.901	4.0	1	1.0	1.0	12.1587	955.0	2.48	Certain	5.3	-2.98	0.0	No	n/a	8.28312570781427	n/a	n/a	n/a	ShowResult	Gain
56.297	2.011	0.017	104.918	4.0	1	1.0	1.0	12.1587	955.0	2.48	Certain	5.3	-2.98	0.0	No	n/a	8.28312570781427	n/a	n/a	n/a	ISITrial	Gain
58.329	3.0	0.021	106.95	5.0	1	0.0	0.0	12.1587	955.0	2.0	Certain	0.3	-1.45	2.5825	Yes	4.0	-1.74943374858437	1.287	59.616	n/a	GetAnswer	Mixed
59.629	4.0	0.013	108.25	5.0	1	0.0	0.0	12.1587	955.0	2.0	Certain	0.3	-1.45	2.5825	Yes	n/a	-1.74943374858437	n/a	n/a	n/a	ShowChoice	Mixed
63.644	1.0	0.015	112.265	5.0	1	0.0	0.0	12.1587	955.0	2.0	Certain	0.3	-1.45	2.5825	Yes	n/a	-1.74943374858437	n/a	n/a	n/a	ShowResult	Mixed
64.66	5.129	0.016	113.281	5.0	1	0.0	0.0	12.1587	955.0	2.0	Certain	0.3	-1.45	2.5825	Yes	n/a	-1.74943374858437	n/a	n/a	n/a	ISITrial	Mixed
69.808	2.582	0.019	118.429	5.0	1	0.0	0.0	12.1587	955.0	2.0	Certain	0.3	-1.45	2.5825	Yes	n/a	-1.74943374858437	n/a	n/a	n/a	TrialHappPreview	Mixed
72.408	4.015	0.018	121.029	5.0	1	0.0	0.0	12.1587	955.0	2.0	Certain	0.3	-1.45	2.5825	Yes	n/a	-1.74943374858437	n/a	n/a	512.0	TrialHappiness	Mixed
72.408	0.0	n/a	121.029	5.0	1	0.0	0.0	12.1587	955.0	2.0	Certain	0.3	-1.45	2.5825	Yes	n/a	-1.74943374858437	n/a	n/a	512.0	TrialHappinessSliderResponse	Mixed
76.423	2.33	4.015	125.044	5.0	1	0.0	0.0	12.1587	955.0	2.0	Certain	0.3	-1.45	2.5825	Yes	n/a	-1.74943374858437	n/a	n/a	n/a	ISIRate	Mixed
78.772	3.0	0.019	127.393	6.0	1	7.49	3.74	13.0949	955.0	2.8	Outcome2	9.5	7.49	0.0	No	2.0	-2.01321253303133	1.385	80.157	n/a	GetAnswer	Gain
80.172	4.0	0.015	128.793	6.0	1	7.49	3.74	13.0949	955.0	2.8	Outcome2	9.5	7.49	0.0	No	n/a	-2.01321253303133	n/a	n/a	n/a	ShowChoice	Gain
84.187	1.0	0.015	132.808	6.0	1	7.49	3.74	13.0949	955.0	2.8	Outcome2	9.5	7.49	0.0	No	n/a	-2.01321253303133	n/a	n/a	n/a	ShowResult	Gain
85.203	6.232	0.016	133.824	6.0	1	7.49	3.74	13.0949	955.0	2.8	Outcome2	9.5	7.49	0.0	No	n/a	-2.01321253303133	n/a	n/a	n/a	ISITrial	Gain
91.451	3.0	0.016	140.072	7.0	1	10.64	5.32	14.4249	955.0	1.82	Outcome1	10.64	12.7	0.0	No	2.0	-2.05502076255191	1.36	92.811	n/a	GetAnswer	Loss
92.834	4.0	0.023	141.455	7.0	1	10.64	5.32	14.4249	955.0	1.82	Outcome1	10.64	12.7	0.0	No	n/a	-2.05502076255191	n/a	n/a	n/a	ShowChoice	Loss
96.849	1.0	0.015	145.47	7.0	1	10.64	5.32	14.4249	955.0	1.82	Outcome1	10.64	12.7	0.0	No	n/a	-2.05502076255191	n/a	n/a	n/a	ShowResult	Loss
97.865	2.305	0.016	146.486	7.0	1	10.64	5.32	14.4249	955.0	1.82	Outcome1	10.64	12.7	0.0	No	n/a	-2.05502076255191	n/a	n/a	n/a	ISITrial	Loss
100.198	3.0	0.028	148.819	8.0	1	-3.0	-3.0	14.0499	955.0	0.3	Certain	-8.41	2.7	3.1125	Yes	4.0	11.114382785957	1.703	101.901	n/a	GetAnswer	Mixed
101.914	4.0	0.013	150.535	8.0	1	-3.0	-3.0	14.0499	955.0	0.3	Certain	-8.41	2.7	3.1125	Yes	n/a	11.114382785957	n/a	n/a	n/a	ShowChoice	Mixed
105.929	1.0	0.015	154.55	8.0	1	-3.0	-3.0	14.0499	955.0	0.3	Certain	-8.41	2.7	3.1125	Yes	n/a	11.114382785957	n/a	n/a	n/a	ShowResult	Mixed
106.946	3.506	0.017	155.567	8.0	1	-3.0	-3.0	14.0499	955.0	0.3	Certain	-8.41	2.7	3.1125	Yes	n/a	11.114382785957	n/a	n/a	n/a	ISITrial	Mixed
110.478	3.112	0.026	159.099	8.0	1	-3.0	-3.0	14.0499	955.0	0.3	Certain	-8.41	2.7	3.1125	Yes	n/a	11.114382785957	n/a	n/a	n/a	TrialHappPreview	Mixed
113.61	4.015	0.02	162.231	8.0	1	-3.0	-3.0	14.0499	955.0	0.3	Certain	-8.41	2.7	3.1125	Yes	n/a	11.114382785957	n/a	n/a	560.0	TrialHappiness	Mixed
113.61	0.244	n/a	162.611	8.0	1	-3.0	-3.0	14.0499	955.0	0.3	Certain	-8.41	2.7	3.1125	Yes	n/a	11.114382785957	n/a	n/a	560.0	TrialHappinessSliderResponse	Mixed
117.625	4.45	4.015	166.246	8.0	1	-3.0	-3.0	14.0499	955.0	0.3	Certain	-8.41	2.7	3.1125	Yes	n/a	11.114382785957	n/a	n/a	n/a	ISIRate	Mixed
122.107	3.0	0.032	170.728	9.0	1	1.0	1.0	14.1749	955.0	2.22	Certain	-3.7	7.1	0.0	No	4.0	10.800679501698802	1.624	123.731	n/a	GetAnswer	Gain
123.756	4.0	0.025	172.377	9.0	1	1.0	1.0	14.1749	955.0	2.22	Certain	-3.7	7.1	0.0	No	n/a	10.800679501698802	n/a	n/a	n/a	ShowChoice	Gain
127.772	1.0	0.016	176.393	9.0	1	1.0	1.0	14.1749	955.0	2.22	Certain	-3.7	7.1	0.0	No	n/a	10.800679501698802	n/a	n/a	n/a	ShowResult	Gain
128.788	2.0	0.016	177.409	9.0	1	1.0	1.0	14.1749	955.0	2.22	Certain	-3.7	7.1	0.0	No	n/a	10.800679501698802	n/a	n/a	n/a	ISITrial	Gain
130.804	3.0	0.016	179.425	10.0	1	11.7	0.22	15.6374	955.0	3.16	Outcome2	0.45	11.7	4.0	Yes	2.0	11.248018120045302	1.488	132.292	n/a	GetAnswer	Loss
132.303	4.0	0.011	180.924	10.0	1	11.7	0.22	15.6374	955.0	3.16	Outcome2	0.45	11.7	4.0	Yes	n/a	11.248018120045302	n/a	n/a	n/a	ShowChoice	Loss
136.319	1.0	0.016	184.94	10.0	1	11.7	0.22	15.6374	955.0	3.16	Outcome2	0.45	11.7	4.0	Yes	n/a	11.248018120045302	n/a	n/a	n/a	ShowResult	Loss
137.335	2.0	0.016	185.956	10.0	1	11.7	0.22	15.6374	955.0	3.16	Outcome2	0.45	11.7	4.0	Yes	n/a	11.248018120045302	n/a	n/a	n/a	ISITrial	Loss
139.351	4.0	0.016	187.972	10.0	1	11.7	0.22	15.6374	955.0	3.16	Outcome2	0.45	11.7	4.0	Yes	n/a	11.248018120045302	n/a	n/a	n/a	TrialHappPreview	Loss
143.366	4.015	0.015	191.987	10.0	1	11.7	0.22	15.6374	955.0	3.16	Outcome2	0.45	11.7	4.0	Yes	n/a	11.248018120045302	n/a	n/a	632.0	TrialHappiness	Loss
143.367	0.755	n/a	192.357	10.0	1	11.7	0.22	15.6374	955.0	3.16	Outcome2	0.45	11.7	4.0	Yes	n/a	11.248018120045302	n/a	n/a	632.0	TrialHappinessSliderResponse	Loss
147.381	8.0	4.015	196.002	10.0	1	11.7	0.22	15.6374	955.0	3.16	Outcome2	0.45	11.7	4.0	Yes	n/a	11.248018120045302	n/a	n/a	n/a	ISIRate	Loss
155.412	3.0	0.031	204.033	11.0	1	-3.0	-3.0	15.2624	955.0	1.0	Certain	1.7	-8.77	0.0	No	4.0	10.4722536806342	1.504	156.916	n/a	GetAnswer	Mixed
156.945	4.0	0.029	205.566	11.0	1	-3.0	-3.0	15.2624	955.0	1.0	Certain	1.7	-8.77	0.0	No	n/a	10.4722536806342	n/a	n/a	n/a	ShowChoice	Mixed
160.96	1.0	0.015	209.581	11.0	1	-3.0	-3.0	15.2624	955.0	1.0	Certain	1.7	-8.77	0.0	No	n/a	10.4722536806342	n/a	n/a	n/a	ShowResult	Mixed
161.976	3.324	0.016	210.597	11.0	1	-3.0	-3.0	15.2624	955.0	1.0	Certain	1.7	-8.77	0.0	No	n/a	10.4722536806342	n/a	n/a	n/a	ISITrial	Mixed
165.325	3.0	0.025	213.946	12.0	1	13.1	1.13	16.8999	955.0	2.22	Outcome1	13.1	2.26	2.61875	Yes	2.0	10.8380520951302	1.47	166.795	n/a	GetAnswer	Loss
166.808	4.0	0.013	215.429	12.0	1	13.1	1.13	16.8999	955.0	2.22	Outcome1	13.1	2.26	2.61875	Yes	n/a	10.8380520951302	n/a	n/a	n/a	ShowChoice	Loss
170.823	1.0	0.015	219.444	12.0	1	13.1	1.13	16.8999	955.0	2.22	Outcome1	13.1	2.26	2.61875	Yes	n/a	10.8380520951302	n/a	n/a	n/a	ShowResult	Loss
171.84	6.642	0.017	220.461	12.0	1	13.1	1.13	16.8999	955.0	2.22	Outcome1	13.1	2.26	2.61875	Yes	n/a	10.8380520951302	n/a	n/a	n/a	ISITrial	Loss
178.504	2.619	0.022	227.125	12.0	1	13.1	1.13	16.8999	955.0	2.22	Outcome1	13.1	2.26	2.61875	Yes	n/a	10.8380520951302	n/a	n/a	n/a	TrialHappPreview	Loss
181.153	4.015	0.03	229.774	12.0	1	13.1	1.13	16.8999	955.0	2.22	Outcome1	13.1	2.26	2.61875	Yes	n/a	10.8380520951302	n/a	n/a	680.0	TrialHappiness	Loss
181.154	1.485	n/a	230.152	12.0	1	13.1	1.13	16.8999	955.0	2.22	Outcome1	13.1	2.26	2.61875	Yes	n/a	10.8380520951302	n/a	n/a	680.0	TrialHappinessSliderResponse	Loss
185.168	2.475	4.015	233.789	12.0	1	13.1	1.13	16.8999	955.0	2.22	Outcome1	13.1	2.26	2.61875	Yes	n/a	10.8380520951302	n/a	n/a	n/a	ISIRate	Loss
187.667	3.0	0.024	236.288	13.0	1	2.0	2.0	17.1499	955.0	3.16	Certain	-2.69	7.7	0.0	No	4.0	10.3884484711212	1.424	189.091	n/a	GetAnswer	Gain
189.117	4.0	0.026	237.738	13.0	1	2.0	2.0	17.1499	955.0	3.16	Certain	-2.69	7.7	0.0	No	n/a	10.3884484711212	n/a	n/a	n/a	ShowChoice	Gain
193.132	1.0	0.015	241.753	13.0	1	2.0	2.0	17.1499	955.0	3.16	Certain	-2.69	7.7	0.0	No	n/a	10.3884484711212	n/a	n/a	n/a	ShowResult	Gain
194.148	3.48	0.016	242.769	13.0	1	2.0	2.0	17.1499	955.0	3.16	Certain	-2.69	7.7	0.0	No	n/a	10.3884484711212	n/a	n/a	n/a	ISITrial	Gain
197.647	3.0	0.019	246.268	14.0	1	10.9	0.1	18.5124	955.0	2.0	Outcome2	0.2	10.9	0.0	No	2.0	10.6998867497169	1.913	199.56	n/a	GetAnswer	Loss
199.58	4.0	0.02	248.201	14.0	1	10.9	0.1	18.5124	955.0	2.0	Outcome2	0.2	10.9	0.0	No	n/a	10.6998867497169	n/a	n/a	n/a	ShowChoice	Loss
203.595	1.0	0.015	252.216	14.0	1	10.9	0.1	18.5124	955.0	2.0	Outcome2	0.2	10.9	0.0	No	n/a	10.6998867497169	n/a	n/a	n/a	ShowResult	Loss
204.611	5.019	0.016	253.232	14.0	1	10.9	0.1	18.5124	955.0	2.0	Outcome2	0.2	10.9	0.0	No	n/a	10.6998867497169	n/a	n/a	n/a	ISITrial	Loss
209.66	3.0	0.03	258.281	15.0	1	5.06	2.53	19.1449	955.0	1.82	Outcome1	5.06	6.7	3.3485	Yes	2.0	-1.64429973574934	1.257	210.917	n/a	GetAnswer	Gain
210.943	4.0	0.026	259.564	15.0	1	5.06	2.53	19.1449	955.0	1.82	Outcome1	5.06	6.7	3.3485	Yes	n/a	-1.64429973574934	n/a	n/a	n/a	ShowChoice	Gain
214.958	1.0	0.015	263.579	15.0	1	5.06	2.53	19.1449	955.0	1.82	Outcome1	5.06	6.7	3.3485	Yes	n/a	-1.64429973574934	n/a	n/a	n/a	ShowResult	Gain
215.974	7.614	0.016	264.595	15.0	1	5.06	2.53	19.1449	955.0	1.82	Outcome1	5.06	6.7	3.3485	Yes	n/a	-1.64429973574934	n/a	n/a	n/a	ISITrial	Gain
223.605	3.348	0.017	272.226	15.0	1	5.06	2.53	19.1449	955.0	1.82	Outcome1	5.06	6.7	3.3485	Yes	n/a	-1.64429973574934	n/a	n/a	n/a	TrialHappPreview	Gain
226.97	4.016	0.017	275.591	15.0	1	5.06	2.53	19.1449	955.0	1.82	Outcome1	5.06	6.7	3.3485	Yes	n/a	-1.64429973574934	n/a	n/a	636.0	TrialHappiness	Gain
226.971	2.543	n/a	276.163	15.0	1	5.06	2.53	19.1449	955.0	1.82	Outcome1	5.06	6.7	3.3485	Yes	n/a	-1.64429973574934	n/a	n/a	636.0	TrialHappinessSliderResponse	Gain
230.986	5.394	4.016	279.607	15.0	1	5.06	2.53	19.1449	955.0	1.82	Outcome1	5.06	6.7	3.3485	Yes	n/a	-1.64429973574934	n/a	n/a	n/a	ISIRate	Gain
236.4	3.0	0.02	285.021	16.0	1	-3.0	-3.0	18.7699	955.0	0.2	Certain	-9.57	2.5	0.0	No	4.0	12.070215175537902	1.308	237.708	n/a	GetAnswer	Mixed
237.733	4.0	0.024	286.354	16.0	1	-3.0	-3.0	18.7699	955.0	0.2	Certain	-9.57	2.5	0.0	No	n/a	12.070215175537902	n/a	n/a	n/a	ShowChoice	Mixed
241.749	1.0	0.016	290.37	16.0	1	-3.0	-3.0	18.7699	955.0	0.2	Certain	-9.57	2.5	0.0	No	n/a	12.070215175537902	n/a	n/a	n/a	ShowResult	Mixed
242.765	3.008	0.016	291.386	16.0	1	-3.0	-3.0	18.7699	955.0	0.2	Certain	-9.57	2.5	0.0	No	n/a	12.070215175537902	n/a	n/a	n/a	ISITrial	Mixed
245.797	3.0	0.024	294.418	17.0	1	4.22	2.11	19.2974	955.0	4.2	Outcome2	6.1	4.22	3.0415	Yes	2.0	-1.8789165722914296	1.178	246.975	n/a	GetAnswer	Gain
246.997	4.0	0.022	295.618	17.0	1	4.22	2.11	19.2974	955.0	4.2	Outcome2	6.1	4.22	3.0415	Yes	n/a	-1.8789165722914296	n/a	n/a	n/a	ShowChoice	Gain
251.012	1.0	0.015	299.633	17.0	1	4.22	2.11	19.2974	955.0	4.2	Outcome2	6.1	4.22	3.0415	Yes	n/a	-1.8789165722914296	n/a	n/a	n/a	ShowResult	Gain
252.028	3.566	0.016	300.649	17.0	1	4.22	2.11	19.2974	955.0	4.2	Outcome2	6.1	4.22	3.0415	Yes	n/a	-1.8789165722914296	n/a	n/a	n/a	ISITrial	Gain
255.61	3.042	0.016	304.231	17.0	1	4.22	2.11	19.2974	955.0	4.2	Outcome2	6.1	4.22	3.0415	Yes	n/a	-1.8789165722914296	n/a	n/a	n/a	TrialHappPreview	Gain
258.676	4.015	0.024	307.297	17.0	1	4.22	2.11	19.2974	955.0	4.2	Outcome2	6.1	4.22	3.0415	Yes	n/a	-1.8789165722914296	n/a	n/a	536.0	TrialHappiness	Gain
258.677	0.197	n/a	307.791	17.0	1	4.22	2.11	19.2974	955.0	4.2	Outcome2	6.1	4.22	3.0415	Yes	n/a	-1.8789165722914296	n/a	n/a	536.0	TrialHappinessSliderResponse	Gain
262.691	4.166	4.015	311.312	17.0	1	4.22	2.11	19.2974	955.0	4.2	Outcome2	6.1	4.22	3.0415	Yes	n/a	-1.8789165722914296	n/a	n/a	n/a	ISIRate	Gain
266.873	3.0	0.016	315.494	18.0	1	-2.0	-2.0	19.0474	955.0	2.0	Certain	-9.59	4.9	0.0	No	4.0	14.4915062287656	1.484	268.357	n/a	GetAnswer	Gain
268.373	4.0	0.016	316.994	18.0	1	-2.0	-2.0	19.0474	955.0	2.0	Certain	-9.59	4.9	0.0	No	n/a	14.4915062287656	n/a	n/a	n/a	ShowChoice	Gain
272.388	1.0	0.015	321.009	18.0	1	-2.0	-2.0	19.0474	955.0	2.0	Certain	-9.59	4.9	0.0	No	n/a	14.4915062287656	n/a	n/a	n/a	ShowResult	Gain
273.404	6.787	0.016	322.025	18.0	1	-2.0	-2.0	19.0474	955.0	2.0	Certain	-9.59	4.9	0.0	No	n/a	14.4915062287656	n/a	n/a	n/a	ISITrial	Gain
280.218	3.0	0.027	328.839	19.0	1	-4.0	-4.0	18.5474	955.0	0.4	Certain	2.9	-12.07	0.0	No	4.0	14.9660249150623	1.514	281.732	n/a	GetAnswer	Mixed
281.751	4.0	0.019	330.372	19.0	1	-4.0	-4.0	18.5474	955.0	0.4	Certain	2.9	-12.07	0.0	No	n/a	14.9660249150623	n/a	n/a	n/a	ShowChoice	Mixed
285.766	1.0	0.015	334.387	19.0	1	-4.0	-4.0	18.5474	955.0	0.4	Certain	2.9	-12.07	0.0	No	n/a	14.9660249150623	n/a	n/a	n/a	ShowResult	Mixed
286.783	2.0	0.017	335.404	19.0	1	-4.0	-4.0	18.5474	955.0	0.4	Certain	2.9	-12.07	0.0	No	n/a	14.9660249150623	n/a	n/a	n/a	ISITrial	Mixed
288.799	3.0	0.016	337.42	20.0	1	-2.37	-2.37	18.2512	955.0	1.82	Certain	-4.74	10.7	2.92125	Yes	4.0	15.440543601359	1.436	290.235	n/a	GetAnswer	Loss
290.248	4.0	0.013	338.869	20.0	1	-2.37	-2.37	18.2512	955.0	1.82	Certain	-4.74	10.7	2.92125	Yes	n/a	15.440543601359	n/a	n/a	n/a	ShowChoice	Loss
294.264	1.0	0.016	342.885	20.0	1	-2.37	-2.37	18.2512	955.0	1.82	Certain	-4.74	10.7	2.92125	Yes	n/a	15.440543601359	n/a	n/a	n/a	ShowResult	Loss
295.28	8.0	0.016	343.901	20.0	1	-2.37	-2.37	18.2512	955.0	1.82	Certain	-4.74	10.7	2.92125	Yes	n/a	15.440543601359	n/a	n/a	n/a	ISITrial	Loss
303.294	2.921	0.014	351.915	20.0	1	-2.37	-2.37	18.2512	955.0	1.82	Certain	-4.74	10.7	2.92125	Yes	n/a	15.440543601359	n/a	n/a	n/a	TrialHappPreview	Loss
306.243	4.015	0.028	354.864	20.0	1	-2.37	-2.37	18.2512	955.0	1.82	Certain	-4.74	10.7	2.92125	Yes	n/a	15.440543601359	n/a	n/a	496.0	TrialHappiness	Loss
306.243	0.182	n/a	355.355	20.0	1	-2.37	-2.37	18.2512	955.0	1.82	Certain	-4.74	10.7	2.92125	Yes	n/a	15.440543601359	n/a	n/a	496.0	TrialHappinessSliderResponse	Loss
310.258	3.685	4.015	358.879	20.0	1	-2.37	-2.37	18.2512	955.0	1.82	Certain	-4.74	10.7	2.92125	Yes	n/a	15.440543601359	n/a	n/a	n/a	ISIRate	Loss
313.973	3.0	0.03	362.594	21.0	1	11.9	-2.35	19.7387	955.0	3.6	Outcome2	-4.69	11.9	0.0	No	2.0	16.59456398641	2.062	316.035	n/a	GetAnswer	Loss
316.056	4.0	0.021	364.677	21.0	1	11.9	-2.35	19.7387	955.0	3.6	Outcome2	-4.69	11.9	0.0	No	n/a	16.59456398641	n/a	n/a	n/a	ShowChoice	Loss
320.071	1.0	0.015	368.692	21.0	1	11.9	-2.35	19.7387	955.0	3.6	Outcome2	-4.69	11.9	0.0	No	n/a	16.59456398641	n/a	n/a	n/a	ShowResult	Loss
321.088	3.555	0.017	369.709	21.0	1	11.9	-2.35	19.7387	955.0	3.6	Outcome2	-4.69	11.9	0.0	No	n/a	16.59456398641	n/a	n/a	n/a	ISITrial	Loss
324.67	3.0	0.027	373.291	22.0	1	-8.0	-8.0	18.7387	955.0	0.3	Certain	0.7	-16.41	3.2195	Yes	4.0	17.114382785957	1.53	326.2	n/a	GetAnswer	Mixed
326.219	4.0	0.019	374.84	22.0	1	-8.0	-8.0	18.7387	955.0	0.3	Certain	0.7	-16.41	3.2195	Yes	n/a	17.114382785957	n/a	n/a	n/a	ShowChoice	Mixed
330.234	1.0	0.015	378.855	22.0	1	-8.0	-8.0	18.7387	955.0	0.3	Certain	0.7	-16.41	3.2195	Yes	n/a	17.114382785957	n/a	n/a	n/a	ShowResult	Mixed
331.251	6.793	0.017	379.872	22.0	1	-8.0	-8.0	18.7387	955.0	0.3	Certain	0.7	-16.41	3.2195	Yes	n/a	17.114382785957	n/a	n/a	n/a	ISITrial	Mixed
338.065	3.22	0.021	386.686	22.0	1	-8.0	-8.0	18.7387	955.0	0.3	Certain	0.7	-16.41	3.2195	Yes	n/a	17.114382785957	n/a	n/a	n/a	TrialHappPreview	Mixed
341.314	4.015	0.029	389.935	22.0	1	-8.0	-8.0	18.7387	955.0	0.3	Certain	0.7	-16.41	3.2195	Yes	n/a	17.114382785957	n/a	n/a	532.0	TrialHappiness	Mixed
341.314	0.133	n/a	390.553	22.0	1	-8.0	-8.0	18.7387	955.0	0.3	Certain	0.7	-16.41	3.2195	Yes	n/a	17.114382785957	n/a	n/a	532.0	TrialHappinessSliderResponse	Mixed
345.329	4.878	4.015	393.95	22.0	1	-8.0	-8.0	18.7387	955.0	0.3	Certain	0.7	-16.41	3.2195	Yes	n/a	17.114382785957	n/a	n/a	n/a	ISIRate	Mixed
350.227	3.0	0.02	398.848	23.0	1	-4.0	-4.0	18.2387	955.0	1.5	Certain	4.1	-12.92	0.0	No	4.0	17.0226500566251	2.04	352.267	n/a	GetAnswer	Mixed
352.293	4.0	0.026	400.914	23.0	1	-4.0	-4.0	18.2387	955.0	1.5	Certain	4.1	-12.92	0.0	No	n/a	17.0226500566251	n/a	n/a	n/a	ShowChoice	Mixed
356.309	1.0	0.016	404.93	23.0	1	-4.0	-4.0	18.2387	955.0	1.5	Certain	4.1	-12.92	0.0	No	n/a	17.0226500566251	n/a	n/a	n/a	ShowResult	Mixed
357.325	8.0	0.016	405.946	23.0	1	-4.0	-4.0	18.2387	955.0	1.5	Certain	4.1	-12.92	0.0	No	n/a	17.0226500566251	n/a	n/a	n/a	ISITrial	Mixed
365.355	3.0	0.03	413.976	24.0	1	10.32	5.16	19.5287	955.0	2.0	Outcome2	12.9	10.32	3.255	Yes	2.0	-2.5762551906379803	1.295	366.65	n/a	GetAnswer	Loss
366.672	4.0	0.022	415.293	24.0	1	10.32	5.16	19.5287	955.0	2.0	Outcome2	12.9	10.32	3.255	Yes	n/a	-2.5762551906379803	n/a	n/a	n/a	ShowChoice	Loss
370.687	1.0	0.015	419.308	24.0	1	10.32	5.16	19.5287	955.0	2.0	Outcome2	12.9	10.32	3.255	Yes	n/a	-2.5762551906379803	n/a	n/a	n/a	ShowResult	Loss
371.703	2.0	0.016	420.324	24.0	1	10.32	5.16	19.5287	955.0	2.0	Outcome2	12.9	10.32	3.255	Yes	n/a	-2.5762551906379803	n/a	n/a	n/a	ISITrial	Loss
373.719	3.255	0.016	422.34	24.0	1	10.32	5.16	19.5287	955.0	2.0	Outcome2	12.9	10.32	3.255	Yes	n/a	-2.5762551906379803	n/a	n/a	n/a	TrialHappPreview	Loss
377.001	4.016	0.027	425.622	24.0	1	10.32	5.16	19.5287	955.0	2.0	Outcome2	12.9	10.32	3.255	Yes	n/a	-2.5762551906379803	n/a	n/a	576.0	TrialHappiness	Loss
377.002	0.281	n/a	426.048	24.0	1	10.32	5.16	19.5287	955.0	2.0	Outcome2	12.9	10.32	3.255	Yes	n/a	-2.5762551906379803	n/a	n/a	576.0	TrialHappinessSliderResponse	Loss
381.017	5.02	4.016	429.638	24.0	1	10.32	5.16	19.5287	955.0	2.0	Outcome2	12.9	10.32	3.255	Yes	n/a	-2.5762551906379803	n/a	n/a	n/a	ISIRate	Loss
386.065	3.0	0.028	434.686	25.0	1	13.3	-1.96	21.1912	955.0	2.48	Outcome2	-3.93	13.3	0.0	No	2.0	17.233295583239	2.278	388.343	n/a	GetAnswer	Loss
388.364	4.0	0.02	436.985	25.0	1	13.3	-1.96	21.1912	955.0	2.48	Outcome2	-3.93	13.3	0.0	No	n/a	17.233295583239	n/a	n/a	n/a	ShowChoice	Loss
392.379	1.0	0.015	441.0	25.0	1	13.3	-1.96	21.1912	955.0	2.48	Outcome2	-3.93	13.3	0.0	No	n/a	17.233295583239	n/a	n/a	n/a	ShowResult	Loss
393.396	3.749	0.017	442.017	25.0	1	13.3	-1.96	21.1912	955.0	2.48	Outcome2	-3.93	13.3	0.0	No	n/a	17.233295583239	n/a	n/a	n/a	ISITrial	Loss
397.178	3.0	0.033	445.799	26.0	1	-2.68	-2.68	20.8562	955.0	5.0	Certain	-5.36	12.3	0.0	No	4.0	17.662514156285397	1.621	398.799	n/a	GetAnswer	Loss
398.81	4.0	0.011	447.431	26.0	1	-2.68	-2.68	20.8562	955.0	5.0	Certain	-5.36	12.3	0.0	No	n/a	17.662514156285397	n/a	n/a	n/a	ShowChoice	Loss
402.826	1.0	0.016	451.447	26.0	1	-2.68	-2.68	20.8562	955.0	5.0	Certain	-5.36	12.3	0.0	No	n/a	17.662514156285397	n/a	n/a	n/a	ShowResult	Loss
403.842	7.834	0.016	452.463	26.0	1	-2.68	-2.68	20.8562	955.0	5.0	Certain	-5.36	12.3	0.0	No	n/a	17.662514156285397	n/a	n/a	n/a	ISITrial	Loss
411.706	3.0	0.03	460.327	27.0	1	2.0	2.0	21.1062	955.0	2.48	Certain	-6.79	11.3	2.54975	Yes	4.0	18.0917327293318	1.582	413.288	n/a	GetAnswer	Loss
413.305	4.0	0.017	461.926	27.0	1	2.0	2.0	21.1062	955.0	2.48	Certain	-6.79	11.3	2.54975	Yes	n/a	18.0917327293318	n/a	n/a	n/a	ShowChoice	Loss
417.321	1.0	0.016	465.942	27.0	1	2.0	2.0	21.1062	955.0	2.48	Certain	-6.79	11.3	2.54975	Yes	n/a	18.0917327293318	n/a	n/a	n/a	ShowResult	Loss
418.337	4.225	0.016	466.958	27.0	1	2.0	2.0	21.1062	955.0	2.48	Certain	-6.79	11.3	2.54975	Yes	n/a	18.0917327293318	n/a	n/a	n/a	ISITrial	Loss
422.585	2.55	0.023	471.206	27.0	1	2.0	2.0	21.1062	955.0	2.48	Certain	-6.79	11.3	2.54975	Yes	n/a	18.0917327293318	n/a	n/a	n/a	TrialHappPreview	Loss
425.151	4.015	0.016	473.772	27.0	1	2.0	2.0	21.1062	955.0	2.48	Certain	-6.79	11.3	2.54975	Yes	n/a	18.0917327293318	n/a	n/a	560.0	TrialHappiness	Loss
425.152	0.239	n/a	474.158	27.0	1	2.0	2.0	21.1062	955.0	2.48	Certain	-6.79	11.3	2.54975	Yes	n/a	18.0917327293318	n/a	n/a	560.0	TrialHappinessSliderResponse	Loss
429.166	2.199	4.015	477.787	27.0	1	2.0	2.0	21.1062	955.0	2.48	Certain	-6.79	11.3	2.54975	Yes	n/a	18.0917327293318	n/a	n/a	n/a	ISIRate	Loss
515.154	1.496	n/a	564.176	n/a	1	n/a	n/a	n/a	n/a	n/a	n/a	n/a	n/a	n/a	n/a	n/a	n/a	n/a	n/a	564.0	BlockStartHappinessSliderResponse	n/a
-98.266	-0.001	0.017	480.003	n/a	2	n/a	n/a	n/a	n/a	n/a	n/a	n/a	n/a	n/a	n/a	{SPACE}	n/a	79.73	-18.536	n/a	Rest	n/a
-18.51	4.0	0.026	559.759	n/a	2	n/a	n/a	n/a	n/a	n/a	n/a	n/a	n/a	n/a	n/a	n/a	n/a	n/a	n/a	n/a	BlockHappyPreview	n/a
-14.495	1.897	0.015	563.774	n/a	2	n/a	n/a	n/a	n/a	n/a	n/a	n/a	n/a	n/a	n/a	n/a	n/a	n/a	n/a	564.0	BlockStartHappiness	n/a
-4.065	-0.001	0.023	574.204	n/a	2	n/a	n/a	n/a	n/a	n/a	n/a	n/a	n/a	n/a	n/a	5.0	n/a	4.041	-0.024	n/a	ScanWait	n/a
0.0	10.0	0.024	578.269	n/a	2	n/a	n/a	n/a	n/a	n/a	n/a	n/a	n/a	n/a	n/a	n/a	n/a	n/a	n/a	n/a	GetReady	n/a
10.013	3.0	0.013	588.282	28.0	2	0.0	0.0	21.1062	70.0	3.6	Certain	1.48	-0.53	0.0	No	4.0	2.00699168556311	1.467	11.48	n/a	GetAnswer	Gain
11.496	4.0	0.015	589.765	28.0	2	0.0	0.0	21.1062	70.0	3.6	Certain	1.48	-0.53	0.0	No	n/a	2.00699168556311	n/a	n/a	n/a	ShowChoice	Gain
15.511	1.0	0.015	593.78	28.0	2	0.0	0.0	21.1062	70.0	3.6	Certain	1.48	-0.53	0.0	No	n/a	2.00699168556311	n/a	n/a	n/a	ShowResult	Gain
16.528	3.575	0.017	594.797	28.0	2	0.0	0.0	21.1062	70.0	3.6	Certain	1.48	-0.53	0.0	No	n/a	2.00699168556311	n/a	n/a	n/a	ISITrial	Gain
20.126	3.0	0.023	598.395	29.0	2	-4.0	-4.0	20.6062	70.0	0.2	Certain	0.5	-8.46	3.529	Yes	4.0	-8.96145124716553	1.733	21.859	n/a	GetAnswer	Mixed
21.876	4.0	0.017	600.145	29.0	2	-4.0	-4.0	20.6062	70.0	0.2	Certain	0.5	-8.46	3.529	Yes	n/a	-8.96145124716553	n/a	n/a	n/a	ShowChoice	Mixed
25.891	1.0	0.015	604.16	29.0	2	-4.0	-4.0	20.6062	70.0	0.2	Certain	0.5	-8.46	3.529	Yes	n/a	-8.96145124716553	n/a	n/a	n/a	ShowResult	Mixed
26.907	3.955	0.016	605.176	29.0	2	-4.0	-4.0	20.6062	70.0	0.2	Certain	0.5	-8.46	3.529	Yes	n/a	-8.96145124716553	n/a	n/a	n/a	ISITrial	Mixed
30.873	3.529	0.011	609.142	29.0	2	-4.0	-4.0	20.6062	70.0	0.2	Certain	0.5	-8.46	3.529	Yes	n/a	-8.96145124716553	n/a	n/a	n/a	TrialHappPreview	Mixed
34.421	4.016	0.019	612.69	29.0	2	-4.0	-4.0	20.6062	70.0	0.2	Certain	0.5	-8.46	3.529	Yes	n/a	-8.96145124716553	n/a	n/a	492.0	TrialHappiness	Mixed
34.422	0.122	n/a	615.573	29.0	2	-4.0	-4.0	20.6062	70.0	0.2	Certain	0.5	-8.46	3.529	Yes	n/a	-8.96145124716553	n/a	n/a	492.0	TrialHappinessSliderResponse	Mixed
38.437	6.116	4.016	616.706	29.0	2	-4.0	-4.0	20.6062	70.0	0.2	Certain	0.5	-8.46	3.529	Yes	n/a	-8.96145124716553	n/a	n/a	n/a	ISIRate	Mixed
44.585	3.0	0.032	622.854	30.0	2	-0.2	-0.1	20.5812	70.0	4.2	Outcome2	8.1	-0.2	0.0	No	2.0	-8.29705215419501	1.574	46.159	n/a	GetAnswer	Gain
46.184	4.0	0.025	624.453	30.0	2	-0.2	-0.1	20.5812	70.0	4.2	Outcome2	8.1	-0.2	0.0	No	n/a	-8.29705215419501	n/a	n/a	n/a	ShowChoice	Gain
50.199	1.0	0.015	628.468	30.0	2	-0.2	-0.1	20.5812	70.0	4.2	Outcome2	8.1	-0.2	0.0	No	n/a	-8.29705215419501	n/a	n/a	n/a	ShowResult	Gain
51.216	4.453	0.017	629.485	30.0	2	-0.2	-0.1	20.5812	70.0	4.2	Outcome2	8.1	-0.2	0.0	No	n/a	-8.29705215419501	n/a	n/a	n/a	ISITrial	Gain
55.697	3.0	0.028	633.966	31.0	2	0.32	0.16	20.6212	70.0	2.22	Outcome2	9.1	0.32	2.50325	Yes	2.0	-8.775510204081629	1.898	57.595	n/a	GetAnswer	Gain
57.613	4.0	0.018	635.882	31.0	2	0.32	0.16	20.6212	70.0	2.22	Outcome2	9.1	0.32	2.50325	Yes	n/a	-8.775510204081629	n/a	n/a	n/a	ShowChoice	Gain
61.629	1.0	0.016	639.898	31.0	2	0.32	0.16	20.6212	70.0	2.22	Outcome2	9.1	0.32	2.50325	Yes	n/a	-8.775510204081629	n/a	n/a	n/a	ShowResult	Gain
62.645	4.786	0.016	640.914	31.0	2	0.32	0.16	20.6212	70.0	2.22	Outcome2	9.1	0.32	2.50325	Yes	n/a	-8.775510204081629	n/a	n/a	n/a	ISITrial	Gain
67.443	2.503	0.012	645.712	31.0	2	0.32	0.16	20.6212	70.0	2.22	Outcome2	9.1	0.32	2.50325	Yes	n/a	-8.775510204081629	n/a	n/a	n/a	TrialHappPreview	Gain
69.976	4.015	0.03	648.245	31.0	2	0.32	0.16	20.6212	70.0	2.22	Outcome2	9.1	0.32	2.50325	Yes	4{-4}	-8.775510204081629	0.872	70.848	424.0	TrialHappiness	Gain
69.976	0.329	n/a	648.788	31.0	2	0.32	0.16	20.6212	70.0	2.22	Outcome2	9.1	0.32	2.50325	Yes	n/a	-8.775510204081629	n/a	n/a	424.0	TrialHappinessSliderResponse	Gain
73.991	2.013	4.015	652.26	31.0	2	0.32	0.16	20.6212	70.0	2.22	Outcome2	9.1	0.32	2.50325	Yes	n/a	-8.775510204081629	n/a	n/a	n/a	ISIRate	Gain
76.024	3.0	0.02	654.293	32.0	2	2.62	2.0	20.9487	70.0	1.68	Outcome2	1.01	2.62	0.0	No	2.0	1.61130007558579	1.802	77.826	n/a	GetAnswer	Loss
77.84	4.0	0.014	656.109	32.0	2	2.62	2.0	20.9487	70.0	1.68	Outcome2	1.01	2.62	0.0	No	n/a	1.61130007558579	n/a	n/a	n/a	ShowChoice	Loss
81.855	1.0	0.015	660.124	32.0	2	2.62	2.0	20.9487	70.0	1.68	Outcome2	1.01	2.62	0.0	No	n/a	1.61130007558579	n/a	n/a	n/a	ShowResult	Loss
82.871	2.0	0.016	661.14	32.0	2	2.62	2.0	20.9487	70.0	1.68	Outcome2	1.01	2.62	0.0	No	n/a	1.61130007558579	n/a	n/a	n/a	ISITrial	Loss
84.887	3.0	0.016	663.156	33.0	2	1.0	1.0	21.0737	70.0	3.16	Certain	5.7	-2.8	0.0	No	4.0	-8.49886621315193	1.463	86.35	n/a	GetAnswer	Gain
86.37	4.0	0.02	664.639	33.0	2	1.0	1.0	21.0737	70.0	3.16	Certain	5.7	-2.8	0.0	No	n/a	-8.49886621315193	n/a	n/a	n/a	ShowChoice	Gain
90.385	1.0	0.015	668.654	33.0	2	1.0	1.0	21.0737	70.0	3.16	Certain	5.7	-2.8	0.0	No	n/a	-8.49886621315193	n/a	n/a	n/a	ShowResult	Gain
91.402	5.099	0.017	669.671	33.0	2	1.0	1.0	21.0737	70.0	3.16	Certain	5.7	-2.8	0.0	No	n/a	-8.49886621315193	n/a	n/a	n/a	ISITrial	Gain
96.516	3.0	0.015	674.785	34.0	2	-1.0	-1.0	20.9487	70.0	0.52	Certain	-0.22	-1.9	3.2315	Yes	4.0	1.6781934996220702	2.457	98.973	n/a	GetAnswer	Mixed
98.999	4.0	0.026	677.268	34.0	2	-1.0	-1.0	20.9487	70.0	0.52	Certain	-0.22	-1.9	3.2315	Yes	n/a	1.6781934996220702	n/a	n/a	n/a	ShowChoice	Mixed
103.014	1.0	0.015	681.283	34.0	2	-1.0	-1.0	20.9487	70.0	0.52	Certain	-0.22	-1.9	3.2315	Yes	n/a	1.6781934996220702	n/a	n/a	n/a	ShowResult	Mixed
104.03	4.784	0.016	682.299	34.0	2	-1.0	-1.0	20.9487	70.0	0.52	Certain	-0.22	-1.9	3.2315	Yes	n/a	1.6781934996220702	n/a	n/a	n/a	ISITrial	Mixed
108.829	3.232	0.015	687.098	34.0	2	-1.0	-1.0	20.9487	70.0	0.52	Certain	-0.22	-1.9	3.2315	Yes	n/a	1.6781934996220702	n/a	n/a	n/a	TrialHappPreview	Mixed
112.078	4.015	0.017	690.347	34.0	2	-1.0	-1.0	20.9487	70.0	0.52	Certain	-0.22	-1.9	3.2315	Yes	n/a	1.6781934996220702	n/a	n/a	436.0	TrialHappiness	Mixed
112.078	1.001	n/a	690.722	34.0	2	-1.0	-1.0	20.9487	70.0	0.52	Certain	-0.22	-1.9	3.2315	Yes	n/a	1.6781934996220702	n/a	n/a	436.0	TrialHappinessSliderResponse	Mixed
116.093	4.926	4.015	694.362	34.0	2	-1.0	-1.0	20.9487	70.0	0.52	Certain	-0.22	-1.9	3.2315	Yes	n/a	1.6781934996220702	n/a	n/a	n/a	ISIRate	Mixed
121.041	3.0	0.022	699.31	35.0	2	0.0	0.0	20.9487	70.0	1.5	Certain	-1.24	0.52	0.0	No	4.0	1.76039304610733	1.743	122.784	n/a	GetAnswer	Mixed
122.807	4.0	0.023	701.076	35.0	2	0.0	0.0	20.9487	70.0	1.5	Certain	-1.24	0.52	0.0	No	n/a	1.76039304610733	n/a	n/a	n/a	ShowChoice	Mixed
126.822	1.0	0.015	705.091	35.0	2	0.0	0.0	20.9487	70.0	1.5	Certain	-1.24	0.52	0.0	No	n/a	1.76039304610733	n/a	n/a	n/a	ShowResult	Mixed
127.839	2.098	0.017	706.108	35.0	2	0.0	0.0	20.9487	70.0	1.5	Certain	-1.24	0.52	0.0	No	n/a	1.76039304610733	n/a	n/a	n/a	ISITrial	Mixed
129.955	3.0	0.018	708.224	36.0	2	-6.0	-6.0	20.1987	70.0	0.4	Certain	-11.02	-1.1	3.33575	Yes	4.0	-9.92063492063492	2.858	132.813	n/a	GetAnswer	Mixed
132.837	4.0	0.024	711.106	36.0	2	-6.0	-6.0	20.1987	70.0	0.4	Certain	-11.02	-1.1	3.33575	Yes	n/a	-9.92063492063492	n/a	n/a	n/a	ShowChoice	Mixed
136.852	1.0	0.015	715.121	36.0	2	-6.0	-6.0	20.1987	70.0	0.4	Certain	-11.02	-1.1	3.33575	Yes	n/a	-9.92063492063492	n/a	n/a	n/a	ShowResult	Mixed
137.869	5.156	0.017	716.138	36.0	2	-6.0	-6.0	20.1987	70.0	0.4	Certain	-11.02	-1.1	3.33575	Yes	n/a	-9.92063492063492	n/a	n/a	n/a	ISITrial	Mixed
143.05	3.336	0.025	721.319	36.0	2	-6.0	-6.0	20.1987	70.0	0.4	Certain	-11.02	-1.1	3.33575	Yes	n/a	-9.92063492063492	n/a	n/a	n/a	TrialHappPreview	Mixed
146.416	4.015	0.03	724.685	36.0	2	-6.0	-6.0	20.1987	70.0	0.4	Certain	-11.02	-1.1	3.33575	Yes	n/a	-9.92063492063492	n/a	n/a	428.0	TrialHappiness	Mixed
146.416	1.43	n/a	725.049	36.0	2	-6.0	-6.0	20.1987	70.0	0.4	Certain	-11.02	-1.1	3.33575	Yes	n/a	-9.92063492063492	n/a	n/a	428.0	TrialHappinessSliderResponse	Mixed
150.431	5.343	4.015	728.7	36.0	2	-6.0	-6.0	20.1987	70.0	0.4	Certain	-11.02	-1.1	3.33575	Yes	n/a	-9.92063492063492	n/a	n/a	n/a	ISIRate	Mixed
155.796	3.0	0.022	734.065	37.0	2	-5.0	-5.0	19.5737	70.0	1.5	Certain	0.1	-10.1	0.0	No	4.0	-10.199546485260802	2.051	157.847	n/a	GetAnswer	Mixed
157.862	4.0	0.015	736.131	37.0	2	-5.0	-5.0	19.5737	70.0	1.5	Certain	0.1	-10.1	0.0	No	n/a	-10.199546485260802	n/a	n/a	n/a	ShowChoice	Mixed
161.877	1.0	0.015	740.146	37.0	2	-5.0	-5.0	19.5737	70.0	1.5	Certain	0.1	-10.1	0.0	No	n/a	-10.199546485260802	n/a	n/a	n/a	ShowResult	Mixed
162.893	3.598	0.016	741.162	37.0	2	-5.0	-5.0	19.5737	70.0	1.5	Certain	0.1	-10.1	0.0	No	n/a	-10.199546485260802	n/a	n/a	n/a	ISITrial	Mixed
166.509	3.0	0.018	744.778	38.0	2	3.09	1.54	19.96	70.0	3.16	Outcome1	3.09	13.7	0.0	No	2.0	-10.6054421768707	1.325	167.834	n/a	GetAnswer	Loss
167.858	4.0	0.024	746.127	38.0	2	3.09	1.54	19.96	70.0	3.16	Outcome1	3.09	13.7	0.0	No	n/a	-10.6054421768707	n/a	n/a	n/a	ShowChoice	Loss
171.873	1.0	0.015	750.142	38.0	2	3.09	1.54	19.96	70.0	3.16	Outcome1	3.09	13.7	0.0	No	n/a	-10.6054421768707	n/a	n/a	n/a	ShowResult	Loss
172.89	4.787	0.017	751.159	38.0	2	3.09	1.54	19.96	70.0	3.16	Outcome1	3.09	13.7	0.0	No	n/a	-10.6054421768707	n/a	n/a	n/a	ISITrial	Loss
177.705	3.0	0.028	755.974	39.0	2	2.42	1.0	20.2625	70.0	3.16	Outcome2	0.56	2.42	2.86425	Yes	2.0	1.8647014361300096	2.183	179.888	n/a	GetAnswer	Gain
179.904	4.0	0.016	758.173	39.0	2	2.42	1.0	20.2625	70.0	3.16	Outcome2	0.56	2.42	2.86425	Yes	n/a	1.8647014361300096	n/a	n/a	n/a	ShowChoice	Gain
183.919	1.0	0.015	762.188	39.0	2	2.42	1.0	20.2625	70.0	3.16	Outcome2	0.56	2.42	2.86425	Yes	n/a	1.8647014361300096	n/a	n/a	n/a	ShowResult	Gain
184.936	2.348	0.017	763.205	39.0	2	2.42	1.0	20.2625	70.0	3.16	Outcome2	0.56	2.42	2.86425	Yes	n/a	1.8647014361300096	n/a	n/a	n/a	ISITrial	Gain
187.301	2.864	0.017	765.57	39.0	2	2.42	1.0	20.2625	70.0	3.16	Outcome2	0.56	2.42	2.86425	Yes	n/a	1.8647014361300096	n/a	n/a	n/a	TrialHappPreview	Gain
190.184	4.015	0.019	768.453	39.0	2	2.42	1.0	20.2625	70.0	3.16	Outcome2	0.56	2.42	2.86425	Yes	n/a	1.8647014361300096	n/a	n/a	424.0	TrialHappiness	Gain
190.184	2.422	n/a	768.835	39.0	2	2.42	1.0	20.2625	70.0	3.16	Outcome2	0.56	2.42	2.86425	Yes	n/a	1.8647014361300096	n/a	n/a	424.0	TrialHappinessSliderResponse	Gain
194.199	3.457	4.015	772.468	39.0	2	2.42	1.0	20.2625	70.0	3.16	Outcome2	0.56	2.42	2.86425	Yes	n/a	1.8647014361300096	n/a	n/a	n/a	ISIRate	Gain
197.681	3.0	0.025	775.95	40.0	2	-2.45	-1.23	19.9563	70.0	2.0	Outcome2	8.9	-2.45	0.0	No	2.0	-11.3492063492064	1.907	199.588	n/a	GetAnswer	Gain
199.614	4.0	0.026	777.883	40.0	2	-2.45	-1.23	19.9563	70.0	2.0	Outcome2	8.9	-2.45	0.0	No	n/a	-11.3492063492064	n/a	n/a	n/a	ShowChoice	Gain
203.629	1.0	0.015	781.898	40.0	2	-2.45	-1.23	19.9563	70.0	2.0	Outcome2	8.9	-2.45	0.0	No	n/a	-11.3492063492064	n/a	n/a	n/a	ShowResult	Gain
204.645	3.158	0.016	782.914	40.0	2	-2.45	-1.23	19.9563	70.0	2.0	Outcome2	8.9	-2.45	0.0	No	n/a	-11.3492063492064	n/a	n/a	n/a	ISITrial	Gain
207.828	3.0	0.025	786.097	41.0	2	-0.25	-0.12	19.9251	70.0	2.8	Outcome2	11.5	-0.25	4.0	Yes	2.0	-11.750566893424	1.654	209.482	n/a	GetAnswer	Loss
209.494	4.0	0.012	787.763	41.0	2	-0.25	-0.12	19.9251	70.0	2.8	Outcome2	11.5	-0.25	4.0	Yes	n/a	-11.750566893424	n/a	n/a	n/a	ShowChoice	Loss
213.509	1.0	0.015	791.778	41.0	2	-0.25	-0.12	19.9251	70.0	2.8	Outcome2	11.5	-0.25	4.0	Yes	n/a	-11.750566893424	n/a	n/a	n/a	ShowResult	Loss
214.525	4.506	0.016	792.794	41.0	2	-0.25	-0.12	19.9251	70.0	2.8	Outcome2	11.5	-0.25	4.0	Yes	n/a	-11.750566893424	n/a	n/a	n/a	ISITrial	Loss
219.057	4.0	0.026	797.326	41.0	2	-0.25	-0.12	19.9251	70.0	2.8	Outcome2	11.5	-0.25	4.0	Yes	n/a	-11.750566893424	n/a	n/a	n/a	TrialHappPreview	Loss
223.072	4.016	0.015	801.341	41.0	2	-0.25	-0.12	19.9251	70.0	2.8	Outcome2	11.5	-0.25	4.0	Yes	n/a	-11.750566893424	n/a	n/a	404.0	TrialHappiness	Loss
223.073	2.267	n/a	802.394	41.0	2	-0.25	-0.12	19.9251	70.0	2.8	Outcome2	11.5	-0.25	4.0	Yes	n/a	-11.750566893424	n/a	n/a	404.0	TrialHappinessSliderResponse	Loss
227.088	8.0	4.016	805.357	41.0	2	-0.25	-0.12	19.9251	70.0	2.8	Outcome2	11.5	-0.25	4.0	Yes	n/a	-11.750566893424	n/a	n/a	n/a	ISIRate	Loss
235.118	3.0	0.03	813.387	42.0	2	-2.0	-2.0	19.6751	70.0	1.2	Certain	3.9	-7.91	0.0	No	4.0	-11.81179138322	2.143	237.261	n/a	GetAnswer	Mixed
237.284	4.0	0.023	815.553	42.0	2	-2.0	-2.0	19.6751	70.0	1.2	Certain	3.9	-7.91	0.0	No	n/a	-11.81179138322	n/a	n/a	n/a	ShowChoice	Mixed
241.299	1.0	0.015	819.568	42.0	2	-2.0	-2.0	19.6751	70.0	1.2	Certain	3.9	-7.91	0.0	No	n/a	-11.81179138322	n/a	n/a	n/a	ShowResult	Mixed
242.316	6.248	0.017	820.585	42.0	2	-2.0	-2.0	19.6751	70.0	1.2	Certain	3.9	-7.91	0.0	No	n/a	-11.81179138322	n/a	n/a	n/a	ISITrial	Mixed
248.58	3.0	0.016	826.849	43.0	2	-1.0	-1.0	19.5501	70.0	1.0	Certain	-0.08	-1.98	2.77575	Yes	4.0	1.8994708994709	2.163	250.743	n/a	GetAnswer	Mixed
250.763	4.0	0.02	829.032	43.0	2	-1.0	-1.0	19.5501	70.0	1.0	Certain	-0.08	-1.98	2.77575	Yes	n/a	1.8994708994709	n/a	n/a	n/a	ShowChoice	Mixed
254.778	1.0	0.015	833.047	43.0	2	-1.0	-1.0	19.5501	70.0	1.0	Certain	-0.08	-1.98	2.77575	Yes	n/a	1.8994708994709	n/a	n/a	n/a	ShowResult	Mixed
255.794	4.596	0.016	834.063	43.0	2	-1.0	-1.0	19.5501	70.0	1.0	Certain	-0.08	-1.98	2.77575	Yes	n/a	1.8994708994709	n/a	n/a	n/a	ISITrial	Mixed
260.409	2.776	0.019	838.678	43.0	2	-1.0	-1.0	19.5501	70.0	1.0	Certain	-0.08	-1.98	2.77575	Yes	n/a	1.8994708994709	n/a	n/a	n/a	TrialHappPreview	Mixed
263.208	4.016	0.023	841.477	43.0	2	-1.0	-1.0	19.5501	70.0	1.0	Certain	-0.08	-1.98	2.77575	Yes	n/a	1.8994708994709	n/a	n/a	408.0	TrialHappiness	Mixed
263.209	0.342	n/a	841.876	43.0	2	-1.0	-1.0	19.5501	70.0	1.0	Certain	-0.08	-1.98	2.77575	Yes	n/a	1.8994708994709	n/a	n/a	408.0	TrialHappinessSliderResponse	Mixed
267.224	3.103	4.016	845.493	43.0	2	-1.0	-1.0	19.5501	70.0	1.0	Certain	-0.08	-1.98	2.77575	Yes	n/a	1.8994708994709	n/a	n/a	n/a	ISIRate	Mixed
270.356	3.0	0.029	848.625	44.0	2	-2.0	-2.0	19.3001	70.0	1.0	Certain	-8.94	3.7	0.0	No	4.0	-12.6371882086168	2.065	272.421	n/a	GetAnswer	Mixed
272.438	4.0	0.017	850.707	44.0	2	-2.0	-2.0	19.3001	70.0	1.0	Certain	-8.94	3.7	0.0	No	n/a	-12.6371882086168	n/a	n/a	n/a	ShowChoice	Mixed
276.454	1.0	0.016	854.723	44.0	2	-2.0	-2.0	19.3001	70.0	1.0	Certain	-8.94	3.7	0.0	No	n/a	-12.6371882086168	n/a	n/a	n/a	ShowResult	Mixed
277.47	2.42	0.016	855.739	44.0	2	-2.0	-2.0	19.3001	70.0	1.0	Certain	-8.94	3.7	0.0	No	n/a	-12.6371882086168	n/a	n/a	n/a	ISITrial	Mixed
279.919	3.0	0.029	858.188	45.0	2	2.52	1.0	19.6151	70.0	4.2	Outcome1	2.52	0.54	0.0	No	2.0	1.97921390778534	1.699	281.618	n/a	GetAnswer	Gain
281.635	4.0	0.017	859.904	45.0	2	2.52	1.0	19.6151	70.0	4.2	Outcome1	2.52	0.54	0.0	No	n/a	1.97921390778534	n/a	n/a	n/a	ShowChoice	Gain
285.65	1.0	0.015	863.919	45.0	2	2.52	1.0	19.6151	70.0	4.2	Outcome1	2.52	0.54	0.0	No	n/a	1.97921390778534	n/a	n/a	n/a	ShowResult	Gain
286.667	3.144	0.017	864.936	45.0	2	2.52	1.0	19.6151	70.0	4.2	Outcome1	2.52	0.54	0.0	No	n/a	1.97921390778534	n/a	n/a	n/a	ISITrial	Gain
289.832	3.0	0.021	868.101	46.0	2	-3.1	-1.55	19.2276	70.0	5.0	Outcome1	-3.1	10.3	3.84125	Yes	2.0	-13.4036281179138	2.217	292.049	n/a	GetAnswer	Gain
292.065	4.0	0.016	870.334	46.0	2	-3.1	-1.55	19.2276	70.0	5.0	Outcome1	-3.1	10.3	3.84125	Yes	n/a	-13.4036281179138	n/a	n/a	n/a	ShowChoice	Gain
296.08	1.0	0.015	874.349	46.0	2	-3.1	-1.55	19.2276	70.0	5.0	Outcome1	-3.1	10.3	3.84125	Yes	n/a	-13.4036281179138	n/a	n/a	n/a	ShowResult	Gain
297.096	2.246	0.016	875.365	46.0	2	-3.1	-1.55	19.2276	70.0	5.0	Outcome1	-3.1	10.3	3.84125	Yes	n/a	-13.4036281179138	n/a	n/a	n/a	ISITrial	Gain
299.362	3.841	0.02	877.631	46.0	2	-3.1	-1.55	19.2276	70.0	5.0	Outcome1	-3.1	10.3	3.84125	Yes	n/a	-13.4036281179138	n/a	n/a	n/a	TrialHappPreview	Gain
303.228	4.015	0.025	881.497	46.0	2	-3.1	-1.55	19.2276	70.0	5.0	Outcome1	-3.1	10.3	3.84125	Yes	4{-4}	-13.4036281179138	0.757	303.985	408.0	TrialHappiness	Gain
303.228	0.364	n/a	881.89	46.0	2	-3.1	-1.55	19.2276	70.0	5.0	Outcome1	-3.1	10.3	3.84125	Yes	n/a	-13.4036281179138	n/a	n/a	408.0	TrialHappinessSliderResponse	Gain
307.243	7.365	4.015	885.512	46.0	2	-3.1	-1.55	19.2276	70.0	5.0	Outcome1	-3.1	10.3	3.84125	Yes	n/a	-13.4036281179138	n/a	n/a	n/a	ISIRate	Gain
314.64	3.0	0.032	892.909	47.0	2	0.0	0.0	19.2276	70.0	1.82	Certain	-0.86	1.18	0.0	No	4.0	2.04308390022676	2.631	317.271	n/a	GetAnswer	Gain
317.289	4.0	0.018	895.558	47.0	2	0.0	0.0	19.2276	70.0	1.82	Certain	-0.86	1.18	0.0	No	n/a	2.04308390022676	n/a	n/a	n/a	ShowChoice	Gain
321.305	1.0	0.016	899.574	47.0	2	0.0	0.0	19.2276	70.0	1.82	Certain	-0.86	1.18	0.0	No	n/a	2.04308390022676	n/a	n/a	n/a	ShowResult	Gain
322.321	2.0	0.016	900.59	47.0	2	0.0	0.0	19.2276	70.0	1.82	Certain	-0.86	1.18	0.0	No	n/a	2.04308390022676	n/a	n/a	n/a	ISITrial	Gain
324.337	3.0	0.016	902.606	48.0	2	-6.0	-6.0	18.4776	70.0	0.4	Certain	-13.27	0.9	2.83175	Yes	4.0	-14.1700680272109	2.158	326.495	n/a	GetAnswer	Mixed
326.519	4.0	0.024	904.788	48.0	2	-6.0	-6.0	18.4776	70.0	0.4	Certain	-13.27	0.9	2.83175	Yes	n/a	-14.1700680272109	n/a	n/a	n/a	ShowChoice	Mixed
330.535	1.0	0.016	908.804	48.0	2	-6.0	-6.0	18.4776	70.0	0.4	Certain	-13.27	0.9	2.83175	Yes	n/a	-14.1700680272109	n/a	n/a	n/a	ShowResult	Mixed
331.551	3.692	0.016	909.82	48.0	2	-6.0	-6.0	18.4776	70.0	0.4	Certain	-13.27	0.9	2.83175	Yes	n/a	-14.1700680272109	n/a	n/a	n/a	ISITrial	Mixed
335.266	2.832	0.023	913.535	48.0	2	-6.0	-6.0	18.4776	70.0	0.4	Certain	-13.27	0.9	2.83175	Yes	n/a	-14.1700680272109	n/a	n/a	n/a	TrialHappPreview	Mixed
338.115	4.016	0.017	916.384	48.0	2	-6.0	-6.0	18.4776	70.0	0.4	Certain	-13.27	0.9	2.83175	Yes	n/a	-14.1700680272109	n/a	n/a	404.0	TrialHappiness	Mixed
338.116	2.103	n/a	916.818	48.0	2	-6.0	-6.0	18.4776	70.0	0.4	Certain	-13.27	0.9	2.83175	Yes	n/a	-14.1700680272109	n/a	n/a	404.0	TrialHappinessSliderResponse	Mixed
342.131	3.327	4.016	920.4	48.0	2	-6.0	-6.0	18.4776	70.0	0.4	Certain	-13.27	0.9	2.83175	Yes	n/a	-14.1700680272109	n/a	n/a	n/a	ISIRate	Mixed
345.48	3.0	0.022	923.749	49.0	2	-4.0	-4.0	17.9776	70.0	0.52	Certain	-11.39	3.1	0.0	No	4.0	-14.4852607709751	1.672	347.152	n/a	GetAnswer	Mixed
347.179	4.0	0.027	925.448	49.0	2	-4.0	-4.0	17.9776	70.0	0.52	Certain	-11.39	3.1	0.0	No	n/a	-14.4852607709751	n/a	n/a	n/a	ShowChoice	Mixed
351.194	1.0	0.015	929.463	49.0	2	-4.0	-4.0	17.9776	70.0	0.52	Certain	-11.39	3.1	0.0	No	n/a	-14.4852607709751	n/a	n/a	n/a	ShowResult	Mixed
352.211	8.0	0.017	930.48	49.0	2	-4.0	-4.0	17.9776	70.0	0.52	Certain	-11.39	3.1	0.0	No	n/a	-14.4852607709751	n/a	n/a	n/a	ISITrial	Mixed
360.241	3.0	0.03	938.51	50.0	2	0.0	0.0	17.9776	70.0	3.6	Certain	-6.96	7.9	3.54725	Yes	4.0	-14.863945578231302	1.801	362.042	n/a	GetAnswer	Gain
362.057	4.0	0.015	940.326	50.0	2	0.0	0.0	17.9776	70.0	3.6	Certain	-6.96	7.9	3.54725	Yes	n/a	-14.863945578231302	n/a	n/a	n/a	ShowChoice	Gain
366.072	1.0	0.015	944.341	50.0	2	0.0	0.0	17.9776	70.0	3.6	Certain	-6.96	7.9	3.54725	Yes	n/a	-14.863945578231302	n/a	n/a	n/a	ShowResult	Gain
367.089	7.537	0.017	945.358	50.0	2	0.0	0.0	17.9776	70.0	3.6	Certain	-6.96	7.9	3.54725	Yes	n/a	-14.863945578231302	n/a	n/a	n/a	ISITrial	Gain
374.653	3.547	0.027	952.922	50.0	2	0.0	0.0	17.9776	70.0	3.6	Certain	-6.96	7.9	3.54725	Yes	n/a	-14.863945578231302	n/a	n/a	n/a	TrialHappPreview	Gain
378.218	4.015	0.018	956.487	50.0	2	0.0	0.0	17.9776	70.0	3.6	Certain	-6.96	7.9	3.54725	Yes	n/a	-14.863945578231302	n/a	n/a	452.0	TrialHappiness	Gain
378.219	0.927	n/a	956.966	50.0	2	0.0	0.0	17.9776	70.0	3.6	Certain	-6.96	7.9	3.54725	Yes	n/a	-14.863945578231302	n/a	n/a	452.0	TrialHappinessSliderResponse	Gain
382.233	6.189	4.015	960.502	50.0	2	0.0	0.0	17.9776	70.0	3.6	Certain	-6.96	7.9	3.54725	Yes	n/a	-14.863945578231302	n/a	n/a	n/a	ISIRate	Gain
388.448	3.0	0.026	966.717	51.0	2	-3.56	-1.78	17.5326	70.0	1.68	Outcome1	-3.56	12.5	0.0	No	2.0	-16.058956916099802	1.72	390.168	n/a	GetAnswer	Loss
390.181	4.0	0.013	968.45	51.0	2	-3.56	-1.78	17.5326	70.0	1.68	Outcome1	-3.56	12.5	0.0	No	n/a	-16.058956916099802	n/a	n/a	n/a	ShowChoice	Loss
394.196	1.0	0.015	972.465	51.0	2	-3.56	-1.78	17.5326	70.0	1.68	Outcome1	-3.56	12.5	0.0	No	n/a	-16.058956916099802	n/a	n/a	n/a	ShowResult	Loss
395.212	5.508	0.016	973.481	51.0	2	-3.56	-1.78	17.5326	70.0	1.68	Outcome1	-3.56	12.5	0.0	No	n/a	-16.058956916099802	n/a	n/a	n/a	ISITrial	Loss
400.744	3.0	0.024	979.013	52.0	2	-3.0	-3.0	17.1576	70.0	2.22	Certain	-11.39	5.1	0.0	No	4.0	-16.4920634920635	1.7	402.444	n/a	GetAnswer	Gain
402.46	4.0	0.016	980.729	52.0	2	-3.0	-3.0	17.1576	70.0	2.22	Certain	-11.39	5.1	0.0	No	n/a	-16.4920634920635	n/a	n/a	n/a	ShowChoice	Gain
406.475	1.0	0.015	984.744	52.0	2	-3.0	-3.0	17.1576	70.0	2.22	Certain	-11.39	5.1	0.0	No	n/a	-16.4920634920635	n/a	n/a	n/a	ShowResult	Gain
407.491	5.913	0.016	985.76	52.0	2	-3.0	-3.0	17.1576	70.0	2.22	Certain	-11.39	5.1	0.0	No	n/a	-16.4920634920635	n/a	n/a	n/a	ISITrial	Gain
413.423	3.0	0.019	991.692	53.0	2	-3.43	-1.72	16.7288	70.0	2.8	Outcome2	13.5	-3.43	2.99675	Yes	2.0	-16.9251700680272	2.024	415.447	n/a	GetAnswer	Loss
415.472	4.0	0.024	993.741	53.0	2	-3.43	-1.72	16.7288	70.0	2.8	Outcome2	13.5	-3.43	2.99675	Yes	n/a	-16.9251700680272	n/a	n/a	n/a	ShowChoice	Loss
419.487	1.0	0.015	997.756	53.0	2	-3.43	-1.72	16.7288	70.0	2.8	Outcome2	13.5	-3.43	2.99675	Yes	n/a	-16.9251700680272	n/a	n/a	n/a	ShowResult	Loss
420.503	3.66	0.016	998.772	53.0	2	-3.43	-1.72	16.7288	70.0	2.8	Outcome2	13.5	-3.43	2.99675	Yes	n/a	-16.9251700680272	n/a	n/a	n/a	ISITrial	Loss
424.185	2.997	0.022	1002.454	53.0	2	-3.43	-1.72	16.7288	70.0	2.8	Outcome2	13.5	-3.43	2.99675	Yes	n/a	-16.9251700680272	n/a	n/a	n/a	TrialHappPreview	Loss
427.201	4.015	0.019	1005.47	53.0	2	-3.43	-1.72	16.7288	70.0	2.8	Outcome2	13.5	-3.43	2.99675	Yes	n/a	-16.9251700680272	n/a	n/a	408.0	TrialHappiness	Loss
427.202	3.284	n/a	1006.014	53.0	2	-3.43	-1.72	16.7288	70.0	2.8	Outcome2	13.5	-3.43	2.99675	Yes	n/a	-16.9251700680272	n/a	n/a	408.0	TrialHappinessSliderResponse	Loss
431.216	3.987	4.015	1009.485	53.0	2	-3.43	-1.72	16.7288	70.0	2.8	Outcome2	13.5	-3.43	2.99675	Yes	n/a	-16.9251700680272	n/a	n/a	n/a	ISIRate	Loss
435.232	3.0	0.029	1013.501	54.0	2	-4.0	-4.0	16.2288	70.0	1.68	Certain	4.5	-12.11	0.0	No	4.0	-16.609977324263	1.575	436.807	n/a	GetAnswer	Gain
436.831	4.0	0.024	1015.1	54.0	2	-4.0	-4.0	16.2288	70.0	1.68	Certain	4.5	-12.11	0.0	No	n/a	-16.609977324263	n/a	n/a	n/a	ShowChoice	Gain
440.846	1.0	0.015	1019.115	54.0	2	-4.0	-4.0	16.2288	70.0	1.68	Certain	4.5	-12.11	0.0	No	n/a	-16.609977324263	n/a	n/a	n/a	ShowResult	Gain
441.863	8.0	0.017	1020.132	54.0	2	-4.0	-4.0	16.2288	70.0	1.68	Certain	4.5	-12.11	0.0	No	n/a	-16.609977324263	n/a	n/a	n/a	ISITrial	Gain
527.3	0.9	n/a	1106.103	n/a	2	n/a	n/a	n/a	n/a	n/a	n/a	n/a	n/a	n/a	n/a	n/a	n/a	n/a	n/a	428.0	BlockStartHappinessSliderResponse	n/a
-88.303	-0.001	0.03	1028.162	n/a	3	n/a	n/a	n/a	n/a	n/a	n/a	n/a	n/a	n/a	n/a	{SPACE}	n/a	73.368	-14.935	n/a	Rest	n/a
-14.912	4.0	0.023	1101.553	n/a	3	n/a	n/a	n/a	n/a	n/a	n/a	n/a	n/a	n/a	n/a	n/a	n/a	n/a	n/a	n/a	BlockHappyPreview	n/a
-10.897	1.434	0.015	1105.568	n/a	3	n/a	n/a	n/a	n/a	n/a	n/a	n/a	n/a	n/a	n/a	n/a	n/a	n/a	n/a	428.0	BlockStartHappiness	n/a
-4.715	-0.001	0.012	1111.75	n/a	3	n/a	n/a	n/a	n/a	n/a	n/a	n/a	n/a	n/a	n/a	5.0	n/a	4.693	-0.022	n/a	ScanWait	n/a
0.0	10.0	0.022	1116.465	n/a	3	n/a	n/a	n/a	n/a	n/a	n/a	n/a	n/a	n/a	n/a	n/a	n/a	n/a	n/a	n/a	GetReady	n/a
10.029	3.0	0.029	1126.494	55.0	3	11.1	1.08	17.6163	955.0	2.22	Outcome2	2.15	11.1	2.53325	Yes	2.0	8.9524348810872	1.397	11.426	n/a	GetAnswer	Loss
11.446	4.0	0.02	1127.911	55.0	3	11.1	1.08	17.6163	955.0	2.22	Outcome2	2.15	11.1	2.53325	Yes	n/a	8.9524348810872	n/a	n/a	n/a	ShowChoice	Loss
15.461	1.0	0.015	1131.926	55.0	3	11.1	1.08	17.6163	955.0	2.22	Outcome2	2.15	11.1	2.53325	Yes	n/a	8.9524348810872	n/a	n/a	n/a	ShowResult	Loss
16.477	7.709	0.016	1132.942	55.0	3	11.1	1.08	17.6163	955.0	2.22	Outcome2	2.15	11.1	2.53325	Yes	n/a	8.9524348810872	n/a	n/a	n/a	ISITrial	Loss
24.208	2.533	0.022	1140.673	55.0	3	11.1	1.08	17.6163	955.0	2.22	Outcome2	2.15	11.1	2.53325	Yes	n/a	8.9524348810872	n/a	n/a	n/a	TrialHappPreview	Loss
26.757	4.015	0.016	1143.222	55.0	3	11.1	1.08	17.6163	955.0	2.22	Outcome2	2.15	11.1	2.53325	Yes	n/a	8.9524348810872	n/a	n/a	512.0	TrialHappiness	Loss
26.758	0.0	n/a	1143.223	55.0	3	11.1	1.08	17.6163	955.0	2.22	Outcome2	2.15	11.1	2.53325	Yes	n/a	8.9524348810872	n/a	n/a	512.0	TrialHappinessSliderResponse	Loss
30.772	2.133	4.015	1147.237	55.0	3	11.1	1.08	17.6163	955.0	2.22	Outcome2	2.15	11.1	2.53325	Yes	n/a	8.9524348810872	n/a	n/a	n/a	ISIRate	Loss
32.921	3.0	0.016	1149.386	56.0	3	7.45	3.72	18.5475	955.0	2.48	Outcome2	9.3	7.45	0.0	No	2.0	-1.84748961872405	1.398	34.319	n/a	GetAnswer	Gain
34.338	4.0	0.019	1150.803	56.0	3	7.45	3.72	18.5475	955.0	2.48	Outcome2	9.3	7.45	0.0	No	n/a	-1.84748961872405	n/a	n/a	n/a	ShowChoice	Gain
38.353	1.0	0.015	1154.818	56.0	3	7.45	3.72	18.5475	955.0	2.48	Outcome2	9.3	7.45	0.0	No	n/a	-1.84748961872405	n/a	n/a	n/a	ShowResult	Gain
39.369	4.697	0.016	1155.834	56.0	3	7.45	3.72	18.5475	955.0	2.48	Outcome2	9.3	7.45	0.0	No	n/a	-1.84748961872405	n/a	n/a	n/a	ISITrial	Gain
44.084	3.0	0.018	1160.549	57.0	3	-5.0	-5.0	17.9225	955.0	0.3	Certain	-1.3	-9.92	0.0	No	4.0	8.62400906002265	2.406	46.49	n/a	GetAnswer	Mixed
46.517	4.0	0.027	1162.982	57.0	3	-5.0	-5.0	17.9225	955.0	0.3	Certain	-1.3	-9.92	0.0	No	n/a	8.62400906002265	n/a	n/a	n/a	ShowChoice	Mixed
50.532	1.0	0.015	1166.997	57.0	3	-5.0	-5.0	17.9225	955.0	0.3	Certain	-1.3	-9.92	0.0	No	n/a	8.62400906002265	n/a	n/a	n/a	ShowResult	Mixed
51.548	4.291	0.016	1168.013	57.0	3	-5.0	-5.0	17.9225	955.0	0.3	Certain	-1.3	-9.92	0.0	No	n/a	8.62400906002265	n/a	n/a	n/a	ISITrial	Mixed
55.863	3.0	0.024	1172.328	58.0	3	13.9	2.38	19.66	955.0	3.6	Outcome2	4.77	13.9	3.04575	Yes	2.0	9.12570781426954	1.608	57.471	n/a	GetAnswer	Loss
57.496	4.0	0.025	1173.961	58.0	3	13.9	2.38	19.66	955.0	3.6	Outcome2	4.77	13.9	3.04575	Yes	n/a	9.12570781426954	n/a	n/a	n/a	ShowChoice	Loss
61.512	1.0	0.016	1177.977	58.0	3	13.9	2.38	19.66	955.0	3.6	Outcome2	4.77	13.9	3.04575	Yes	n/a	9.12570781426954	n/a	n/a	n/a	ShowResult	Loss
62.528	2.037	0.016	1178.993	58.0	3	13.9	2.38	19.66	955.0	3.6	Outcome2	4.77	13.9	3.04575	Yes	n/a	9.12570781426954	n/a	n/a	n/a	ISITrial	Loss
64.577	3.046	0.012	1181.042	58.0	3	13.9	2.38	19.66	955.0	3.6	Outcome2	4.77	13.9	3.04575	Yes	n/a	9.12570781426954	n/a	n/a	n/a	TrialHappPreview	Loss
67.643	4.015	0.02	1184.108	58.0	3	13.9	2.38	19.66	955.0	3.6	Outcome2	4.77	13.9	3.04575	Yes	n/a	9.12570781426954	n/a	n/a	556.0	TrialHappiness	Loss
67.643	1.132	n/a	1184.563	58.0	3	13.9	2.38	19.66	955.0	3.6	Outcome2	4.77	13.9	3.04575	Yes	n/a	9.12570781426954	n/a	n/a	556.0	TrialHappinessSliderResponse	Loss
71.658	4.183	4.015	1188.123	58.0	3	13.9	2.38	19.66	955.0	3.6	Outcome2	4.77	13.9	3.04575	Yes	n/a	9.12570781426954	n/a	n/a	n/a	ISIRate	Loss
75.873	3.0	0.032	1192.338	59.0	3	5.11	2.56	20.2988	955.0	2.0	Outcome2	6.9	5.11	0.0	No	2.0	-1.7943563608909	1.322	77.195	n/a	GetAnswer	Gain
77.223	4.0	0.027	1193.688	59.0	3	5.11	2.56	20.2988	955.0	2.0	Outcome2	6.9	5.11	0.0	No	n/a	-1.7943563608909	n/a	n/a	n/a	ShowChoice	Gain
81.238	1.0	0.015	1197.703	59.0	3	5.11	2.56	20.2988	955.0	2.0	Outcome2	6.9	5.11	0.0	No	n/a	-1.7943563608909	n/a	n/a	n/a	ShowResult	Gain
82.254	5.064	0.016	1198.719	59.0	3	5.11	2.56	20.2988	955.0	2.0	Outcome2	6.9	5.11	0.0	No	n/a	-1.7943563608909	n/a	n/a	n/a	ISITrial	Gain
87.336	3.0	0.018	1203.801	60.0	3	-1.0	-1.0	20.1738	955.0	0.82	Certain	-5.83	3.5	3.5625	Yes	4.0	9.33182332955832	1.387	88.723	n/a	GetAnswer	Mixed
88.735	4.0	0.012	1205.2	60.0	3	-1.0	-1.0	20.1738	955.0	0.82	Certain	-5.83	3.5	3.5625	Yes	n/a	9.33182332955832	n/a	n/a	n/a	ShowChoice	Mixed
92.751	1.0	0.016	1209.216	60.0	3	-1.0	-1.0	20.1738	955.0	0.82	Certain	-5.83	3.5	3.5625	Yes	n/a	9.33182332955832	n/a	n/a	n/a	ShowResult	Mixed
93.767	8.0	0.016	1210.232	60.0	3	-1.0	-1.0	20.1738	955.0	0.82	Certain	-5.83	3.5	3.5625	Yes	n/a	9.33182332955832	n/a	n/a	n/a	ISITrial	Mixed
101.781	3.562	0.014	1218.246	60.0	3	-1.0	-1.0	20.1738	955.0	0.82	Certain	-5.83	3.5	3.5625	Yes	n/a	9.33182332955832	n/a	n/a	n/a	TrialHappPreview	Mixed
105.363	4.015	0.02	1221.828	60.0	3	-1.0	-1.0	20.1738	955.0	0.82	Certain	-5.83	3.5	3.5625	Yes	2{-2}4{-4}	9.33182332955832	1.54	106.903	568.0	TrialHappiness	Mixed
105.363	0.944	n/a	1222.424	60.0	3	-1.0	-1.0	20.1738	955.0	0.82	Certain	-5.83	3.5	3.5625	Yes	n/a	9.33182332955832	n/a	n/a	568.0	TrialHappinessSliderResponse	Mixed
109.378	6.25	4.015	1225.843	60.0	3	-1.0	-1.0	20.1738	955.0	0.82	Certain	-5.83	3.5	3.5625	Yes	n/a	9.33182332955832	n/a	n/a	n/a	ISIRate	Mixed
115.659	3.0	0.031	1232.124	61.0	3	-3.0	-3.0	19.7988	955.0	0.52	Certain	-8.48	1.1	0.0	No	4.0	9.57984144960362	1.43	117.089	n/a	GetAnswer	Mixed
117.109	4.0	0.02	1233.574	61.0	3	-3.0	-3.0	19.7988	955.0	0.52	Certain	-8.48	1.1	0.0	No	n/a	9.57984144960362	n/a	n/a	n/a	ShowChoice	Mixed
121.124	1.0	0.015	1237.589	61.0	3	-3.0	-3.0	19.7988	955.0	0.52	Certain	-8.48	1.1	0.0	No	n/a	9.57984144960362	n/a	n/a	n/a	ShowResult	Mixed
122.14	4.586	0.016	1238.605	61.0	3	-3.0	-3.0	19.7988	955.0	0.52	Certain	-8.48	1.1	0.0	No	n/a	9.57984144960362	n/a	n/a	n/a	ISITrial	Mixed
126.755	3.0	0.029	1243.22	62.0	3	-1.0	-1.0	19.6738	955.0	0.66	Certain	-0.7	-2.56	3.74875	Yes	4.0	-1.85749339373348	2.134	128.889	n/a	GetAnswer	Mixed
128.905	4.0	0.016	1245.37	62.0	3	-1.0	-1.0	19.6738	955.0	0.66	Certain	-0.7	-2.56	3.74875	Yes	n/a	-1.85749339373348	n/a	n/a	n/a	ShowChoice	Mixed
132.92	1.0	0.015	1249.385	62.0	3	-1.0	-1.0	19.6738	955.0	0.66	Certain	-0.7	-2.56	3.74875	Yes	n/a	-1.85749339373348	n/a	n/a	n/a	ShowResult	Mixed
133.936	5.212	0.016	1250.401	62.0	3	-1.0	-1.0	19.6738	955.0	0.66	Certain	-0.7	-2.56	3.74875	Yes	n/a	-1.85749339373348	n/a	n/a	n/a	ISITrial	Mixed
139.168	3.749	0.02	1255.633	62.0	3	-1.0	-1.0	19.6738	955.0	0.66	Certain	-0.7	-2.56	3.74875	Yes	n/a	-1.85749339373348	n/a	n/a	n/a	TrialHappPreview	Mixed
142.933	4.015	0.016	1259.398	62.0	3	-1.0	-1.0	19.6738	955.0	0.66	Certain	-0.7	-2.56	3.74875	Yes	n/a	-1.85749339373348	n/a	n/a	532.0	TrialHappiness	Mixed
142.934	0.14	n/a	1261.205	62.0	3	-1.0	-1.0	19.6738	955.0	0.66	Certain	-0.7	-2.56	3.74875	Yes	n/a	-1.85749339373348	n/a	n/a	532.0	TrialHappinessSliderResponse	Mixed
146.948	6.995	4.015	1263.413	62.0	3	-1.0	-1.0	19.6738	955.0	0.66	Certain	-0.7	-2.56	3.74875	Yes	n/a	-1.85749339373348	n/a	n/a	n/a	ISIRate	Mixed
153.963	3.0	0.02	1270.428	63.0	3	0.0	0.0	19.6738	955.0	0.66	Certain	1.3	-0.74	0.0	No	4.0	-2.04010947527369	2.002	155.965	n/a	GetAnswer	Mixed
155.979	4.0	0.014	1272.444	63.0	3	0.0	0.0	19.6738	955.0	0.66	Certain	1.3	-0.74	0.0	No	n/a	-2.04010947527369	n/a	n/a	n/a	ShowChoice	Mixed
159.994	1.0	0.015	1276.459	63.0	3	0.0	0.0	19.6738	955.0	0.66	Certain	1.3	-0.74	0.0	No	n/a	-2.04010947527369	n/a	n/a	n/a	ShowResult	Mixed
161.01	5.595	0.016	1277.475	63.0	3	0.0	0.0	19.6738	955.0	0.66	Certain	1.3	-0.74	0.0	No	n/a	-2.04010947527369	n/a	n/a	n/a	ISITrial	Mixed
166.625	3.0	0.02	1283.09	64.0	3	6.42	3.21	20.4763	955.0	1.68	Outcome2	8.5	6.42	0.0	No	2.0	-2.0800302000755	1.504	168.129	n/a	GetAnswer	Gain
168.158	4.0	0.029	1284.623	64.0	3	6.42	3.21	20.4763	955.0	1.68	Outcome2	8.5	6.42	0.0	No	n/a	-2.0800302000755	n/a	n/a	n/a	ShowChoice	Gain
172.173	1.0	0.015	1288.638	64.0	3	6.42	3.21	20.4763	955.0	1.68	Outcome2	8.5	6.42	0.0	No	n/a	-2.0800302000755	n/a	n/a	n/a	ShowResult	Gain
173.189	5.47	0.016	1289.654	64.0	3	6.42	3.21	20.4763	955.0	1.68	Outcome2	8.5	6.42	0.0	No	n/a	-2.0800302000755	n/a	n/a	n/a	ISITrial	Gain
178.687	3.0	0.028	1295.152	65.0	3	-4.0	-4.0	19.9763	955.0	0.82	Certain	1.5	-10.53	2.99675	Yes	4.0	12.0260475651189	1.535	180.222	n/a	GetAnswer	Mixed
180.237	4.0	0.015	1296.702	65.0	3	-4.0	-4.0	19.9763	955.0	0.82	Certain	1.5	-10.53	2.99675	Yes	n/a	12.0260475651189	n/a	n/a	n/a	ShowChoice	Mixed
184.252	1.0	0.015	1300.717	65.0	3	-4.0	-4.0	19.9763	955.0	0.82	Certain	1.5	-10.53	2.99675	Yes	n/a	12.0260475651189	n/a	n/a	n/a	ShowResult	Mixed
185.268	3.344	0.016	1301.733	65.0	3	-4.0	-4.0	19.9763	955.0	0.82	Certain	1.5	-10.53	2.99675	Yes	n/a	12.0260475651189	n/a	n/a	n/a	ISITrial	Mixed
188.634	2.997	0.022	1305.099	65.0	3	-4.0	-4.0	19.9763	955.0	0.82	Certain	1.5	-10.53	2.99675	Yes	n/a	12.0260475651189	n/a	n/a	n/a	TrialHappPreview	Mixed
191.649	4.016	0.018	1308.114	65.0	3	-4.0	-4.0	19.9763	955.0	0.82	Certain	1.5	-10.53	2.99675	Yes	n/a	12.0260475651189	n/a	n/a	532.0	TrialHappiness	Mixed
191.65	0.144	n/a	1309.564	65.0	3	-4.0	-4.0	19.9763	955.0	0.82	Certain	1.5	-10.53	2.99675	Yes	n/a	12.0260475651189	n/a	n/a	532.0	TrialHappinessSliderResponse	Mixed
195.665	3.987	4.016	1312.13	65.0	3	-4.0	-4.0	19.9763	955.0	0.82	Certain	1.5	-10.53	2.99675	Yes	n/a	12.0260475651189	n/a	n/a	n/a	ISIRate	Mixed
199.68	3.0	0.028	1316.145	66.0	3	-2.0	-2.0	19.7263	955.0	2.0	Certain	4.3	-8.21	0.0	No	4.0	12.5050962627407	1.815	201.495	n/a	GetAnswer	Mixed
201.513	4.0	0.018	1317.978	66.0	3	-2.0	-2.0	19.7263	955.0	2.0	Certain	4.3	-8.21	0.0	No	n/a	12.5050962627407	n/a	n/a	n/a	ShowChoice	Mixed
205.528	1.0	0.015	1321.993	66.0	3	-2.0	-2.0	19.7263	955.0	2.0	Certain	4.3	-8.21	0.0	No	n/a	12.5050962627407	n/a	n/a	n/a	ShowResult	Mixed
206.544	3.959	0.016	1323.009	66.0	3	-2.0	-2.0	19.7263	955.0	2.0	Certain	4.3	-8.21	0.0	No	n/a	12.5050962627407	n/a	n/a	n/a	ISITrial	Mixed
210.526	3.0	0.023	1326.991	67.0	3	-7.0	-7.0	18.8513	955.0	0.82	Certain	-0.5	-13.48	2.9185	Yes	4.0	12.984144960362402	1.807	212.333	n/a	GetAnswer	Mixed
212.359	4.0	0.026	1328.824	67.0	3	-7.0	-7.0	18.8513	955.0	0.82	Certain	-0.5	-13.48	2.9185	Yes	n/a	12.984144960362402	n/a	n/a	n/a	ShowChoice	Mixed
216.374	1.0	0.015	1332.839	67.0	3	-7.0	-7.0	18.8513	955.0	0.82	Certain	-0.5	-13.48	2.9185	Yes	n/a	12.984144960362402	n/a	n/a	n/a	ShowResult	Mixed
217.39	4.199	0.016	1333.855	67.0	3	-7.0	-7.0	18.8513	955.0	0.82	Certain	-0.5	-13.48	2.9185	Yes	n/a	12.984144960362402	n/a	n/a	n/a	ISITrial	Mixed
221.606	2.918	0.017	1338.071	67.0	3	-7.0	-7.0	18.8513	955.0	0.82	Certain	-0.5	-13.48	2.9185	Yes	n/a	12.984144960362402	n/a	n/a	n/a	TrialHappPreview	Mixed
224.555	4.015	0.031	1341.02	67.0	3	-7.0	-7.0	18.8513	955.0	0.82	Certain	-0.5	-13.48	2.9185	Yes	n/a	12.984144960362402	n/a	n/a	512.0	TrialHappiness	Mixed
224.555	0.0	n/a	1341.02	67.0	3	-7.0	-7.0	18.8513	955.0	0.82	Certain	-0.5	-13.48	2.9185	Yes	n/a	12.984144960362402	n/a	n/a	512.0	TrialHappinessSliderResponse	Mixed
228.57	3.674	4.015	1345.035	67.0	3	-7.0	-7.0	18.8513	955.0	0.82	Certain	-0.5	-13.48	2.9185	Yes	n/a	12.984144960362402	n/a	n/a	n/a	ISIRate	Mixed
232.269	3.0	0.025	1348.734	68.0	3	-3.0	-3.0	18.4763	955.0	0.66	Certain	-10.5	3.3	0.0	No	4.0	13.8029445073613	1.619	233.888	n/a	GetAnswer	Mixed
233.901	4.0	0.013	1350.366	68.0	3	-3.0	-3.0	18.4763	955.0	0.66	Certain	-10.5	3.3	0.0	No	n/a	13.8029445073613	n/a	n/a	n/a	ShowChoice	Mixed
237.917	1.0	0.016	1354.382	68.0	3	-3.0	-3.0	18.4763	955.0	0.66	Certain	-10.5	3.3	0.0	No	n/a	13.8029445073613	n/a	n/a	n/a	ShowResult	Mixed
238.933	2.185	0.016	1355.398	68.0	3	-3.0	-3.0	18.4763	955.0	0.66	Certain	-10.5	3.3	0.0	No	n/a	13.8029445073613	n/a	n/a	n/a	ISITrial	Mixed
241.149	3.0	0.031	1357.614	69.0	3	9.74	4.87	19.6938	955.0	4.2	Outcome2	12.1	9.74	0.0	No	2.0	-2.36268403171008	1.418	242.567	n/a	GetAnswer	Loss
242.582	4.0	0.015	1359.047	69.0	3	9.74	4.87	19.6938	955.0	4.2	Outcome2	12.1	9.74	0.0	No	n/a	-2.36268403171008	n/a	n/a	n/a	ShowChoice	Loss
246.597	1.0	0.015	1363.062	69.0	3	9.74	4.87	19.6938	955.0	4.2	Outcome2	12.1	9.74	0.0	No	n/a	-2.36268403171008	n/a	n/a	n/a	ShowResult	Loss
247.613	2.0	0.016	1364.078	69.0	3	9.74	4.87	19.6938	955.0	4.2	Outcome2	12.1	9.74	0.0	No	n/a	-2.36268403171008	n/a	n/a	n/a	ISITrial	Loss
249.629	3.0	0.016	1366.094	70.0	3	-7.0	-7.0	18.8188	955.0	1.2	Certain	-0.1	-14.91	3.65125	Yes	4.0	14.806342015855	1.639	251.268	n/a	GetAnswer	Mixed
251.295	4.0	0.027	1367.76	70.0	3	-7.0	-7.0	18.8188	955.0	1.2	Certain	-0.1	-14.91	3.65125	Yes	n/a	14.806342015855	n/a	n/a	n/a	ShowChoice	Mixed
255.311	1.0	0.016	1371.776	70.0	3	-7.0	-7.0	18.8188	955.0	1.2	Certain	-0.1	-14.91	3.65125	Yes	n/a	14.806342015855	n/a	n/a	n/a	ShowResult	Mixed
256.327	2.623	0.016	1372.792	70.0	3	-7.0	-7.0	18.8188	955.0	1.2	Certain	-0.1	-14.91	3.65125	Yes	n/a	14.806342015855	n/a	n/a	n/a	ISITrial	Mixed
258.976	3.651	0.026	1375.441	70.0	3	-7.0	-7.0	18.8188	955.0	1.2	Certain	-0.1	-14.91	3.65125	Yes	n/a	14.806342015855	n/a	n/a	n/a	TrialHappPreview	Mixed
262.658	4.015	0.031	1379.123	70.0	3	-7.0	-7.0	18.8188	955.0	1.2	Certain	-0.1	-14.91	3.65125	Yes	n/a	14.806342015855	n/a	n/a	492.0	TrialHappiness	Mixed
262.659	0.113	n/a	1379.565	70.0	3	-7.0	-7.0	18.8188	955.0	1.2	Certain	-0.1	-14.91	3.65125	Yes	n/a	14.806342015855	n/a	n/a	492.0	TrialHappinessSliderResponse	Mixed
266.673	6.605	4.015	1383.138	70.0	3	-7.0	-7.0	18.8188	955.0	1.2	Certain	-0.1	-14.91	3.65125	Yes	n/a	14.806342015855	n/a	n/a	n/a	ISIRate	Mixed
273.304	3.0	0.026	1389.769	71.0	3	-9.0	-9.0	17.6938	955.0	0.2	Certain	-1.5	-17.15	0.0	No	4.0	15.6477916194791	2.043	275.347	n/a	GetAnswer	Mixed
275.37	4.0	0.023	1391.835	71.0	3	-9.0	-9.0	17.6938	955.0	0.2	Certain	-1.5	-17.15	0.0	No	n/a	15.6477916194791	n/a	n/a	n/a	ShowChoice	Mixed
279.386	1.0	0.016	1395.851	71.0	3	-9.0	-9.0	17.6938	955.0	0.2	Certain	-1.5	-17.15	0.0	No	n/a	15.6477916194791	n/a	n/a	n/a	ShowResult	Mixed
280.402	5.499	0.016	1396.867	71.0	3	-9.0	-9.0	17.6938	955.0	0.2	Certain	-1.5	-17.15	0.0	No	n/a	15.6477916194791	n/a	n/a	n/a	ISITrial	Mixed
285.933	3.0	0.032	1402.398	72.0	3	3.93	1.96	18.185	955.0	1.68	Outcome2	6.5	3.93	3.0805	Yes	2.0	-2.57115892789732	1.219	287.152	n/a	GetAnswer	Gain
287.166	4.0	0.014	1403.631	72.0	3	3.93	1.96	18.185	955.0	1.68	Outcome2	6.5	3.93	3.0805	Yes	n/a	-2.57115892789732	n/a	n/a	n/a	ShowChoice	Gain
291.181	1.0	0.015	1407.646	72.0	3	3.93	1.96	18.185	955.0	1.68	Outcome2	6.5	3.93	3.0805	Yes	n/a	-2.57115892789732	n/a	n/a	n/a	ShowResult	Gain
292.198	5.672	0.017	1408.663	72.0	3	3.93	1.96	18.185	955.0	1.68	Outcome2	6.5	3.93	3.0805	Yes	n/a	-2.57115892789732	n/a	n/a	n/a	ISITrial	Gain
297.896	3.08	0.026	1414.361	72.0	3	3.93	1.96	18.185	955.0	1.68	Outcome2	6.5	3.93	3.0805	Yes	n/a	-2.57115892789732	n/a	n/a	n/a	TrialHappPreview	Gain
300.995	4.015	0.019	1417.46	72.0	3	3.93	1.96	18.185	955.0	1.68	Outcome2	6.5	3.93	3.0805	Yes	n/a	-2.57115892789732	n/a	n/a	460.0	TrialHappiness	Gain
300.995	0.902	n/a	1418.538	72.0	3	3.93	1.96	18.185	955.0	1.68	Outcome2	6.5	3.93	3.0805	Yes	n/a	-2.57115892789732	n/a	n/a	460.0	TrialHappinessSliderResponse	Gain
305.01	4.322	4.015	1421.475	72.0	3	3.93	1.96	18.185	955.0	1.68	Outcome2	6.5	3.93	3.0805	Yes	n/a	-2.57115892789732	n/a	n/a	n/a	ISIRate	Gain
309.358	3.0	0.026	1425.823	73.0	3	4.56	2.28	18.755	955.0	2.48	Outcome2	7.3	4.56	0.0	No	2.0	-2.74471498678747	1.155	310.513	n/a	GetAnswer	Gain
310.525	4.0	0.012	1426.99	73.0	3	4.56	2.28	18.755	955.0	2.48	Outcome2	7.3	4.56	0.0	No	n/a	-2.74471498678747	n/a	n/a	n/a	ShowChoice	Gain
314.54	1.0	0.015	1431.005	73.0	3	4.56	2.28	18.755	955.0	2.48	Outcome2	7.3	4.56	0.0	No	n/a	-2.74471498678747	n/a	n/a	n/a	ShowResult	Gain
315.556	4.616	0.016	1432.021	73.0	3	4.56	2.28	18.755	955.0	2.48	Outcome2	7.3	4.56	0.0	No	n/a	-2.74471498678747	n/a	n/a	n/a	ISITrial	Gain
320.205	3.0	0.033	1436.67	74.0	3	-1.0	-1.0	18.63	955.0	2.8	Certain	7.5	-10.3	3.05625	Yes	4.0	17.800679501698802	1.818	322.023	n/a	GetAnswer	Gain
322.037	4.0	0.014	1438.502	74.0	3	-1.0	-1.0	18.63	955.0	2.8	Certain	7.5	-10.3	3.05625	Yes	n/a	17.800679501698802	n/a	n/a	n/a	ShowChoice	Gain
326.053	1.0	0.016	1442.518	74.0	3	-1.0	-1.0	18.63	955.0	2.8	Certain	7.5	-10.3	3.05625	Yes	n/a	17.800679501698802	n/a	n/a	n/a	ShowResult	Gain
327.069	3.909	0.016	1443.534	74.0	3	-1.0	-1.0	18.63	955.0	2.8	Certain	7.5	-10.3	3.05625	Yes	n/a	17.800679501698802	n/a	n/a	n/a	ISITrial	Gain
331.001	3.056	0.023	1447.466	74.0	3	-1.0	-1.0	18.63	955.0	2.8	Certain	7.5	-10.3	3.05625	Yes	n/a	17.800679501698802	n/a	n/a	n/a	TrialHappPreview	Gain
334.083	4.015	0.026	1450.548	74.0	3	-1.0	-1.0	18.63	955.0	2.8	Certain	7.5	-10.3	3.05625	Yes	n/a	17.800679501698802	n/a	n/a	492.0	TrialHappiness	Gain
334.084	0.128	n/a	1451.456	74.0	3	-1.0	-1.0	18.63	955.0	2.8	Certain	7.5	-10.3	3.05625	Yes	n/a	17.800679501698802	n/a	n/a	492.0	TrialHappinessSliderResponse	Gain
338.098	4.225	4.015	1454.563	74.0	3	-1.0	-1.0	18.63	955.0	2.8	Certain	7.5	-10.3	3.05625	Yes	n/a	17.800679501698802	n/a	n/a	n/a	ISIRate	Gain
342.347	3.0	0.024	1458.812	75.0	3	-6.0	-6.0	17.88	955.0	2.0	Certain	2.3	-15.52	0.0	No	4.0	17.817667044167603	1.345	343.692	n/a	GetAnswer	Mixed
343.713	4.0	0.021	1460.178	75.0	3	-6.0	-6.0	17.88	955.0	2.0	Certain	2.3	-15.52	0.0	No	n/a	17.817667044167603	n/a	n/a	n/a	ShowChoice	Mixed
347.728	1.0	0.015	1464.193	75.0	3	-6.0	-6.0	17.88	955.0	2.0	Certain	2.3	-15.52	0.0	No	n/a	17.817667044167603	n/a	n/a	n/a	ShowResult	Mixed
348.745	4.979	0.017	1465.21	75.0	3	-6.0	-6.0	17.88	955.0	2.0	Certain	2.3	-15.52	0.0	No	n/a	17.817667044167603	n/a	n/a	n/a	ISITrial	Mixed
353.743	3.0	0.019	1470.208	76.0	3	0.0	0.0	17.88	955.0	3.6	Certain	-8.44	9.9	0.0	No	4.0	18.3420158550396	1.325	355.068	n/a	GetAnswer	Gain
355.092	4.0	0.024	1471.557	76.0	3	0.0	0.0	17.88	955.0	3.6	Certain	-8.44	9.9	0.0	No	n/a	18.3420158550396	n/a	n/a	n/a	ShowChoice	Gain
359.108	1.0	0.016	1475.573	76.0	3	0.0	0.0	17.88	955.0	3.6	Certain	-8.44	9.9	0.0	No	n/a	18.3420158550396	n/a	n/a	n/a	ShowResult	Gain
360.124	3.931	0.016	1476.589	76.0	3	0.0	0.0	17.88	955.0	3.6	Certain	-8.44	9.9	0.0	No	n/a	18.3420158550396	n/a	n/a	n/a	ISITrial	Gain
364.073	3.0	0.018	1480.538	77.0	3	5.5	2.75	18.5675	955.0	5.0	Outcome1	5.5	8.3	4.0	Yes	2.0	-2.7956776141940405	1.183	365.256	n/a	GetAnswer	Gain
365.272	4.0	0.016	1481.737	77.0	3	5.5	2.75	18.5675	955.0	5.0	Outcome1	5.5	8.3	4.0	Yes	n/a	-2.7956776141940405	n/a	n/a	n/a	ShowChoice	Gain
369.287	1.0	0.015	1485.752	77.0	3	5.5	2.75	18.5675	955.0	5.0	Outcome1	5.5	8.3	4.0	Yes	n/a	-2.7956776141940405	n/a	n/a	n/a	ShowResult	Gain
370.304	7.022	0.017	1486.769	77.0	3	5.5	2.75	18.5675	955.0	5.0	Outcome1	5.5	8.3	4.0	Yes	n/a	-2.7956776141940405	n/a	n/a	n/a	ISITrial	Gain
377.351	4.0	0.025	1493.816	77.0	3	5.5	2.75	18.5675	955.0	5.0	Outcome1	5.5	8.3	4.0	Yes	n/a	-2.7956776141940405	n/a	n/a	n/a	TrialHappPreview	Gain
381.383	4.016	0.032	1497.848	77.0	3	5.5	2.75	18.5675	955.0	5.0	Outcome1	5.5	8.3	4.0	Yes	n/a	-2.7956776141940405	n/a	n/a	512.0	TrialHappiness	Gain
381.384	0.0	n/a	1497.849	77.0	3	5.5	2.75	18.5675	955.0	5.0	Outcome1	5.5	8.3	4.0	Yes	n/a	-2.7956776141940405	n/a	n/a	512.0	TrialHappinessSliderResponse	Gain
385.399	8.0	4.016	1501.864	77.0	3	5.5	2.75	18.5675	955.0	5.0	Outcome1	5.5	8.3	4.0	Yes	n/a	-2.7956776141940405	n/a	n/a	n/a	ISIRate	Gain
393.429	3.0	0.03	1509.894	78.0	3	-7.0	-7.0	17.6925	955.0	1.2	Certain	-17.15	1.9	0.0	No	4.0	19.0509626274066	1.628	395.057	n/a	GetAnswer	Mixed
395.078	4.0	0.021	1511.543	78.0	3	-7.0	-7.0	17.6925	955.0	1.2	Certain	-17.15	1.9	0.0	No	n/a	19.0509626274066	n/a	n/a	n/a	ShowChoice	Mixed
399.094	1.0	0.016	1515.559	78.0	3	-7.0	-7.0	17.6925	955.0	1.2	Certain	-17.15	1.9	0.0	No	n/a	19.0509626274066	n/a	n/a	n/a	ShowResult	Mixed
400.11	2.078	0.016	1516.575	78.0	3	-7.0	-7.0	17.6925	955.0	1.2	Certain	-17.15	1.9	0.0	No	n/a	19.0509626274066	n/a	n/a	n/a	ISITrial	Mixed
402.209	3.0	0.021	1518.674	79.0	3	-8.0	-8.0	16.6925	955.0	0.66	Certain	-18.25	1.3	2.7295	Yes	4.0	19.5526613816535	1.225	403.434	n/a	GetAnswer	Mixed
403.459	4.0	0.025	1519.924	79.0	3	-8.0	-8.0	16.6925	955.0	0.66	Certain	-18.25	1.3	2.7295	Yes	n/a	19.5526613816535	n/a	n/a	n/a	ShowChoice	Mixed
407.474	1.0	0.015	1523.939	79.0	3	-8.0	-8.0	16.6925	955.0	0.66	Certain	-18.25	1.3	2.7295	Yes	n/a	19.5526613816535	n/a	n/a	n/a	ShowResult	Mixed
408.49	3.829	0.016	1524.955	79.0	3	-8.0	-8.0	16.6925	955.0	0.66	Certain	-18.25	1.3	2.7295	Yes	n/a	19.5526613816535	n/a	n/a	n/a	ISITrial	Mixed
412.339	2.73	0.02	1528.804	79.0	3	-8.0	-8.0	16.6925	955.0	0.66	Certain	-18.25	1.3	2.7295	Yes	n/a	19.5526613816535	n/a	n/a	n/a	TrialHappPreview	Mixed
415.088	4.015	0.019	1531.553	79.0	3	-8.0	-8.0	16.6925	955.0	0.66	Certain	-18.25	1.3	2.7295	Yes	n/a	19.5526613816535	n/a	n/a	452.0	TrialHappiness	Mixed
415.089	0.835	n/a	1532.445	79.0	3	-8.0	-8.0	16.6925	955.0	0.66	Certain	-18.25	1.3	2.7295	Yes	n/a	19.5526613816535	n/a	n/a	452.0	TrialHappinessSliderResponse	Mixed
419.103	2.918	4.015	1535.568	79.0	3	-8.0	-8.0	16.6925	955.0	0.66	Certain	-18.25	1.3	2.7295	Yes	n/a	19.5526613816535	n/a	n/a	n/a	ISIRate	Mixed
422.052	3.0	0.031	1538.517	80.0	3	9.61	4.8	17.8938	955.0	1.82	Outcome2	12.7	9.61	0.0	No	2.0	-3.08531521328803	1.24	423.292	n/a	GetAnswer	Loss
423.319	4.0	0.027	1539.784	80.0	3	9.61	4.8	17.8938	955.0	1.82	Outcome2	12.7	9.61	0.0	No	n/a	-3.08531521328803	n/a	n/a	n/a	ShowChoice	Loss
427.334	1.0	0.015	1543.799	80.0	3	9.61	4.8	17.8938	955.0	1.82	Outcome2	12.7	9.61	0.0	No	n/a	-3.08531521328803	n/a	n/a	n/a	ShowResult	Loss
428.35	3.336	0.016	1544.815	80.0	3	9.61	4.8	17.8938	955.0	1.82	Outcome2	12.7	9.61	0.0	No	n/a	-3.08531521328803	n/a	n/a	n/a	ISITrial	Loss
431.716	3.0	0.03	1548.181	81.0	3	-11.0	-11.0	16.5188	955.0	1.2	Certain	-0.1	-21.74	3.92375	Yes	4.0	21.643261608154003	1.314	433.03	n/a	GetAnswer	Mixed
433.049	4.0	0.019	1549.514	81.0	3	-11.0	-11.0	16.5188	955.0	1.2	Certain	-0.1	-21.74	3.92375	Yes	n/a	21.643261608154003	n/a	n/a	n/a	ShowChoice	Mixed
437.064	1.0	0.015	1553.529	81.0	3	-11.0	-11.0	16.5188	955.0	1.2	Certain	-0.1	-21.74	3.92375	Yes	n/a	21.643261608154003	n/a	n/a	n/a	ShowResult	Mixed
438.08	3.919	0.016	1554.545	81.0	3	-11.0	-11.0	16.5188	955.0	1.2	Certain	-0.1	-21.74	3.92375	Yes	n/a	21.643261608154003	n/a	n/a	n/a	ISITrial	Mixed
442.012	3.924	0.013	1558.477	81.0	3	-11.0	-11.0	16.5188	955.0	1.2	Certain	-0.1	-21.74	3.92375	Yes	n/a	21.643261608154003	n/a	n/a	n/a	TrialHappPreview	Mixed
445.961	4.015	0.025	1562.426	81.0	3	-11.0	-11.0	16.5188	955.0	1.2	Certain	-0.1	-21.74	3.92375	Yes	n/a	21.643261608154003	n/a	n/a	448.0	TrialHappiness	Mixed
445.961	0.952	n/a	1563.014	81.0	3	-11.0	-11.0	16.5188	955.0	1.2	Certain	-0.1	-21.74	3.92375	Yes	n/a	21.643261608154003	n/a	n/a	448.0	TrialHappinessSliderResponse	Mixed
449.976	7.695	4.015	1566.441	81.0	3	-11.0	-11.0	16.5188	955.0	1.2	Certain	-0.1	-21.74	3.92375	Yes	n/a	21.643261608154003	n/a	n/a	n/a	ISIRate	Mixed
457.69	3.0	0.019	1574.155	n/a	3	n/a	n/a	n/a	n/a	n/a	n/a	n/a	n/a	n/a	n/a	n/a	n/a	n/a	n/a	n/a	CurrentEarnings	n/a
460.706	-0.001	0.016	1577.171	n/a	3	n/a	n/a	n/a	n/a	n/a	n/a	n/a	n/a	n/a	n/a	{SPACE}	n/a	20.797	481.503	n/a	Goodbye	n/a
