onset	duration	onset_delay	onset_unadjusted	trial_number	block	amount_change	certain_amount	current_amount	mood_target	multiplier	outcome	outcome1_amount	outcome2_amount	question_duration	rating	response	rpe	rt	rt_time	slider_response	trial_phase	trial_type
-51.465	-0.001	0.038	29.143	n/a	0	n/a	n/a	n/a	n/a	n/a	n/a	n/a	n/a	n/a	n/a	{SPACE}	n/a	10.112	-41.353	n/a	Welcome	n/a
-41.336	5.0	0.017	39.272	n/a	0	n/a	n/a	n/a	n/a	n/a	n/a	n/a	n/a	n/a	n/a	n/a	n/a	n/a	n/a	n/a	LifeHappyPreview	n/a
-36.304	3.773	0.032	44.304	n/a	0	n/a	n/a	n/a	n/a	n/a	n/a	n/a	n/a	n/a	n/a	n/a	n/a	n/a	n/a	692.0	LifeHappiness	n/a
-36.303	2.852	n/a	45.226	n/a	0	n/a	n/a	n/a	n/a	n/a	n/a	n/a	n/a	n/a	n/a	n/a	n/a	n/a	n/a	692.0	LifeHappinessSliderResponse	n/a
-17.994	4.0	0.016	62.614	n/a	0	n/a	n/a	n/a	n/a	n/a	n/a	n/a	n/a	n/a	n/a	n/a	n/a	n/a	n/a	n/a	BlockHappyPreview	n/a
-13.979	1.956	0.015	66.629	n/a	0	n/a	n/a	n/a	n/a	n/a	n/a	n/a	n/a	n/a	n/a	n/a	n/a	n/a	n/a	560.0	BlockStartHappiness	n/a
-13.978	0.631	n/a	67.955	n/a	0	n/a	n/a	n/a	n/a	n/a	n/a	n/a	n/a	n/a	n/a	n/a	n/a	n/a	n/a	560.0	BlockStartHappinessSliderResponse	n/a
-7.081	-0.001	0.017	73.527	n/a	0	n/a	n/a	n/a	n/a	n/a	n/a	n/a	n/a	n/a	n/a	5.0	n/a	7.06	-0.021	n/a	ScanWait	n/a
0.0	10.0	0.021	80.608	n/a	1	n/a	n/a	n/a	n/a	n/a	n/a	n/a	n/a	n/a	n/a	n/a	n/a	n/a	n/a	n/a	GetReady	n/a
10.029	3.0	0.029	90.637	1.0	1	7.9	3.95	10.9875	955.0	2.8	Outcome2	9.5	7.9	0.0	No	2.0	-1.60296338240846	1.082	11.111	n/a	GetAnswer	Gain
11.129	4.0	0.018	91.737	1.0	1	7.9	3.95	10.9875	955.0	2.8	Outcome2	9.5	7.9	0.0	No	n/a	-1.60296338240846	n/a	n/a	n/a	ShowChoice	Gain
15.144	1.0	0.015	95.752	1.0	1	7.9	3.95	10.9875	955.0	2.8	Outcome2	9.5	7.9	0.0	No	n/a	-1.60296338240846	n/a	n/a	n/a	ShowResult	Gain
16.161	2.431	0.017	96.769	1.0	1	7.9	3.95	10.9875	955.0	2.8	Outcome2	9.5	7.9	0.0	No	n/a	-1.60296338240846	n/a	n/a	n/a	ISITrial	Gain
18.61	3.0	0.018	99.218	2.0	1	7.5	0.17	11.925	955.0	2.8	Outcome1	7.5	0.34	0.0	No	2.0	7.15741789354473	1.157	19.767	n/a	GetAnswer	Gain
19.793	4.0	0.026	100.401	2.0	1	7.5	0.17	11.925	955.0	2.8	Outcome1	7.5	0.34	0.0	No	n/a	7.15741789354473	n/a	n/a	n/a	ShowChoice	Gain
23.808	1.0	0.015	104.416	2.0	1	7.5	0.17	11.925	955.0	2.8	Outcome1	7.5	0.34	0.0	No	n/a	7.15741789354473	n/a	n/a	n/a	ShowResult	Gain
24.824	4.568	0.016	105.432	2.0	1	7.5	0.17	11.925	955.0	2.8	Outcome1	7.5	0.34	0.0	No	n/a	7.15741789354473	n/a	n/a	n/a	ISITrial	Gain
29.423	3.0	0.031	110.031	3.0	1	13.5	2.95	13.6125	955.0	2.8	Outcome1	13.5	5.9	2.868	Yes	2.0	7.60475651189128	0.938	30.361	n/a	GetAnswer	Loss
30.372	4.0	0.011	110.98	3.0	1	13.5	2.95	13.6125	955.0	2.8	Outcome1	13.5	5.9	2.868	Yes	n/a	7.60475651189128	n/a	n/a	n/a	ShowChoice	Loss
34.387	1.0	0.015	114.995	3.0	1	13.5	2.95	13.6125	955.0	2.8	Outcome1	13.5	5.9	2.868	Yes	n/a	7.60475651189128	n/a	n/a	n/a	ShowResult	Loss
35.404	3.243	0.017	116.012	3.0	1	13.5	2.95	13.6125	955.0	2.8	Outcome1	13.5	5.9	2.868	Yes	n/a	7.60475651189128	n/a	n/a	n/a	ISITrial	Loss
38.669	2.868	0.022	119.277	3.0	1	13.5	2.95	13.6125	955.0	2.8	Outcome1	13.5	5.9	2.868	Yes	n/a	7.60475651189128	n/a	n/a	n/a	TrialHappPreview	Loss
41.552	4.015	0.015	122.16	3.0	1	13.5	2.95	13.6125	955.0	2.8	Outcome1	13.5	5.9	2.868	Yes	n/a	7.60475651189128	n/a	n/a	732.0	TrialHappiness	Loss
41.552	2.838	n/a	123.161	3.0	1	13.5	2.95	13.6125	955.0	2.8	Outcome1	13.5	5.9	2.868	Yes	n/a	7.60475651189128	n/a	n/a	732.0	TrialHappinessSliderResponse	Loss
45.567	3.472	4.015	126.175	3.0	1	13.5	2.95	13.6125	955.0	2.8	Outcome1	13.5	5.9	2.868	Yes	n/a	7.60475651189128	n/a	n/a	n/a	ISIRate	Loss
49.066	3.0	0.027	129.674	4.0	1	6.1	0.48	14.375	955.0	4.2	Outcome2	0.97	6.1	0.0	No	2.0	5.130237825594559	1.02	50.086	n/a	GetAnswer	Gain
50.099	4.0	0.013	130.707	4.0	1	6.1	0.48	14.375	955.0	4.2	Outcome2	0.97	6.1	0.0	No	n/a	5.130237825594559	n/a	n/a	n/a	ShowChoice	Gain
54.114	1.0	0.015	134.722	4.0	1	6.1	0.48	14.375	955.0	4.2	Outcome2	0.97	6.1	0.0	No	n/a	5.130237825594559	n/a	n/a	n/a	ShowResult	Gain
55.13	2.011	0.016	135.738	4.0	1	6.1	0.48	14.375	955.0	4.2	Outcome2	0.97	6.1	0.0	No	n/a	5.130237825594559	n/a	n/a	n/a	ISITrial	Gain
57.163	3.0	0.022	137.771	5.0	1	-0.7	-3.0	14.2875	955.0	0.66	Outcome2	-6.08	-0.7	2.5825	Yes	2.0	5.38278595696489	1.679	58.842	n/a	GetAnswer	Mixed
58.862	4.0	0.02	139.47	5.0	1	-0.7	-3.0	14.2875	955.0	0.66	Outcome2	-6.08	-0.7	2.5825	Yes	n/a	5.38278595696489	n/a	n/a	n/a	ShowChoice	Mixed
62.877	1.0	0.015	143.485	5.0	1	-0.7	-3.0	14.2875	955.0	0.66	Outcome2	-6.08	-0.7	2.5825	Yes	n/a	5.38278595696489	n/a	n/a	n/a	ShowResult	Mixed
63.894	5.129	0.017	144.502	5.0	1	-0.7	-3.0	14.2875	955.0	0.66	Outcome2	-6.08	-0.7	2.5825	Yes	n/a	5.38278595696489	n/a	n/a	n/a	ISITrial	Mixed
69.042	2.582	0.019	149.65	5.0	1	-0.7	-3.0	14.2875	955.0	0.66	Outcome2	-6.08	-0.7	2.5825	Yes	n/a	5.38278595696489	n/a	n/a	n/a	TrialHappPreview	Mixed
71.641	4.015	0.017	152.249	5.0	1	-0.7	-3.0	14.2875	955.0	0.66	Outcome2	-6.08	-0.7	2.5825	Yes	n/a	5.38278595696489	n/a	n/a	712.0	TrialHappiness	Mixed
71.642	3.287	n/a	152.685	5.0	1	-0.7	-3.0	14.2875	955.0	0.66	Outcome2	-6.08	-0.7	2.5825	Yes	n/a	5.38278595696489	n/a	n/a	712.0	TrialHappinessSliderResponse	Mixed
75.656	2.33	4.015	156.264	5.0	1	-0.7	-3.0	14.2875	955.0	0.66	Outcome2	-6.08	-0.7	2.5825	Yes	n/a	5.38278595696489	n/a	n/a	n/a	ISIRate	Mixed
78.005	3.0	0.019	158.613	6.0	1	3.96	1.98	14.7825	955.0	2.22	Outcome1	3.96	5.1	0.0	No	2.0	-1.14005285013213	1.154	79.159	n/a	GetAnswer	Gain
79.172	4.0	0.013	159.78	6.0	1	3.96	1.98	14.7825	955.0	2.22	Outcome1	3.96	5.1	0.0	No	n/a	-1.14005285013213	n/a	n/a	n/a	ShowChoice	Gain
83.187	1.0	0.015	163.795	6.0	1	3.96	1.98	14.7825	955.0	2.22	Outcome1	3.96	5.1	0.0	No	n/a	-1.14005285013213	n/a	n/a	n/a	ShowResult	Gain
84.203	6.232	0.016	164.811	6.0	1	3.96	1.98	14.7825	955.0	2.22	Outcome1	3.96	5.1	0.0	No	n/a	-1.14005285013213	n/a	n/a	n/a	ISITrial	Gain
90.451	3.0	0.016	171.059	7.0	1	-0.3	-3.0	14.745	955.0	1.0	Outcome1	-0.3	-6.55	0.0	No	2.0	6.25028312570781	1.659	92.11	n/a	GetAnswer	Mixed
92.134	4.0	0.024	172.742	7.0	1	-0.3	-3.0	14.745	955.0	1.0	Outcome1	-0.3	-6.55	0.0	No	n/a	6.25028312570781	n/a	n/a	n/a	ShowChoice	Mixed
96.149	1.0	0.015	176.757	7.0	1	-0.3	-3.0	14.745	955.0	1.0	Outcome1	-0.3	-6.55	0.0	No	n/a	6.25028312570781	n/a	n/a	n/a	ShowResult	Mixed
97.165	2.305	0.016	177.773	7.0	1	-0.3	-3.0	14.745	955.0	1.0	Outcome1	-0.3	-6.55	0.0	No	n/a	6.25028312570781	n/a	n/a	n/a	ISITrial	Mixed
99.498	3.0	0.028	180.106	8.0	1	-1.0	-1.0	14.62	955.0	1.2	Certain	-4.63	1.9	3.1125	Yes	4.0	6.52548131370328	1.756	101.254	n/a	GetAnswer	Mixed
101.28	4.0	0.026	181.888	8.0	1	-1.0	-1.0	14.62	955.0	1.2	Certain	-4.63	1.9	3.1125	Yes	n/a	6.52548131370328	n/a	n/a	n/a	ShowChoice	Mixed
105.296	1.0	0.016	185.904	8.0	1	-1.0	-1.0	14.62	955.0	1.2	Certain	-4.63	1.9	3.1125	Yes	n/a	6.52548131370328	n/a	n/a	n/a	ShowResult	Mixed
106.312	3.506	0.016	186.92	8.0	1	-1.0	-1.0	14.62	955.0	1.2	Certain	-4.63	1.9	3.1125	Yes	n/a	6.52548131370328	n/a	n/a	n/a	ISITrial	Mixed
109.844	3.112	0.026	190.452	8.0	1	-1.0	-1.0	14.62	955.0	1.2	Certain	-4.63	1.9	3.1125	Yes	n/a	6.52548131370328	n/a	n/a	n/a	TrialHappPreview	Mixed
112.976	4.015	0.02	193.584	8.0	1	-1.0	-1.0	14.62	955.0	1.2	Certain	-4.63	1.9	3.1125	Yes	2{-2}2{-2}2{-2}2{-2}2{-2}2{-2}2{-2}2{-2}2{-2}	6.52548131370328	3.623	116.599	688.0	TrialHappiness	Mixed
112.977	2.968	n/a	194.24	8.0	1	-1.0	-1.0	14.62	955.0	1.2	Certain	-4.63	1.9	3.1125	Yes	n/a	6.52548131370328	n/a	n/a	688.0	TrialHappinessSliderResponse	Mixed
116.991	4.45	4.015	197.599	8.0	1	-1.0	-1.0	14.62	955.0	1.2	Certain	-4.63	1.9	3.1125	Yes	n/a	6.52548131370328	n/a	n/a	n/a	ISIRate	Mixed
121.456	3.0	0.015	202.064	9.0	1	-4.0	-4.0	14.12	955.0	0.82	Certain	-7.71	-0.5	0.0	No	4.0	7.2083805209513	2.13	123.586	n/a	GetAnswer	Mixed
123.606	4.0	0.02	204.214	9.0	1	-4.0	-4.0	14.12	955.0	0.82	Certain	-7.71	-0.5	0.0	No	n/a	7.2083805209513	n/a	n/a	n/a	ShowChoice	Mixed
127.621	1.0	0.015	208.229	9.0	1	-4.0	-4.0	14.12	955.0	0.82	Certain	-7.71	-0.5	0.0	No	n/a	7.2083805209513	n/a	n/a	n/a	ShowResult	Mixed
128.637	2.0	0.016	209.245	9.0	1	-4.0	-4.0	14.12	955.0	0.82	Certain	-7.71	-0.5	0.0	No	n/a	7.2083805209513	n/a	n/a	n/a	ISITrial	Mixed
130.653	3.0	0.016	211.261	10.0	1	9.7	1.1	15.3325	955.0	3.16	Outcome2	2.19	9.7	4.0	Yes	2.0	7.510758776896941	0.959	131.612	n/a	GetAnswer	Gain
131.636	4.0	0.024	212.244	10.0	1	9.7	1.1	15.3325	955.0	3.16	Outcome2	2.19	9.7	4.0	Yes	n/a	7.510758776896941	n/a	n/a	n/a	ShowChoice	Gain
135.651	1.0	0.015	216.259	10.0	1	9.7	1.1	15.3325	955.0	3.16	Outcome2	2.19	9.7	4.0	Yes	n/a	7.510758776896941	n/a	n/a	n/a	ShowResult	Gain
136.668	2.0	0.017	217.276	10.0	1	9.7	1.1	15.3325	955.0	3.16	Outcome2	2.19	9.7	4.0	Yes	n/a	7.510758776896941	n/a	n/a	n/a	ISITrial	Gain
138.684	4.0	0.016	219.292	10.0	1	9.7	1.1	15.3325	955.0	3.16	Outcome2	2.19	9.7	4.0	Yes	n/a	7.510758776896941	n/a	n/a	n/a	TrialHappPreview	Gain
142.699	4.015	0.015	223.307	10.0	1	9.7	1.1	15.3325	955.0	3.16	Outcome2	2.19	9.7	4.0	Yes	n/a	7.510758776896941	n/a	n/a	712.0	TrialHappiness	Gain
142.7	3.012	n/a	223.72	10.0	1	9.7	1.1	15.3325	955.0	3.16	Outcome2	2.19	9.7	4.0	Yes	n/a	7.510758776896941	n/a	n/a	712.0	TrialHappinessSliderResponse	Gain
146.714	8.0	4.015	227.322	10.0	1	9.7	1.1	15.3325	955.0	3.16	Outcome2	2.19	9.7	4.0	Yes	n/a	7.510758776896941	n/a	n/a	n/a	ISIRate	Gain
154.745	3.0	0.031	235.353	11.0	1	5.5	2.0	16.02	955.0	2.8	Outcome1	5.5	-1.91	0.0	No	2.0	7.40543601359003	1.658	156.403	n/a	GetAnswer	Gain
156.427	4.0	0.024	237.035	11.0	1	5.5	2.0	16.02	955.0	2.8	Outcome1	5.5	-1.91	0.0	No	n/a	7.40543601359003	n/a	n/a	n/a	ShowChoice	Gain
160.443	1.0	0.016	241.051	11.0	1	5.5	2.0	16.02	955.0	2.8	Outcome1	5.5	-1.91	0.0	No	n/a	7.40543601359003	n/a	n/a	n/a	ShowResult	Gain
161.459	3.324	0.016	242.067	11.0	1	5.5	2.0	16.02	955.0	2.8	Outcome1	5.5	-1.91	0.0	No	n/a	7.40543601359003	n/a	n/a	n/a	ISITrial	Gain
164.808	3.0	0.025	245.416	12.0	1	-1.0	-1.0	15.895	955.0	0.2	Certain	2.5	-5.18	2.61875	Yes	4.0	7.6806342015855	1.295	166.103	n/a	GetAnswer	Mixed
166.124	4.0	0.021	246.732	12.0	1	-1.0	-1.0	15.895	955.0	0.2	Certain	2.5	-5.18	2.61875	Yes	n/a	7.6806342015855	n/a	n/a	n/a	ShowChoice	Mixed
170.139	1.0	0.015	250.747	12.0	1	-1.0	-1.0	15.895	955.0	0.2	Certain	2.5	-5.18	2.61875	Yes	n/a	7.6806342015855	n/a	n/a	n/a	ShowResult	Mixed
171.155	6.642	0.016	251.763	12.0	1	-1.0	-1.0	15.895	955.0	0.2	Certain	2.5	-5.18	2.61875	Yes	n/a	7.6806342015855	n/a	n/a	n/a	ISITrial	Mixed
177.82	2.619	0.023	258.428	12.0	1	-1.0	-1.0	15.895	955.0	0.2	Certain	2.5	-5.18	2.61875	Yes	n/a	7.6806342015855	n/a	n/a	n/a	TrialHappPreview	Mixed
180.469	4.015	0.03	261.077	12.0	1	-1.0	-1.0	15.895	955.0	0.2	Certain	2.5	-5.18	2.61875	Yes	n/a	7.6806342015855	n/a	n/a	620.0	TrialHappiness	Mixed
180.469	3.457	n/a	261.513	12.0	1	-1.0	-1.0	15.895	955.0	0.2	Certain	2.5	-5.18	2.61875	Yes	n/a	7.6806342015855	n/a	n/a	620.0	TrialHappinessSliderResponse	Mixed
184.484	2.475	4.015	265.092	12.0	1	-1.0	-1.0	15.895	955.0	0.2	Certain	2.5	-5.18	2.61875	Yes	n/a	7.6806342015855	n/a	n/a	n/a	ISIRate	Mixed
186.983	3.0	0.024	267.591	13.0	1	-6.0	-6.0	15.145	955.0	0.4	Certain	-1.1	-10.62	0.0	No	4.0	9.51868629671574	2.555	189.538	n/a	GetAnswer	Mixed
189.549	4.0	0.011	270.157	13.0	1	-6.0	-6.0	15.145	955.0	0.4	Certain	-1.1	-10.62	0.0	No	n/a	9.51868629671574	n/a	n/a	n/a	ShowChoice	Mixed
193.564	1.0	0.015	274.172	13.0	1	-6.0	-6.0	15.145	955.0	0.4	Certain	-1.1	-10.62	0.0	No	n/a	9.51868629671574	n/a	n/a	n/a	ShowResult	Mixed
194.58	3.48	0.016	275.188	13.0	1	-6.0	-6.0	15.145	955.0	0.4	Certain	-1.1	-10.62	0.0	No	n/a	9.51868629671574	n/a	n/a	n/a	ISITrial	Mixed
198.079	3.0	0.019	278.687	14.0	1	4.9	0.0	15.7575	955.0	2.0	Outcome2	-5.0	4.9	0.0	No	2.0	9.89807474518686	1.962	200.041	n/a	GetAnswer	Gain
200.062	4.0	0.021	280.67	14.0	1	4.9	0.0	15.7575	955.0	2.0	Outcome2	-5.0	4.9	0.0	No	n/a	9.89807474518686	n/a	n/a	n/a	ShowChoice	Gain
204.077	1.0	0.015	284.685	14.0	1	4.9	0.0	15.7575	955.0	2.0	Outcome2	-5.0	4.9	0.0	No	n/a	9.89807474518686	n/a	n/a	n/a	ShowResult	Gain
205.093	5.019	0.016	285.701	14.0	1	4.9	0.0	15.7575	955.0	2.0	Outcome2	-5.0	4.9	0.0	No	n/a	9.89807474518686	n/a	n/a	n/a	ISITrial	Gain
210.142	3.0	0.03	290.75	15.0	1	9.1	-0.59	16.895	955.0	2.22	Outcome2	-1.18	9.1	3.3485	Yes	2.0	10.277463193658	1.852	211.994	n/a	GetAnswer	Gain
212.008	4.0	0.014	292.616	15.0	1	9.1	-0.59	16.895	955.0	2.22	Outcome2	-1.18	9.1	3.3485	Yes	n/a	10.277463193658	n/a	n/a	n/a	ShowChoice	Gain
216.023	1.0	0.015	296.631	15.0	1	9.1	-0.59	16.895	955.0	2.22	Outcome2	-1.18	9.1	3.3485	Yes	n/a	10.277463193658	n/a	n/a	n/a	ShowResult	Gain
217.039	7.614	0.016	297.647	15.0	1	9.1	-0.59	16.895	955.0	2.22	Outcome2	-1.18	9.1	3.3485	Yes	n/a	10.277463193658	n/a	n/a	n/a	ISITrial	Gain
224.67	3.348	0.017	305.278	15.0	1	9.1	-0.59	16.895	955.0	2.22	Outcome2	-1.18	9.1	3.3485	Yes	n/a	10.277463193658	n/a	n/a	n/a	TrialHappPreview	Gain
228.035	4.015	0.017	308.643	15.0	1	9.1	-0.59	16.895	955.0	2.22	Outcome2	-1.18	9.1	3.3485	Yes	n/a	10.277463193658	n/a	n/a	708.0	TrialHappiness	Gain
228.036	3.031	n/a	309.077	15.0	1	9.1	-0.59	16.895	955.0	2.22	Outcome2	-1.18	9.1	3.3485	Yes	n/a	10.277463193658	n/a	n/a	708.0	TrialHappinessSliderResponse	Gain
232.05	5.394	4.015	312.658	15.0	1	9.1	-0.59	16.895	955.0	2.22	Outcome2	-1.18	9.1	3.3485	Yes	n/a	10.277463193658	n/a	n/a	n/a	ISIRate	Gain
237.465	3.0	0.021	318.073	16.0	1	0.0	0.0	16.895	955.0	1.2	Certain	-5.26	3.9	0.0	No	4.0	9.16194790486976	2.023	239.488	n/a	GetAnswer	Mixed
239.514	4.0	0.026	320.122	16.0	1	0.0	0.0	16.895	955.0	1.2	Certain	-5.26	3.9	0.0	No	n/a	9.16194790486976	n/a	n/a	n/a	ShowChoice	Mixed
243.53	1.0	0.016	324.138	16.0	1	0.0	0.0	16.895	955.0	1.2	Certain	-5.26	3.9	0.0	No	n/a	9.16194790486976	n/a	n/a	n/a	ShowResult	Mixed
244.546	3.008	0.016	325.154	16.0	1	0.0	0.0	16.895	955.0	1.2	Certain	-5.26	3.9	0.0	No	n/a	9.16194790486976	n/a	n/a	n/a	ISITrial	Mixed
247.578	3.0	0.024	328.186	17.0	1	12.3	1.43	18.4325	955.0	5.0	Outcome1	12.3	2.86	3.0415	Yes	2.0	9.44167610419026	1.172	248.75	n/a	GetAnswer	Loss
248.761	4.0	0.011	329.369	17.0	1	12.3	1.43	18.4325	955.0	5.0	Outcome1	12.3	2.86	3.0415	Yes	n/a	9.44167610419026	n/a	n/a	n/a	ShowChoice	Loss
252.776	1.0	0.015	333.384	17.0	1	12.3	1.43	18.4325	955.0	5.0	Outcome1	12.3	2.86	3.0415	Yes	n/a	9.44167610419026	n/a	n/a	n/a	ShowResult	Loss
253.793	3.566	0.017	334.401	17.0	1	12.3	1.43	18.4325	955.0	5.0	Outcome1	12.3	2.86	3.0415	Yes	n/a	9.44167610419026	n/a	n/a	n/a	ISITrial	Loss
257.375	3.042	0.016	337.983	17.0	1	12.3	1.43	18.4325	955.0	5.0	Outcome1	12.3	2.86	3.0415	Yes	n/a	9.44167610419026	n/a	n/a	n/a	TrialHappPreview	Loss
260.44	4.016	0.023	341.048	17.0	1	12.3	1.43	18.4325	955.0	5.0	Outcome1	12.3	2.86	3.0415	Yes	n/a	9.44167610419026	n/a	n/a	760.0	TrialHappiness	Loss
260.441	2.424	n/a	341.613	17.0	1	12.3	1.43	18.4325	955.0	5.0	Outcome1	12.3	2.86	3.0415	Yes	n/a	9.44167610419026	n/a	n/a	760.0	TrialHappinessSliderResponse	Loss
264.456	4.166	4.016	345.064	17.0	1	12.3	1.43	18.4325	955.0	5.0	Outcome1	12.3	2.86	3.0415	Yes	n/a	9.44167610419026	n/a	n/a	n/a	ISIRate	Loss
268.637	3.0	0.015	349.245	18.0	1	12.7	1.93	20.02	955.0	1.82	Outcome1	12.7	3.86	0.0	No	2.0	8.838052095130239	1.069	269.706	n/a	GetAnswer	Loss
269.72	4.0	0.013	350.328	18.0	1	12.7	1.93	20.02	955.0	1.82	Outcome1	12.7	3.86	0.0	No	n/a	8.838052095130239	n/a	n/a	n/a	ShowChoice	Loss
273.736	1.0	0.016	354.344	18.0	1	12.7	1.93	20.02	955.0	1.82	Outcome1	12.7	3.86	0.0	No	n/a	8.838052095130239	n/a	n/a	n/a	ShowResult	Loss
274.752	6.787	0.016	355.36	18.0	1	12.7	1.93	20.02	955.0	1.82	Outcome1	12.7	3.86	0.0	No	n/a	8.838052095130239	n/a	n/a	n/a	ISITrial	Loss
281.566	3.0	0.027	362.174	19.0	1	13.9	2.42	21.7575	955.0	3.6	Outcome2	4.84	13.9	0.0	No	2.0	9.05889014722537	1.079	282.645	n/a	GetAnswer	Loss
282.666	4.0	0.021	363.274	19.0	1	13.9	2.42	21.7575	955.0	3.6	Outcome2	4.84	13.9	0.0	No	n/a	9.05889014722537	n/a	n/a	n/a	ShowChoice	Loss
286.681	1.0	0.015	367.289	19.0	1	13.9	2.42	21.7575	955.0	3.6	Outcome2	4.84	13.9	0.0	No	n/a	9.05889014722537	n/a	n/a	n/a	ShowResult	Loss
287.697	2.0	0.016	368.305	19.0	1	13.9	2.42	21.7575	955.0	3.6	Outcome2	4.84	13.9	0.0	No	n/a	9.05889014722537	n/a	n/a	n/a	ISITrial	Loss
289.713	3.0	0.016	370.321	20.0	1	-6.0	-6.0	21.0075	955.0	0.2	Certain	-1.5	-10.78	2.92125	Yes	4.0	9.2797281993205	1.808	291.521	n/a	GetAnswer	Mixed
291.546	4.0	0.025	372.154	20.0	1	-6.0	-6.0	21.0075	955.0	0.2	Certain	-1.5	-10.78	2.92125	Yes	n/a	9.2797281993205	n/a	n/a	n/a	ShowChoice	Mixed
295.561	1.0	0.015	376.169	20.0	1	-6.0	-6.0	21.0075	955.0	0.2	Certain	-1.5	-10.78	2.92125	Yes	n/a	9.2797281993205	n/a	n/a	n/a	ShowResult	Mixed
296.578	8.0	0.017	377.186	20.0	1	-6.0	-6.0	21.0075	955.0	0.2	Certain	-1.5	-10.78	2.92125	Yes	n/a	9.2797281993205	n/a	n/a	n/a	ISITrial	Mixed
304.591	2.921	0.013	385.199	20.0	1	-6.0	-6.0	21.0075	955.0	0.2	Certain	-1.5	-10.78	2.92125	Yes	n/a	9.2797281993205	n/a	n/a	n/a	TrialHappPreview	Mixed
307.54	4.016	0.028	388.148	20.0	1	-6.0	-6.0	21.0075	955.0	0.2	Certain	-1.5	-10.78	2.92125	Yes	n/a	9.2797281993205	n/a	n/a	528.0	TrialHappiness	Mixed
307.541	0.185	n/a	389.004	20.0	1	-6.0	-6.0	21.0075	955.0	0.2	Certain	-1.5	-10.78	2.92125	Yes	n/a	9.2797281993205	n/a	n/a	528.0	TrialHappinessSliderResponse	Mixed
311.556	3.685	4.016	392.164	20.0	1	-6.0	-6.0	21.0075	955.0	0.2	Certain	-1.5	-10.78	2.92125	Yes	n/a	9.2797281993205	n/a	n/a	n/a	ISIRate	Mixed
315.271	3.0	0.03	395.879	21.0	1	0.0	0.0	21.0075	955.0	2.0	Certain	6.9	-6.54	0.0	No	4.0	13.441676104190302	1.67	316.941	n/a	GetAnswer	Gain
316.954	4.0	0.013	397.562	21.0	1	0.0	0.0	21.0075	955.0	2.0	Certain	6.9	-6.54	0.0	No	n/a	13.441676104190302	n/a	n/a	n/a	ShowChoice	Gain
320.969	1.0	0.015	401.577	21.0	1	0.0	0.0	21.0075	955.0	2.0	Certain	6.9	-6.54	0.0	No	n/a	13.441676104190302	n/a	n/a	n/a	ShowResult	Gain
321.985	3.555	0.016	402.593	21.0	1	0.0	0.0	21.0075	955.0	2.0	Certain	6.9	-6.54	0.0	No	n/a	13.441676104190302	n/a	n/a	n/a	ISITrial	Gain
325.567	3.0	0.027	406.175	22.0	1	4.7	-2.0	21.595	955.0	1.82	Outcome2	-9.23	4.7	3.2195	Yes	2.0	13.925254813137	2.014	327.581	n/a	GetAnswer	Gain
327.6	4.0	0.019	408.208	22.0	1	4.7	-2.0	21.595	955.0	1.82	Outcome2	-9.23	4.7	3.2195	Yes	n/a	13.925254813137	n/a	n/a	n/a	ShowChoice	Gain
331.615	1.0	0.015	412.223	22.0	1	4.7	-2.0	21.595	955.0	1.82	Outcome2	-9.23	4.7	3.2195	Yes	n/a	13.925254813137	n/a	n/a	n/a	ShowResult	Gain
332.631	6.793	0.016	413.239	22.0	1	4.7	-2.0	21.595	955.0	1.82	Outcome2	-9.23	4.7	3.2195	Yes	n/a	13.925254813137	n/a	n/a	n/a	ISITrial	Gain
339.446	3.22	0.022	420.054	22.0	1	4.7	-2.0	21.595	955.0	1.82	Outcome2	-9.23	4.7	3.2195	Yes	n/a	13.925254813137	n/a	n/a	n/a	TrialHappPreview	Gain
342.694	4.016	0.028	423.302	22.0	1	4.7	-2.0	21.595	955.0	1.82	Outcome2	-9.23	4.7	3.2195	Yes	n/a	13.925254813137	n/a	n/a	616.0	TrialHappiness	Gain
342.695	1.24	n/a	423.736	22.0	1	4.7	-2.0	21.595	955.0	1.82	Outcome2	-9.23	4.7	3.2195	Yes	n/a	13.925254813137	n/a	n/a	616.0	TrialHappinessSliderResponse	Gain
346.71	4.878	4.016	427.318	22.0	1	4.7	-2.0	21.595	955.0	1.82	Outcome2	-9.23	4.7	3.2195	Yes	n/a	13.925254813137	n/a	n/a	n/a	ISIRate	Gain
351.608	3.0	0.02	432.216	23.0	1	0.0	0.0	21.595	955.0	3.6	Certain	5.9	-7.01	0.0	No	4.0	12.9139297848245	1.372	352.98	n/a	GetAnswer	Gain
352.991	4.0	0.011	433.599	23.0	1	0.0	0.0	21.595	955.0	3.6	Certain	5.9	-7.01	0.0	No	n/a	12.9139297848245	n/a	n/a	n/a	ShowChoice	Gain
357.006	1.0	0.015	437.614	23.0	1	0.0	0.0	21.595	955.0	3.6	Certain	5.9	-7.01	0.0	No	n/a	12.9139297848245	n/a	n/a	n/a	ShowResult	Gain
358.022	8.0	0.016	438.63	23.0	1	0.0	0.0	21.595	955.0	3.6	Certain	5.9	-7.01	0.0	No	n/a	12.9139297848245	n/a	n/a	n/a	ISITrial	Gain
366.053	3.0	0.031	446.661	24.0	1	-7.0	-7.0	20.72	955.0	0.52	Certain	-0.9	-14.2	3.255	Yes	4.0	13.2978482446206	2.234	368.287	n/a	GetAnswer	Mixed
368.302	4.0	0.015	448.91	24.0	1	-7.0	-7.0	20.72	955.0	0.52	Certain	-0.9	-14.2	3.255	Yes	n/a	13.2978482446206	n/a	n/a	n/a	ShowChoice	Mixed
372.317	1.0	0.015	452.925	24.0	1	-7.0	-7.0	20.72	955.0	0.52	Certain	-0.9	-14.2	3.255	Yes	n/a	13.2978482446206	n/a	n/a	n/a	ShowResult	Mixed
373.334	2.0	0.017	453.942	24.0	1	-7.0	-7.0	20.72	955.0	0.52	Certain	-0.9	-14.2	3.255	Yes	n/a	13.2978482446206	n/a	n/a	n/a	ISITrial	Mixed
375.35	3.255	0.016	455.958	24.0	1	-7.0	-7.0	20.72	955.0	0.52	Certain	-0.9	-14.2	3.255	Yes	n/a	13.2978482446206	n/a	n/a	n/a	TrialHappPreview	Mixed
378.632	4.015	0.027	459.24	24.0	1	-7.0	-7.0	20.72	955.0	0.52	Certain	-0.9	-14.2	3.255	Yes	n/a	13.2978482446206	n/a	n/a	472.0	TrialHappiness	Mixed
378.632	0.234	n/a	459.612	24.0	1	-7.0	-7.0	20.72	955.0	0.52	Certain	-0.9	-14.2	3.255	Yes	n/a	13.2978482446206	n/a	n/a	472.0	TrialHappinessSliderResponse	Mixed
382.647	5.02	4.015	463.255	24.0	1	-7.0	-7.0	20.72	955.0	0.52	Certain	-0.9	-14.2	3.255	Yes	n/a	13.2978482446206	n/a	n/a	n/a	ISIRate	Mixed
387.695	3.0	0.028	468.303	25.0	1	7.7	0.0	21.6825	955.0	3.16	Outcome1	7.7	-8.43	0.0	No	2.0	16.127972819932	1.929	389.624	n/a	GetAnswer	Gain
389.644	4.0	0.02	470.252	25.0	1	7.7	0.0	21.6825	955.0	3.16	Outcome1	7.7	-8.43	0.0	No	n/a	16.127972819932	n/a	n/a	n/a	ShowChoice	Gain
393.66	1.0	0.016	474.268	25.0	1	7.7	0.0	21.6825	955.0	3.16	Outcome1	7.7	-8.43	0.0	No	n/a	16.127972819932	n/a	n/a	n/a	ShowResult	Gain
394.676	3.749	0.016	475.284	25.0	1	7.7	0.0	21.6825	955.0	3.16	Outcome1	7.7	-8.43	0.0	No	n/a	16.127972819932	n/a	n/a	n/a	ISITrial	Gain
398.441	3.0	0.016	479.049	26.0	1	7.63	3.82	22.6363	955.0	5.0	Outcome2	10.3	7.63	0.0	No	2.0	-2.66591166477916	1.074	399.515	n/a	GetAnswer	Gain
399.541	4.0	0.026	480.149	26.0	1	7.63	3.82	22.6363	955.0	5.0	Outcome2	10.3	7.63	0.0	No	n/a	-2.66591166477916	n/a	n/a	n/a	ShowChoice	Gain
403.556	1.0	0.015	484.164	26.0	1	7.63	3.82	22.6363	955.0	5.0	Outcome2	10.3	7.63	0.0	No	n/a	-2.66591166477916	n/a	n/a	n/a	ShowResult	Gain
404.572	7.834	0.016	485.18	26.0	1	7.63	3.82	22.6363	955.0	5.0	Outcome2	10.3	7.63	0.0	No	n/a	-2.66591166477916	n/a	n/a	n/a	ISITrial	Gain
412.436	3.0	0.03	493.044	27.0	1	7.39	3.7	23.5601	955.0	4.2	Outcome2	10.1	7.39	2.54975	Yes	2.0	-2.7114949037372598	1.042	413.478	n/a	GetAnswer	Gain
413.503	4.0	0.025	494.111	27.0	1	7.39	3.7	23.5601	955.0	4.2	Outcome2	10.1	7.39	2.54975	Yes	n/a	-2.7114949037372598	n/a	n/a	n/a	ShowChoice	Gain
417.518	1.0	0.015	498.126	27.0	1	7.39	3.7	23.5601	955.0	4.2	Outcome2	10.1	7.39	2.54975	Yes	n/a	-2.7114949037372598	n/a	n/a	n/a	ShowResult	Gain
418.534	4.225	0.016	499.142	27.0	1	7.39	3.7	23.5601	955.0	4.2	Outcome2	10.1	7.39	2.54975	Yes	n/a	-2.7114949037372598	n/a	n/a	n/a	ISITrial	Gain
422.783	2.55	0.024	503.391	27.0	1	7.39	3.7	23.5601	955.0	4.2	Outcome2	10.1	7.39	2.54975	Yes	n/a	-2.7114949037372598	n/a	n/a	n/a	TrialHappPreview	Gain
425.365	4.015	0.032	505.973	27.0	1	7.39	3.7	23.5601	955.0	4.2	Outcome2	10.1	7.39	2.54975	Yes	n/a	-2.7114949037372598	n/a	n/a	648.0	TrialHappiness	Gain
425.366	1.625	n/a	507.038	27.0	1	7.39	3.7	23.5601	955.0	4.2	Outcome2	10.1	7.39	2.54975	Yes	n/a	-2.7114949037372598	n/a	n/a	648.0	TrialHappinessSliderResponse	Gain
429.38	2.199	4.015	509.988	27.0	1	7.39	3.7	23.5601	955.0	4.2	Outcome2	10.1	7.39	2.54975	Yes	n/a	-2.7114949037372598	n/a	n/a	n/a	ISIRate	Gain
467.101	2.358	n/a	548.607	n/a	1	n/a	n/a	n/a	n/a	n/a	n/a	n/a	n/a	n/a	n/a	n/a	n/a	n/a	n/a	684.0	BlockStartHappinessSliderResponse	n/a
-44.684	-0.001	0.034	512.221	n/a	2	n/a	n/a	n/a	n/a	n/a	n/a	n/a	n/a	n/a	n/a	{SPACE}	n/a	31.452	-13.232	n/a	Rest	n/a
-13.212	4.0	0.02	543.693	n/a	2	n/a	n/a	n/a	n/a	n/a	n/a	n/a	n/a	n/a	n/a	n/a	n/a	n/a	n/a	n/a	BlockHappyPreview	n/a
-9.197	3.256	0.015	547.708	n/a	2	n/a	n/a	n/a	n/a	n/a	n/a	n/a	n/a	n/a	n/a	n/a	n/a	n/a	n/a	684.0	BlockStartHappiness	n/a
-2.999	-0.001	0.025	553.906	n/a	2	n/a	n/a	n/a	n/a	n/a	n/a	n/a	n/a	n/a	n/a	5.0	n/a	2.971	-0.028	n/a	ScanWait	n/a
0.0	10.0	0.028	556.905	n/a	2	n/a	n/a	n/a	n/a	n/a	n/a	n/a	n/a	n/a	n/a	n/a	n/a	n/a	n/a	n/a	GetReady	n/a
10.03	3.0	0.03	566.935	28.0	2	-7.14	-2.0	22.6676	70.0	0.66	Outcome2	3.3	-7.14	0.0	No	2.0	-10.4421768707483	1.755	11.785	n/a	GetAnswer	Mixed
11.812	4.0	0.027	568.717	28.0	2	-7.14	-2.0	22.6676	70.0	0.66	Outcome2	3.3	-7.14	0.0	No	n/a	-10.4421768707483	n/a	n/a	n/a	ShowChoice	Mixed
15.828	1.0	0.016	572.733	28.0	2	-7.14	-2.0	22.6676	70.0	0.66	Outcome2	3.3	-7.14	0.0	No	n/a	-10.4421768707483	n/a	n/a	n/a	ShowResult	Mixed
16.844	3.575	0.016	573.749	28.0	2	-7.14	-2.0	22.6676	70.0	0.66	Outcome2	3.3	-7.14	0.0	No	n/a	-10.4421768707483	n/a	n/a	n/a	ISITrial	Mixed
20.443	3.0	0.024	577.348	29.0	2	2.56	1.28	22.9876	70.0	3.16	Outcome1	2.56	13.7	3.529	Yes	2.0	-11.1383219954649	1.163	21.606	n/a	GetAnswer	Loss
21.626	4.0	0.02	578.531	29.0	2	2.56	1.28	22.9876	70.0	3.16	Outcome1	2.56	13.7	3.529	Yes	n/a	-11.1383219954649	n/a	n/a	n/a	ShowChoice	Loss
25.641	1.0	0.015	582.546	29.0	2	2.56	1.28	22.9876	70.0	3.16	Outcome1	2.56	13.7	3.529	Yes	n/a	-11.1383219954649	n/a	n/a	n/a	ShowResult	Loss
26.657	3.955	0.016	583.562	29.0	2	2.56	1.28	22.9876	70.0	3.16	Outcome1	2.56	13.7	3.529	Yes	n/a	-11.1383219954649	n/a	n/a	n/a	ISITrial	Loss
30.639	3.529	0.027	587.544	29.0	2	2.56	1.28	22.9876	70.0	3.16	Outcome1	2.56	13.7	3.529	Yes	n/a	-11.1383219954649	n/a	n/a	n/a	TrialHappPreview	Loss
34.188	4.015	0.02	591.093	29.0	2	2.56	1.28	22.9876	70.0	3.16	Outcome1	2.56	13.7	3.529	Yes	n/a	-11.1383219954649	n/a	n/a	420.0	TrialHappiness	Loss
34.188	1.505	n/a	591.408	29.0	2	2.56	1.28	22.9876	70.0	3.16	Outcome1	2.56	13.7	3.529	Yes	n/a	-11.1383219954649	n/a	n/a	420.0	TrialHappinessSliderResponse	Loss
38.203	6.116	4.015	595.108	29.0	2	2.56	1.28	22.9876	70.0	3.16	Outcome1	2.56	13.7	3.529	Yes	n/a	-11.1383219954649	n/a	n/a	n/a	ISIRate	Loss
44.351	3.0	0.032	601.256	30.0	2	-2.0	-2.0	22.7376	70.0	0.66	Certain	-6.04	1.3	0.0	No	4.0	-7.344671201814059	1.422	45.773	n/a	GetAnswer	Mixed
45.8	4.0	0.027	602.705	30.0	2	-2.0	-2.0	22.7376	70.0	0.66	Certain	-6.04	1.3	0.0	No	n/a	-7.344671201814059	n/a	n/a	n/a	ShowChoice	Mixed
49.816	1.0	0.016	606.721	30.0	2	-2.0	-2.0	22.7376	70.0	0.66	Certain	-6.04	1.3	0.0	No	n/a	-7.344671201814059	n/a	n/a	n/a	ShowResult	Mixed
50.832	4.453	0.016	607.737	30.0	2	-2.0	-2.0	22.7376	70.0	0.66	Certain	-6.04	1.3	0.0	No	n/a	-7.344671201814059	n/a	n/a	n/a	ISITrial	Mixed
55.314	3.0	0.029	612.219	31.0	2	-2.0	-2.0	22.4876	70.0	1.0	Certain	-6.04	1.7	2.50325	Yes	4.0	-7.7414965986394595	1.696	57.01	n/a	GetAnswer	Mixed
57.03	4.0	0.019	613.935	31.0	2	-2.0	-2.0	22.4876	70.0	1.0	Certain	-6.04	1.7	2.50325	Yes	n/a	-7.7414965986394595	n/a	n/a	n/a	ShowChoice	Mixed
61.045	1.0	0.015	617.95	31.0	2	-2.0	-2.0	22.4876	70.0	1.0	Certain	-6.04	1.7	2.50325	Yes	n/a	-7.7414965986394595	n/a	n/a	n/a	ShowResult	Mixed
62.061	4.786	0.016	618.966	31.0	2	-2.0	-2.0	22.4876	70.0	1.0	Certain	-6.04	1.7	2.50325	Yes	n/a	-7.7414965986394595	n/a	n/a	n/a	ISITrial	Mixed
66.859	2.503	0.012	623.764	31.0	2	-2.0	-2.0	22.4876	70.0	1.0	Certain	-6.04	1.7	2.50325	Yes	n/a	-7.7414965986394595	n/a	n/a	n/a	TrialHappPreview	Mixed
69.392	4.015	0.03	626.297	31.0	2	-2.0	-2.0	22.4876	70.0	1.0	Certain	-6.04	1.7	2.50325	Yes	n/a	-7.7414965986394595	n/a	n/a	560.0	TrialHappiness	Mixed
69.393	1.273	n/a	627.048	31.0	2	-2.0	-2.0	22.4876	70.0	1.0	Certain	-6.04	1.7	2.50325	Yes	n/a	-7.7414965986394595	n/a	n/a	560.0	TrialHappinessSliderResponse	Mixed
73.407	2.013	4.015	630.312	31.0	2	-2.0	-2.0	22.4876	70.0	1.0	Certain	-6.04	1.7	2.50325	Yes	n/a	-7.7414965986394595	n/a	n/a	n/a	ISIRate	Mixed
75.44	3.0	0.02	632.345	32.0	2	3.12	2.0	22.8776	70.0	1.68	Outcome2	0.95	3.12	0.0	No	2.0	2.17290249433107	1.703	77.143	n/a	GetAnswer	Loss
77.156	4.0	0.013	634.061	32.0	2	3.12	2.0	22.8776	70.0	1.68	Outcome2	0.95	3.12	0.0	No	n/a	2.17290249433107	n/a	n/a	n/a	ShowChoice	Loss
81.171	1.0	0.015	638.076	32.0	2	3.12	2.0	22.8776	70.0	1.68	Outcome2	0.95	3.12	0.0	No	n/a	2.17290249433107	n/a	n/a	n/a	ShowResult	Loss
82.187	2.0	0.016	639.092	32.0	2	3.12	2.0	22.8776	70.0	1.68	Outcome2	0.95	3.12	0.0	No	n/a	2.17290249433107	n/a	n/a	n/a	ISITrial	Loss
84.203	3.0	0.016	641.108	33.0	2	-3.17	2.0	22.4813	70.0	3.6	Outcome2	7.9	-3.17	0.0	No	2.0	-11.074829931972802	1.617	85.82	n/a	GetAnswer	Gain
85.836	4.0	0.016	642.741	33.0	2	-3.17	2.0	22.4813	70.0	3.6	Outcome2	7.9	-3.17	0.0	No	n/a	-11.074829931972802	n/a	n/a	n/a	ShowChoice	Gain
89.851	1.0	0.015	646.756	33.0	2	-3.17	2.0	22.4813	70.0	3.6	Outcome2	7.9	-3.17	0.0	No	n/a	-11.074829931972802	n/a	n/a	n/a	ShowResult	Gain
90.868	5.099	0.017	647.773	33.0	2	-3.17	2.0	22.4813	70.0	3.6	Outcome2	7.9	-3.17	0.0	No	n/a	-11.074829931972802	n/a	n/a	n/a	ISITrial	Gain
95.982	3.0	0.015	652.887	34.0	2	-5.0	-5.0	21.8563	70.0	0.4	Certain	-10.73	0.9	3.2315	Yes	4.0	-11.6303854875283	1.699	97.681	n/a	GetAnswer	Mixed
97.699	4.0	0.018	654.604	34.0	2	-5.0	-5.0	21.8563	70.0	0.4	Certain	-10.73	0.9	3.2315	Yes	n/a	-11.6303854875283	n/a	n/a	n/a	ShowChoice	Mixed
101.714	1.0	0.015	658.619	34.0	2	-5.0	-5.0	21.8563	70.0	0.4	Certain	-10.73	0.9	3.2315	Yes	n/a	-11.6303854875283	n/a	n/a	n/a	ShowResult	Mixed
102.73	4.784	0.016	659.635	34.0	2	-5.0	-5.0	21.8563	70.0	0.4	Certain	-10.73	0.9	3.2315	Yes	n/a	-11.6303854875283	n/a	n/a	n/a	ISITrial	Mixed
107.528	3.232	0.014	664.433	34.0	2	-5.0	-5.0	21.8563	70.0	0.4	Certain	-10.73	0.9	3.2315	Yes	n/a	-11.6303854875283	n/a	n/a	n/a	TrialHappPreview	Mixed
110.777	4.015	0.017	667.682	34.0	2	-5.0	-5.0	21.8563	70.0	0.4	Certain	-10.73	0.9	3.2315	Yes	n/a	-11.6303854875283	n/a	n/a	432.0	TrialHappiness	Mixed
110.778	0.317	n/a	668.589	34.0	2	-5.0	-5.0	21.8563	70.0	0.4	Certain	-10.73	0.9	3.2315	Yes	n/a	-11.6303854875283	n/a	n/a	432.0	TrialHappinessSliderResponse	Mixed
114.792	4.926	4.015	671.697	34.0	2	-5.0	-5.0	21.8563	70.0	0.4	Certain	-10.73	0.9	3.2315	Yes	n/a	-11.6303854875283	n/a	n/a	n/a	ISIRate	Mixed
119.741	3.0	0.023	676.646	35.0	2	2.89	1.44	22.2175	70.0	2.0	Outcome1	2.89	12.9	0.0	No	2.0	-10.0090702947846	1.285	121.026	n/a	GetAnswer	Loss
121.04	4.0	0.014	677.945	35.0	2	2.89	1.44	22.2175	70.0	2.0	Outcome1	2.89	12.9	0.0	No	n/a	-10.0090702947846	n/a	n/a	n/a	ShowChoice	Loss
125.055	1.0	0.015	681.96	35.0	2	2.89	1.44	22.2175	70.0	2.0	Outcome1	2.89	12.9	0.0	No	n/a	-10.0090702947846	n/a	n/a	n/a	ShowResult	Loss
126.072	2.098	0.017	682.977	35.0	2	2.89	1.44	22.2175	70.0	2.0	Outcome1	2.89	12.9	0.0	No	n/a	-10.0090702947846	n/a	n/a	n/a	ISITrial	Loss
128.188	3.0	0.018	685.093	36.0	2	1.48	0.74	22.4025	70.0	3.6	Outcome2	11.9	1.48	3.33575	Yes	2.0	-10.4195011337868	1.183	129.371	n/a	GetAnswer	Loss
129.387	4.0	0.015	686.292	36.0	2	1.48	0.74	22.4025	70.0	3.6	Outcome2	11.9	1.48	3.33575	Yes	n/a	-10.4195011337868	n/a	n/a	n/a	ShowChoice	Loss
133.402	1.0	0.015	690.307	36.0	2	1.48	0.74	22.4025	70.0	3.6	Outcome2	11.9	1.48	3.33575	Yes	n/a	-10.4195011337868	n/a	n/a	n/a	ShowResult	Loss
134.419	5.156	0.017	691.324	36.0	2	1.48	0.74	22.4025	70.0	3.6	Outcome2	11.9	1.48	3.33575	Yes	n/a	-10.4195011337868	n/a	n/a	n/a	ISITrial	Loss
139.6	3.336	0.025	696.505	36.0	2	1.48	0.74	22.4025	70.0	3.6	Outcome2	11.9	1.48	3.33575	Yes	n/a	-10.4195011337868	n/a	n/a	n/a	TrialHappPreview	Loss
142.966	4.015	0.03	699.871	36.0	2	1.48	0.74	22.4025	70.0	3.6	Outcome2	11.9	1.48	3.33575	Yes	n/a	-10.4195011337868	n/a	n/a	556.0	TrialHappiness	Loss
142.966	0.767	n/a	701.06	36.0	2	1.48	0.74	22.4025	70.0	3.6	Outcome2	11.9	1.48	3.33575	Yes	n/a	-10.4195011337868	n/a	n/a	556.0	TrialHappinessSliderResponse	Loss
146.981	5.343	4.015	703.886	36.0	2	1.48	0.74	22.4025	70.0	3.6	Outcome2	11.9	1.48	3.33575	Yes	n/a	-10.4195011337868	n/a	n/a	n/a	ISIRate	Loss
152.346	3.0	0.022	709.251	37.0	2	-3.0	-3.0	22.0275	70.0	0.82	Certain	-9.44	3.5	0.0	No	4.0	-12.9387755102041	1.691	154.037	n/a	GetAnswer	Mixed
154.062	4.0	0.025	710.967	37.0	2	-3.0	-3.0	22.0275	70.0	0.82	Certain	-9.44	3.5	0.0	No	n/a	-12.9387755102041	n/a	n/a	n/a	ShowChoice	Mixed
158.077	1.0	0.015	714.982	37.0	2	-3.0	-3.0	22.0275	70.0	0.82	Certain	-9.44	3.5	0.0	No	n/a	-12.9387755102041	n/a	n/a	n/a	ShowResult	Mixed
159.093	3.598	0.016	715.998	37.0	2	-3.0	-3.0	22.0275	70.0	0.82	Certain	-9.44	3.5	0.0	No	n/a	-12.9387755102041	n/a	n/a	n/a	ISITrial	Mixed
162.709	3.0	0.018	719.614	38.0	2	-2.0	-2.0	21.7775	70.0	1.68	Certain	-8.99	4.5	0.0	No	4.0	-13.4897959183673	1.494	164.203	n/a	GetAnswer	Gain
164.225	4.0	0.022	721.13	38.0	2	-2.0	-2.0	21.7775	70.0	1.68	Certain	-8.99	4.5	0.0	No	n/a	-13.4897959183673	n/a	n/a	n/a	ShowChoice	Gain
168.24	1.0	0.015	725.145	38.0	2	-2.0	-2.0	21.7775	70.0	1.68	Certain	-8.99	4.5	0.0	No	n/a	-13.4897959183673	n/a	n/a	n/a	ShowResult	Gain
169.256	4.787	0.016	726.161	38.0	2	-2.0	-2.0	21.7775	70.0	1.68	Certain	-8.99	4.5	0.0	No	n/a	-13.4897959183673	n/a	n/a	n/a	ISITrial	Gain
174.071	3.0	0.028	730.976	39.0	2	-6.0	-6.0	21.0275	70.0	0.52	Certain	-12.94	1.1	2.86425	Yes	4.0	-14.0408163265306	0.205	174.276	n/a	GetAnswer	Mixed
174.288	4.0	0.012	731.193	39.0	2	-6.0	-6.0	21.0275	70.0	0.52	Certain	-12.94	1.1	2.86425	Yes	n/a	-14.0408163265306	n/a	n/a	n/a	ShowChoice	Mixed
178.303	1.0	0.015	735.208	39.0	2	-6.0	-6.0	21.0275	70.0	0.52	Certain	-12.94	1.1	2.86425	Yes	n/a	-14.0408163265306	n/a	n/a	n/a	ShowResult	Mixed
179.319	2.348	0.016	736.224	39.0	2	-6.0	-6.0	21.0275	70.0	0.52	Certain	-12.94	1.1	2.86425	Yes	n/a	-14.0408163265306	n/a	n/a	n/a	ISITrial	Mixed
181.685	2.864	0.018	738.59	39.0	2	-6.0	-6.0	21.0275	70.0	0.52	Certain	-12.94	1.1	2.86425	Yes	n/a	-14.0408163265306	n/a	n/a	n/a	TrialHappPreview	Mixed
184.568	4.015	0.019	741.473	39.0	2	-6.0	-6.0	21.0275	70.0	0.52	Certain	-12.94	1.1	2.86425	Yes	4{-4}4{-4}	-14.0408163265306	3.222	187.79	464.0	TrialHappiness	Mixed
184.568	0.704	n/a	743.991	39.0	2	-6.0	-6.0	21.0275	70.0	0.52	Certain	-12.94	1.1	2.86425	Yes	n/a	-14.0408163265306	n/a	n/a	464.0	TrialHappinessSliderResponse	Mixed
188.583	3.457	4.015	745.488	39.0	2	-6.0	-6.0	21.0275	70.0	0.52	Certain	-12.94	1.1	2.86425	Yes	n/a	-14.0408163265306	n/a	n/a	n/a	ISIRate	Mixed
192.065	3.0	0.025	748.97	40.0	2	-5.0	-5.0	20.4025	70.0	0.82	Certain	-11.53	1.5	0.0	No	4.0	-13.0272108843537	1.001	193.066	n/a	GetAnswer	Mixed
193.081	4.0	0.015	749.986	40.0	2	-5.0	-5.0	20.4025	70.0	0.82	Certain	-11.53	1.5	0.0	No	n/a	-13.0272108843537	n/a	n/a	n/a	ShowChoice	Mixed
197.096	1.0	0.015	754.001	40.0	2	-5.0	-5.0	20.4025	70.0	0.82	Certain	-11.53	1.5	0.0	No	n/a	-13.0272108843537	n/a	n/a	n/a	ShowResult	Mixed
198.113	3.158	0.017	755.018	40.0	2	-5.0	-5.0	20.4025	70.0	0.82	Certain	-11.53	1.5	0.0	No	n/a	-13.0272108843537	n/a	n/a	n/a	ISITrial	Mixed
201.295	3.0	0.024	758.2	41.0	2	1.08	0.0	20.5375	70.0	2.0	Outcome1	1.08	-1.09	4.0	Yes	2.0	2.16515495086924	1.243	202.538	n/a	GetAnswer	Mixed
202.561	4.0	0.023	759.466	41.0	2	1.08	0.0	20.5375	70.0	2.0	Outcome1	1.08	-1.09	4.0	Yes	n/a	2.16515495086924	n/a	n/a	n/a	ShowChoice	Mixed
206.576	1.0	0.015	763.481	41.0	2	1.08	0.0	20.5375	70.0	2.0	Outcome1	1.08	-1.09	4.0	Yes	n/a	2.16515495086924	n/a	n/a	n/a	ShowResult	Mixed
207.593	4.506	0.017	764.498	41.0	2	1.08	0.0	20.5375	70.0	2.0	Outcome1	1.08	-1.09	4.0	Yes	n/a	2.16515495086924	n/a	n/a	n/a	ISITrial	Mixed
212.124	4.0	0.025	769.029	41.0	2	1.08	0.0	20.5375	70.0	2.0	Outcome1	1.08	-1.09	4.0	Yes	n/a	2.16515495086924	n/a	n/a	n/a	TrialHappPreview	Mixed
216.14	4.015	0.016	773.045	41.0	2	1.08	0.0	20.5375	70.0	2.0	Outcome1	1.08	-1.09	4.0	Yes	n/a	2.16515495086924	n/a	n/a	472.0	TrialHappiness	Mixed
216.14	1.148	n/a	773.76	41.0	2	1.08	0.0	20.5375	70.0	2.0	Outcome1	1.08	-1.09	4.0	Yes	n/a	2.16515495086924	n/a	n/a	472.0	TrialHappinessSliderResponse	Mixed
220.155	8.0	4.015	777.06	41.0	2	1.08	0.0	20.5375	70.0	2.0	Outcome1	1.08	-1.09	4.0	Yes	n/a	2.16515495086924	n/a	n/a	n/a	ISIRate	Mixed
228.185	3.0	0.03	785.09	42.0	2	-3.36	-1.68	20.1175	70.0	1.82	Outcome1	-3.36	10.7	0.0	No	2.0	-14.0566893424036	1.565	229.75	n/a	GetAnswer	Loss
229.768	4.0	0.018	786.673	42.0	2	-3.36	-1.68	20.1175	70.0	1.82	Outcome1	-3.36	10.7	0.0	No	n/a	-14.0566893424036	n/a	n/a	n/a	ShowChoice	Loss
233.783	1.0	0.015	790.688	42.0	2	-3.36	-1.68	20.1175	70.0	1.82	Outcome1	-3.36	10.7	0.0	No	n/a	-14.0566893424036	n/a	n/a	n/a	ShowResult	Loss
234.8	6.248	0.017	791.705	42.0	2	-3.36	-1.68	20.1175	70.0	1.82	Outcome1	-3.36	10.7	0.0	No	n/a	-14.0566893424036	n/a	n/a	n/a	ISITrial	Loss
241.064	3.0	0.016	797.969	43.0	2	2.72	1.0	20.4575	70.0	2.0	Outcome1	2.72	0.45	2.77575	Yes	2.0	2.27286470143613	1.344	242.408	n/a	GetAnswer	Loss
242.43	4.0	0.021	799.335	43.0	2	2.72	1.0	20.4575	70.0	2.0	Outcome1	2.72	0.45	2.77575	Yes	n/a	2.27286470143613	n/a	n/a	n/a	ShowChoice	Loss
246.446	1.0	0.016	803.351	43.0	2	2.72	1.0	20.4575	70.0	2.0	Outcome1	2.72	0.45	2.77575	Yes	n/a	2.27286470143613	n/a	n/a	n/a	ShowResult	Loss
247.462	4.596	0.016	804.367	43.0	2	2.72	1.0	20.4575	70.0	2.0	Outcome1	2.72	0.45	2.77575	Yes	n/a	2.27286470143613	n/a	n/a	n/a	ISITrial	Loss
252.077	2.776	0.019	808.982	43.0	2	2.72	1.0	20.4575	70.0	2.0	Outcome1	2.72	0.45	2.77575	Yes	n/a	2.27286470143613	n/a	n/a	n/a	TrialHappPreview	Loss
254.876	4.015	0.023	811.781	43.0	2	2.72	1.0	20.4575	70.0	2.0	Outcome1	2.72	0.45	2.77575	Yes	2{-2}2{-2}2{-2}2{-2}	2.27286470143613	2.316	257.192	588.0	TrialHappiness	Loss
254.877	1.146	n/a	812.952	43.0	2	2.72	1.0	20.4575	70.0	2.0	Outcome1	2.72	0.45	2.77575	Yes	n/a	2.27286470143613	n/a	n/a	588.0	TrialHappinessSliderResponse	Loss
258.891	3.103	4.015	815.796	43.0	2	2.72	1.0	20.4575	70.0	2.0	Outcome1	2.72	0.45	2.77575	Yes	n/a	2.27286470143613	n/a	n/a	n/a	ISIRate	Loss
262.023	3.0	0.029	818.928	44.0	2	-5.64	-2.82	19.7525	70.0	2.48	Outcome2	11.3	-5.64	0.0	No	2.0	-16.941043083900198	1.759	263.782	n/a	GetAnswer	Loss
263.806	4.0	0.024	820.711	44.0	2	-5.64	-2.82	19.7525	70.0	2.48	Outcome2	11.3	-5.64	0.0	No	n/a	-16.941043083900198	n/a	n/a	n/a	ShowChoice	Loss
267.821	1.0	0.015	824.726	44.0	2	-5.64	-2.82	19.7525	70.0	2.48	Outcome2	11.3	-5.64	0.0	No	n/a	-16.941043083900198	n/a	n/a	n/a	ShowResult	Loss
268.838	2.42	0.017	825.743	44.0	2	-5.64	-2.82	19.7525	70.0	2.48	Outcome2	11.3	-5.64	0.0	No	n/a	-16.941043083900198	n/a	n/a	n/a	ISITrial	Loss
271.287	3.0	0.029	828.192	45.0	2	2.92	1.0	20.1175	70.0	3.16	Outcome1	2.92	0.09	0.0	No	2.0	2.83106575963719	1.444	272.731	n/a	GetAnswer	Loss
272.753	4.0	0.022	829.658	45.0	2	2.92	1.0	20.1175	70.0	3.16	Outcome1	2.92	0.09	0.0	No	n/a	2.83106575963719	n/a	n/a	n/a	ShowChoice	Loss
276.768	1.0	0.015	833.673	45.0	2	2.92	1.0	20.1175	70.0	3.16	Outcome1	2.92	0.09	0.0	No	n/a	2.83106575963719	n/a	n/a	n/a	ShowResult	Loss
277.784	3.144	0.016	834.689	45.0	2	2.92	1.0	20.1175	70.0	3.16	Outcome1	2.92	0.09	0.0	No	n/a	2.83106575963719	n/a	n/a	n/a	ISITrial	Loss
280.95	3.0	0.022	837.855	46.0	2	-1.0	-1.0	19.9925	70.0	2.0	Certain	-2.31	0.57	3.84125	Yes	4.0	2.88000755857899	1.858	282.808	n/a	GetAnswer	Mixed
282.833	4.0	0.025	839.738	46.0	2	-1.0	-1.0	19.9925	70.0	2.0	Certain	-2.31	0.57	3.84125	Yes	n/a	2.88000755857899	n/a	n/a	n/a	ShowChoice	Mixed
286.848	1.0	0.015	843.753	46.0	2	-1.0	-1.0	19.9925	70.0	2.0	Certain	-2.31	0.57	3.84125	Yes	n/a	2.88000755857899	n/a	n/a	n/a	ShowResult	Mixed
287.864	2.246	0.016	844.769	46.0	2	-1.0	-1.0	19.9925	70.0	2.0	Certain	-2.31	0.57	3.84125	Yes	n/a	2.88000755857899	n/a	n/a	n/a	ISITrial	Mixed
290.13	3.841	0.02	847.035	46.0	2	-1.0	-1.0	19.9925	70.0	2.0	Certain	-2.31	0.57	3.84125	Yes	n/a	2.88000755857899	n/a	n/a	n/a	TrialHappPreview	Mixed
293.995	4.016	0.024	850.9	46.0	2	-1.0	-1.0	19.9925	70.0	2.0	Certain	-2.31	0.57	3.84125	Yes	n/a	2.88000755857899	n/a	n/a	448.0	TrialHappiness	Mixed
293.996	1.783	n/a	851.924	46.0	2	-1.0	-1.0	19.9925	70.0	2.0	Certain	-2.31	0.57	3.84125	Yes	n/a	2.88000755857899	n/a	n/a	448.0	TrialHappinessSliderResponse	Mixed
298.011	7.365	4.016	854.916	46.0	2	-1.0	-1.0	19.9925	70.0	2.0	Certain	-2.31	0.57	3.84125	Yes	n/a	2.88000755857899	n/a	n/a	n/a	ISIRate	Mixed
305.391	3.0	0.015	862.296	47.0	2	-7.0	-7.0	19.1175	70.0	0.3	Certain	0.7	-15.62	0.0	No	4.0	-16.3219954648526	1.565	306.956	n/a	GetAnswer	Mixed
306.974	4.0	0.018	863.879	47.0	2	-7.0	-7.0	19.1175	70.0	0.3	Certain	0.7	-15.62	0.0	No	n/a	-16.3219954648526	n/a	n/a	n/a	ShowChoice	Mixed
310.989	1.0	0.015	867.894	47.0	2	-7.0	-7.0	19.1175	70.0	0.3	Certain	0.7	-15.62	0.0	No	n/a	-16.3219954648526	n/a	n/a	n/a	ShowResult	Mixed
312.006	2.0	0.017	868.911	47.0	2	-7.0	-7.0	19.1175	70.0	0.3	Certain	0.7	-15.62	0.0	No	n/a	-16.3219954648526	n/a	n/a	n/a	ISITrial	Mixed
314.022	3.0	0.016	870.927	48.0	2	-5.0	-5.0	18.4925	70.0	0.4	Certain	-13.85	2.9	2.83175	Yes	4.0	-16.750566893424	2.137	316.159	n/a	GetAnswer	Mixed
316.171	4.0	0.012	873.076	48.0	2	-5.0	-5.0	18.4925	70.0	0.4	Certain	-13.85	2.9	2.83175	Yes	n/a	-16.750566893424	n/a	n/a	n/a	ShowChoice	Mixed
320.186	1.0	0.015	877.091	48.0	2	-5.0	-5.0	18.4925	70.0	0.4	Certain	-13.85	2.9	2.83175	Yes	n/a	-16.750566893424	n/a	n/a	n/a	ShowResult	Mixed
321.202	3.692	0.016	878.107	48.0	2	-5.0	-5.0	18.4925	70.0	0.4	Certain	-13.85	2.9	2.83175	Yes	n/a	-16.750566893424	n/a	n/a	n/a	ISITrial	Mixed
324.918	2.832	0.024	881.823	48.0	2	-5.0	-5.0	18.4925	70.0	0.4	Certain	-13.85	2.9	2.83175	Yes	n/a	-16.750566893424	n/a	n/a	n/a	TrialHappPreview	Mixed
327.767	4.015	0.017	884.672	48.0	2	-5.0	-5.0	18.4925	70.0	0.4	Certain	-13.85	2.9	2.83175	Yes	n/a	-16.750566893424	n/a	n/a	396.0	TrialHappiness	Mixed
327.767	1.682	n/a	885.213	48.0	2	-5.0	-5.0	18.4925	70.0	0.4	Certain	-13.85	2.9	2.83175	Yes	n/a	-16.750566893424	n/a	n/a	396.0	TrialHappinessSliderResponse	Mixed
331.782	3.327	4.015	888.687	48.0	2	-5.0	-5.0	18.4925	70.0	0.4	Certain	-13.85	2.9	2.83175	Yes	n/a	-16.750566893424	n/a	n/a	n/a	ISIRate	Mixed
335.131	3.0	0.022	892.036	49.0	2	2.78	1.0	18.84	70.0	2.22	Outcome2	0.56	2.78	0.0	No	2.0	2.22033257747543	1.477	336.608	n/a	GetAnswer	Loss
336.63	4.0	0.022	893.535	49.0	2	2.78	1.0	18.84	70.0	2.22	Outcome2	0.56	2.78	0.0	No	n/a	2.22033257747543	n/a	n/a	n/a	ShowChoice	Loss
340.645	1.0	0.015	897.55	49.0	2	2.78	1.0	18.84	70.0	2.22	Outcome2	0.56	2.78	0.0	No	n/a	2.22033257747543	n/a	n/a	n/a	ShowResult	Loss
341.662	8.0	0.017	898.567	49.0	2	2.78	1.0	18.84	70.0	2.22	Outcome2	0.56	2.78	0.0	No	n/a	2.22033257747543	n/a	n/a	n/a	ISITrial	Loss
349.692	3.0	0.03	906.597	50.0	2	-4.0	-4.0	18.34	70.0	1.0	Certain	-12.96	3.7	3.54725	Yes	4.0	-16.6643990929705	1.182	350.874	n/a	GetAnswer	Mixed
350.892	4.0	0.018	907.797	50.0	2	-4.0	-4.0	18.34	70.0	1.0	Certain	-12.96	3.7	3.54725	Yes	n/a	-16.6643990929705	n/a	n/a	n/a	ShowChoice	Mixed
354.907	1.0	0.015	911.812	50.0	2	-4.0	-4.0	18.34	70.0	1.0	Certain	-12.96	3.7	3.54725	Yes	n/a	-16.6643990929705	n/a	n/a	n/a	ShowResult	Mixed
355.923	7.537	0.016	912.828	50.0	2	-4.0	-4.0	18.34	70.0	1.0	Certain	-12.96	3.7	3.54725	Yes	n/a	-16.6643990929705	n/a	n/a	n/a	ISITrial	Mixed
363.471	3.547	0.011	920.376	50.0	2	-4.0	-4.0	18.34	70.0	1.0	Certain	-12.96	3.7	3.54725	Yes	n/a	-16.6643990929705	n/a	n/a	n/a	TrialHappPreview	Mixed
367.036	4.015	0.018	923.941	50.0	2	-4.0	-4.0	18.34	70.0	1.0	Certain	-12.96	3.7	3.54725	Yes	n/a	-16.6643990929705	n/a	n/a	544.0	TrialHappiness	Mixed
367.037	0.204	n/a	925.744	50.0	2	-4.0	-4.0	18.34	70.0	1.0	Certain	-12.96	3.7	3.54725	Yes	n/a	-16.6643990929705	n/a	n/a	544.0	TrialHappinessSliderResponse	Mixed
371.051	6.189	4.015	927.956	50.0	2	-4.0	-4.0	18.34	70.0	1.0	Certain	-12.96	3.7	3.54725	Yes	n/a	-16.6643990929705	n/a	n/a	n/a	ISIRate	Mixed
377.266	3.0	0.026	934.171	51.0	2	-3.0	-3.0	17.965	70.0	5.0	Certain	6.3	-13.25	0.0	No	4.0	-19.551020408163303	1.391	378.657	n/a	GetAnswer	Gain
378.682	4.0	0.025	935.587	51.0	2	-3.0	-3.0	17.965	70.0	5.0	Certain	6.3	-13.25	0.0	No	n/a	-19.551020408163303	n/a	n/a	n/a	ShowChoice	Gain
382.697	1.0	0.015	939.602	51.0	2	-3.0	-3.0	17.965	70.0	5.0	Certain	6.3	-13.25	0.0	No	n/a	-19.551020408163303	n/a	n/a	n/a	ShowResult	Gain
383.713	5.508	0.016	940.618	51.0	2	-3.0	-3.0	17.965	70.0	5.0	Certain	6.3	-13.25	0.0	No	n/a	-19.551020408163303	n/a	n/a	n/a	ISITrial	Gain
389.245	3.0	0.024	946.15	52.0	2	-9.0	-9.0	16.84	70.0	0.2	Certain	0.5	-19.59	0.0	No	4.0	-20.0884353741497	1.344	390.589	n/a	GetAnswer	Mixed
390.611	4.0	0.022	947.516	52.0	2	-9.0	-9.0	16.84	70.0	0.2	Certain	0.5	-19.59	0.0	No	n/a	-20.0884353741497	n/a	n/a	n/a	ShowChoice	Mixed
394.626	1.0	0.015	951.531	52.0	2	-9.0	-9.0	16.84	70.0	0.2	Certain	0.5	-19.59	0.0	No	n/a	-20.0884353741497	n/a	n/a	n/a	ShowResult	Mixed
395.643	5.913	0.017	952.548	52.0	2	-9.0	-9.0	16.84	70.0	0.2	Certain	0.5	-19.59	0.0	No	n/a	-20.0884353741497	n/a	n/a	n/a	ISITrial	Mixed
401.574	3.0	0.018	958.479	53.0	2	-7.0	-7.0	15.965	70.0	0.52	Certain	-17.53	3.1	2.99675	Yes	4.0	-20.6258503401361	1.541	403.115	n/a	GetAnswer	Mixed
403.14	4.0	0.025	960.045	53.0	2	-7.0	-7.0	15.965	70.0	0.52	Certain	-17.53	3.1	2.99675	Yes	n/a	-20.6258503401361	n/a	n/a	n/a	ShowChoice	Mixed
407.155	1.0	0.015	964.06	53.0	2	-7.0	-7.0	15.965	70.0	0.52	Certain	-17.53	3.1	2.99675	Yes	n/a	-20.6258503401361	n/a	n/a	n/a	ShowResult	Mixed
408.171	3.66	0.016	965.076	53.0	2	-7.0	-7.0	15.965	70.0	0.52	Certain	-17.53	3.1	2.99675	Yes	n/a	-20.6258503401361	n/a	n/a	n/a	ISITrial	Mixed
411.853	2.997	0.022	968.758	53.0	2	-7.0	-7.0	15.965	70.0	0.52	Certain	-17.53	3.1	2.99675	Yes	n/a	-20.6258503401361	n/a	n/a	n/a	TrialHappPreview	Mixed
414.869	4.015	0.019	971.774	53.0	2	-7.0	-7.0	15.965	70.0	0.52	Certain	-17.53	3.1	2.99675	Yes	n/a	-20.6258503401361	n/a	n/a	404.0	TrialHappiness	Mixed
414.87	1.901	n/a	972.373	53.0	2	-7.0	-7.0	15.965	70.0	0.52	Certain	-17.53	3.1	2.99675	Yes	n/a	-20.6258503401361	n/a	n/a	404.0	TrialHappinessSliderResponse	Mixed
418.884	3.987	4.015	975.789	53.0	2	-7.0	-7.0	15.965	70.0	0.52	Certain	-17.53	3.1	2.99675	Yes	n/a	-20.6258503401361	n/a	n/a	n/a	ISIRate	Mixed
422.9	3.0	0.029	979.805	54.0	2	2.08	1.0	16.225	70.0	5.0	Outcome2	-0.37	2.08	0.0	No	2.0	2.44879062736206	1.756	424.656	n/a	GetAnswer	Gain
424.682	4.0	0.026	981.587	54.0	2	2.08	1.0	16.225	70.0	5.0	Outcome2	-0.37	2.08	0.0	No	n/a	2.44879062736206	n/a	n/a	n/a	ShowChoice	Gain
428.697	1.0	0.015	985.602	54.0	2	2.08	1.0	16.225	70.0	5.0	Outcome2	-0.37	2.08	0.0	No	n/a	2.44879062736206	n/a	n/a	n/a	ShowResult	Gain
429.714	8.0	0.017	986.619	54.0	2	2.08	1.0	16.225	70.0	5.0	Outcome2	-0.37	2.08	0.0	No	n/a	2.44879062736206	n/a	n/a	n/a	ISITrial	Gain
498.14	1.785	n/a	1055.583	n/a	2	n/a	n/a	n/a	n/a	n/a	n/a	n/a	n/a	n/a	n/a	n/a	n/a	n/a	n/a	624.0	BlockStartHappinessSliderResponse	n/a
-68.559	-0.001	0.03	994.649	n/a	3	n/a	n/a	n/a	n/a	n/a	n/a	n/a	n/a	n/a	n/a	{SPACE}	n/a	56.355	-12.204	n/a	Rest	n/a
-12.179	4.0	0.025	1051.029	n/a	3	n/a	n/a	n/a	n/a	n/a	n/a	n/a	n/a	n/a	n/a	n/a	n/a	n/a	n/a	n/a	BlockHappyPreview	n/a
-8.164	2.323	0.015	1055.044	n/a	3	n/a	n/a	n/a	n/a	n/a	n/a	n/a	n/a	n/a	n/a	2{-2}2{-2}2{-2}2{-2}2{-2}2{-2}	n/a	2.323	-5.841	624.0	BlockStartHappiness	n/a
-2.332	-0.001	0.016	1060.876	n/a	3	n/a	n/a	n/a	n/a	n/a	n/a	n/a	n/a	n/a	n/a	5.0	n/a	2.311	-0.021	n/a	ScanWait	n/a
0.0	10.0	0.021	1063.208	n/a	3	n/a	n/a	n/a	n/a	n/a	n/a	n/a	n/a	n/a	n/a	n/a	n/a	n/a	n/a	n/a	GetReady	n/a
10.013	3.0	0.013	1073.221	55.0	3	-3.0	-3.0	15.85	955.0	1.2	Certain	-5.72	-0.1	2.53325	Yes	4.0	5.62287655719139	1.471	11.484	n/a	GetAnswer	Mixed
11.496	4.0	0.012	1074.704	55.0	3	-3.0	-3.0	15.85	955.0	1.2	Certain	-5.72	-0.1	2.53325	Yes	n/a	5.62287655719139	n/a	n/a	n/a	ShowChoice	Mixed
15.511	1.0	0.015	1078.719	55.0	3	-3.0	-3.0	15.85	955.0	1.2	Certain	-5.72	-0.1	2.53325	Yes	n/a	5.62287655719139	n/a	n/a	n/a	ShowResult	Mixed
16.528	7.709	0.017	1079.736	55.0	3	-3.0	-3.0	15.85	955.0	1.2	Certain	-5.72	-0.1	2.53325	Yes	n/a	5.62287655719139	n/a	n/a	n/a	ISITrial	Mixed
24.258	2.533	0.021	1087.466	55.0	3	-3.0	-3.0	15.85	955.0	1.2	Certain	-5.72	-0.1	2.53325	Yes	n/a	5.62287655719139	n/a	n/a	n/a	TrialHappPreview	Mixed
26.807	4.016	0.016	1090.015	55.0	3	-3.0	-3.0	15.85	955.0	1.2	Certain	-5.72	-0.1	2.53325	Yes	n/a	5.62287655719139	n/a	n/a	472.0	TrialHappiness	Mixed
26.808	0.498	n/a	1090.744	55.0	3	-3.0	-3.0	15.85	955.0	1.2	Certain	-5.72	-0.1	2.53325	Yes	n/a	5.62287655719139	n/a	n/a	472.0	TrialHappinessSliderResponse	Mixed
30.823	2.133	4.016	1094.031	55.0	3	-3.0	-3.0	15.85	955.0	1.2	Certain	-5.72	-0.1	2.53325	Yes	n/a	5.62287655719139	n/a	n/a	n/a	ISIRate	Mixed
32.972	3.0	0.016	1096.18	56.0	3	13.1	2.26	17.4875	955.0	2.22	Outcome1	13.1	4.52	0.0	No	2.0	8.57984144960362	1.01	33.982	n/a	GetAnswer	Loss
34.005	4.0	0.023	1097.213	56.0	3	13.1	2.26	17.4875	955.0	2.22	Outcome1	13.1	4.52	0.0	No	n/a	8.57984144960362	n/a	n/a	n/a	ShowChoice	Loss
38.02	1.0	0.015	1101.228	56.0	3	13.1	2.26	17.4875	955.0	2.22	Outcome1	13.1	4.52	0.0	No	n/a	8.57984144960362	n/a	n/a	n/a	ShowResult	Loss
39.036	4.697	0.016	1102.244	56.0	3	13.1	2.26	17.4875	955.0	2.22	Outcome1	13.1	4.52	0.0	No	n/a	8.57984144960362	n/a	n/a	n/a	ISITrial	Loss
43.751	3.0	0.018	1106.959	57.0	3	0.0	0.0	17.4875	955.0	1.5	Certain	4.1	-5.03	0.0	No	4.0	9.12684031710079	1.355	45.106	n/a	GetAnswer	Mixed
45.117	4.0	0.011	1108.325	57.0	3	0.0	0.0	17.4875	955.0	1.5	Certain	4.1	-5.03	0.0	No	n/a	9.12684031710079	n/a	n/a	n/a	ShowChoice	Mixed
49.133	1.0	0.016	1112.341	57.0	3	0.0	0.0	17.4875	955.0	1.5	Certain	4.1	-5.03	0.0	No	n/a	9.12684031710079	n/a	n/a	n/a	ShowResult	Mixed
50.149	4.291	0.016	1113.357	57.0	3	0.0	0.0	17.4875	955.0	1.5	Certain	4.1	-5.03	0.0	No	n/a	9.12684031710079	n/a	n/a	n/a	ISITrial	Mixed
54.464	3.0	0.024	1117.672	58.0	3	-2.0	-2.0	17.2375	955.0	0.3	Certain	-6.97	2.7	3.04575	Yes	4.0	9.67383918459796	1.334	55.798	n/a	GetAnswer	Mixed
55.814	4.0	0.016	1119.022	58.0	3	-2.0	-2.0	17.2375	955.0	0.3	Certain	-6.97	2.7	3.04575	Yes	n/a	9.67383918459796	n/a	n/a	n/a	ShowChoice	Mixed
59.829	1.0	0.015	1123.037	58.0	3	-2.0	-2.0	17.2375	955.0	0.3	Certain	-6.97	2.7	3.04575	Yes	n/a	9.67383918459796	n/a	n/a	n/a	ShowResult	Mixed
60.845	2.037	0.016	1124.053	58.0	3	-2.0	-2.0	17.2375	955.0	0.3	Certain	-6.97	2.7	3.04575	Yes	n/a	9.67383918459796	n/a	n/a	n/a	ISITrial	Mixed
62.894	3.046	0.012	1126.102	58.0	3	-2.0	-2.0	17.2375	955.0	0.3	Certain	-6.97	2.7	3.04575	Yes	n/a	9.67383918459796	n/a	n/a	n/a	TrialHappPreview	Mixed
65.96	4.015	0.02	1129.168	58.0	3	-2.0	-2.0	17.2375	955.0	0.3	Certain	-6.97	2.7	3.04575	Yes	n/a	9.67383918459796	n/a	n/a	452.0	TrialHappiness	Mixed
65.961	0.937	n/a	1130.801	58.0	3	-2.0	-2.0	17.2375	955.0	0.3	Certain	-6.97	2.7	3.04575	Yes	n/a	9.67383918459796	n/a	n/a	452.0	TrialHappinessSliderResponse	Mixed
69.975	4.183	4.015	1133.183	58.0	3	-2.0	-2.0	17.2375	955.0	0.3	Certain	-6.97	2.7	3.04575	Yes	n/a	9.67383918459796	n/a	n/a	n/a	ISIRate	Mixed
74.174	3.0	0.016	1137.382	59.0	3	7.3	2.0	18.15	955.0	2.48	Outcome2	-3.26	7.3	0.0	No	2.0	10.5605889014723	1.694	75.868	n/a	GetAnswer	Gain
75.89	4.0	0.022	1139.098	59.0	3	7.3	2.0	18.15	955.0	2.48	Outcome2	-3.26	7.3	0.0	No	n/a	10.5605889014723	n/a	n/a	n/a	ShowChoice	Gain
79.905	1.0	0.015	1143.113	59.0	3	7.3	2.0	18.15	955.0	2.48	Outcome2	-3.26	7.3	0.0	No	n/a	10.5605889014723	n/a	n/a	n/a	ShowResult	Gain
80.921	5.064	0.016	1144.129	59.0	3	7.3	2.0	18.15	955.0	2.48	Outcome2	-3.26	7.3	0.0	No	n/a	10.5605889014723	n/a	n/a	n/a	ISITrial	Gain
86.003	3.0	0.018	1149.211	60.0	3	8.9	-1.12	19.2625	955.0	2.0	Outcome2	-2.23	8.9	3.5625	Yes	2.0	11.1302378255946	1.464	87.467	n/a	GetAnswer	Gain
87.486	4.0	0.019	1150.694	60.0	3	8.9	-1.12	19.2625	955.0	2.0	Outcome2	-2.23	8.9	3.5625	Yes	n/a	11.1302378255946	n/a	n/a	n/a	ShowChoice	Gain
91.501	1.0	0.015	1154.709	60.0	3	8.9	-1.12	19.2625	955.0	2.0	Outcome2	-2.23	8.9	3.5625	Yes	n/a	11.1302378255946	n/a	n/a	n/a	ShowResult	Gain
92.517	8.0	0.016	1155.725	60.0	3	8.9	-1.12	19.2625	955.0	2.0	Outcome2	-2.23	8.9	3.5625	Yes	n/a	11.1302378255946	n/a	n/a	n/a	ISITrial	Gain
100.531	3.562	0.014	1163.739	60.0	3	8.9	-1.12	19.2625	955.0	2.0	Outcome2	-2.23	8.9	3.5625	Yes	n/a	11.1302378255946	n/a	n/a	n/a	TrialHappPreview	Gain
104.113	4.015	0.02	1167.321	60.0	3	8.9	-1.12	19.2625	955.0	2.0	Outcome2	-2.23	8.9	3.5625	Yes	n/a	11.1302378255946	n/a	n/a	640.0	TrialHappiness	Gain
104.114	1.981	n/a	1167.773	60.0	3	8.9	-1.12	19.2625	955.0	2.0	Outcome2	-2.23	8.9	3.5625	Yes	n/a	11.1302378255946	n/a	n/a	640.0	TrialHappinessSliderResponse	Gain
108.128	6.25	4.015	1171.336	60.0	3	8.9	-1.12	19.2625	955.0	2.0	Outcome2	-2.23	8.9	3.5625	Yes	n/a	11.1302378255946	n/a	n/a	n/a	ISIRate	Gain
114.409	3.0	0.031	1177.617	61.0	3	8.1	-0.2	20.275	955.0	4.2	Outcome2	-0.41	8.1	0.0	No	2.0	8.50622876557191	1.657	116.066	n/a	GetAnswer	Gain
116.092	4.0	0.026	1179.3	61.0	3	8.1	-0.2	20.275	955.0	4.2	Outcome2	-0.41	8.1	0.0	No	n/a	8.50622876557191	n/a	n/a	n/a	ShowChoice	Gain
120.107	1.0	0.015	1183.315	61.0	3	8.1	-0.2	20.275	955.0	4.2	Outcome2	-0.41	8.1	0.0	No	n/a	8.50622876557191	n/a	n/a	n/a	ShowResult	Gain
121.124	4.586	0.017	1184.332	61.0	3	8.1	-0.2	20.275	955.0	4.2	Outcome2	-0.41	8.1	0.0	No	n/a	8.50622876557191	n/a	n/a	n/a	ISITrial	Gain
125.739	3.0	0.029	1188.947	62.0	3	9.3	0.22	21.4375	955.0	2.48	Outcome1	9.3	0.44	3.74875	Yes	2.0	8.862967157417891	1.354	127.093	n/a	GetAnswer	Gain
127.105	4.0	0.012	1190.313	62.0	3	9.3	0.22	21.4375	955.0	2.48	Outcome1	9.3	0.44	3.74875	Yes	n/a	8.862967157417891	n/a	n/a	n/a	ShowChoice	Gain
131.12	1.0	0.015	1194.328	62.0	3	9.3	0.22	21.4375	955.0	2.48	Outcome1	9.3	0.44	3.74875	Yes	n/a	8.862967157417891	n/a	n/a	n/a	ShowResult	Gain
132.137	5.212	0.017	1195.345	62.0	3	9.3	0.22	21.4375	955.0	2.48	Outcome1	9.3	0.44	3.74875	Yes	n/a	8.862967157417891	n/a	n/a	n/a	ISITrial	Gain
137.368	3.749	0.019	1200.576	62.0	3	9.3	0.22	21.4375	955.0	2.48	Outcome1	9.3	0.44	3.74875	Yes	n/a	8.862967157417891	n/a	n/a	n/a	TrialHappPreview	Gain
141.133	4.016	0.016	1204.341	62.0	3	9.3	0.22	21.4375	955.0	2.48	Outcome1	9.3	0.44	3.74875	Yes	n/a	8.862967157417891	n/a	n/a	720.0	TrialHappiness	Gain
141.134	2.87	n/a	1204.878	62.0	3	9.3	0.22	21.4375	955.0	2.48	Outcome1	9.3	0.44	3.74875	Yes	n/a	8.862967157417891	n/a	n/a	720.0	TrialHappinessSliderResponse	Gain
145.149	6.995	4.016	1208.357	62.0	3	9.3	0.22	21.4375	955.0	2.48	Outcome1	9.3	0.44	3.74875	Yes	n/a	8.862967157417891	n/a	n/a	n/a	ISIRate	Gain
152.163	3.0	0.019	1215.371	63.0	3	5.7	2.0	22.15	955.0	3.16	Outcome1	5.7	-2.16	0.0	No	2.0	7.86070215175538	1.439	153.602	n/a	GetAnswer	Gain
153.629	4.0	0.027	1216.837	63.0	3	5.7	2.0	22.15	955.0	3.16	Outcome1	5.7	-2.16	0.0	No	n/a	7.86070215175538	n/a	n/a	n/a	ShowChoice	Gain
157.644	1.0	0.015	1220.852	63.0	3	5.7	2.0	22.15	955.0	3.16	Outcome1	5.7	-2.16	0.0	No	n/a	7.86070215175538	n/a	n/a	n/a	ShowResult	Gain
158.66	5.595	0.016	1221.868	63.0	3	5.7	2.0	22.15	955.0	3.16	Outcome1	5.7	-2.16	0.0	No	n/a	7.86070215175538	n/a	n/a	n/a	ISITrial	Gain
164.275	3.0	0.02	1227.483	64.0	3	-5.0	-5.0	21.525	955.0	0.3	Certain	-9.43	-1.3	0.0	No	4.0	8.12684031710079	1.701	165.976	n/a	GetAnswer	Mixed
165.991	4.0	0.015	1229.199	64.0	3	-5.0	-5.0	21.525	955.0	0.3	Certain	-9.43	-1.3	0.0	No	n/a	8.12684031710079	n/a	n/a	n/a	ShowChoice	Mixed
170.006	1.0	0.015	1233.214	64.0	3	-5.0	-5.0	21.525	955.0	0.3	Certain	-9.43	-1.3	0.0	No	n/a	8.12684031710079	n/a	n/a	n/a	ShowResult	Mixed
171.023	5.47	0.017	1234.231	64.0	3	-5.0	-5.0	21.525	955.0	0.3	Certain	-9.43	-1.3	0.0	No	n/a	8.12684031710079	n/a	n/a	n/a	ISITrial	Mixed
176.521	3.0	0.028	1239.729	65.0	3	-2.0	-2.0	21.275	955.0	1.5	Certain	-6.29	2.1	2.99675	Yes	4.0	8.39297848244621	1.664	178.185	n/a	GetAnswer	Mixed
178.203	4.0	0.018	1241.411	65.0	3	-2.0	-2.0	21.275	955.0	1.5	Certain	-6.29	2.1	2.99675	Yes	n/a	8.39297848244621	n/a	n/a	n/a	ShowChoice	Mixed
182.219	1.0	0.016	1245.427	65.0	3	-2.0	-2.0	21.275	955.0	1.5	Certain	-6.29	2.1	2.99675	Yes	n/a	8.39297848244621	n/a	n/a	n/a	ShowResult	Mixed
183.235	3.344	0.016	1246.443	65.0	3	-2.0	-2.0	21.275	955.0	1.5	Certain	-6.29	2.1	2.99675	Yes	n/a	8.39297848244621	n/a	n/a	n/a	ISITrial	Mixed
186.6	2.997	0.021	1249.808	65.0	3	-2.0	-2.0	21.275	955.0	1.5	Certain	-6.29	2.1	2.99675	Yes	n/a	8.39297848244621	n/a	n/a	n/a	TrialHappPreview	Mixed
189.616	4.015	0.019	1252.824	65.0	3	-2.0	-2.0	21.275	955.0	1.5	Certain	-6.29	2.1	2.99675	Yes	n/a	8.39297848244621	n/a	n/a	448.0	TrialHappiness	Mixed
189.617	0.287	n/a	1253.678	65.0	3	-2.0	-2.0	21.275	955.0	1.5	Certain	-6.29	2.1	2.99675	Yes	n/a	8.39297848244621	n/a	n/a	448.0	TrialHappinessSliderResponse	Mixed
193.631	3.987	4.015	1256.839	65.0	3	-2.0	-2.0	21.275	955.0	1.5	Certain	-6.29	2.1	2.99675	Yes	n/a	8.39297848244621	n/a	n/a	n/a	ISIRate	Mixed
197.647	3.0	0.029	1260.855	66.0	3	0.0	0.0	21.275	955.0	2.22	Certain	7.1	-6.18	0.0	No	4.0	13.2797281993205	1.797	199.444	n/a	GetAnswer	Gain
199.463	4.0	0.019	1262.671	66.0	3	0.0	0.0	21.275	955.0	2.22	Certain	7.1	-6.18	0.0	No	n/a	13.2797281993205	n/a	n/a	n/a	ShowChoice	Gain
203.478	1.0	0.015	1266.686	66.0	3	0.0	0.0	21.275	955.0	2.22	Certain	7.1	-6.18	0.0	No	n/a	13.2797281993205	n/a	n/a	n/a	ShowResult	Gain
204.494	3.959	0.016	1267.702	66.0	3	0.0	0.0	21.275	955.0	2.22	Certain	7.1	-6.18	0.0	No	n/a	13.2797281993205	n/a	n/a	n/a	ISITrial	Gain
208.476	3.0	0.023	1271.684	67.0	3	13.3	-0.28	22.9375	955.0	2.48	Outcome1	13.3	-0.55	2.9185	Yes	2.0	13.853907134767802	1.284	209.76	n/a	GetAnswer	Loss
209.776	4.0	0.016	1272.984	67.0	3	13.3	-0.28	22.9375	955.0	2.48	Outcome1	13.3	-0.55	2.9185	Yes	n/a	13.853907134767802	n/a	n/a	n/a	ShowChoice	Loss
213.791	1.0	0.015	1276.999	67.0	3	13.3	-0.28	22.9375	955.0	2.48	Outcome1	13.3	-0.55	2.9185	Yes	n/a	13.853907134767802	n/a	n/a	n/a	ShowResult	Loss
214.807	4.199	0.016	1278.015	67.0	3	13.3	-0.28	22.9375	955.0	2.48	Outcome1	13.3	-0.55	2.9185	Yes	n/a	13.853907134767802	n/a	n/a	n/a	ISITrial	Loss
219.022	2.918	0.016	1282.23	67.0	3	13.3	-0.28	22.9375	955.0	2.48	Outcome1	13.3	-0.55	2.9185	Yes	n/a	13.853907134767802	n/a	n/a	n/a	TrialHappPreview	Loss
221.955	4.015	0.015	1285.163	67.0	3	13.3	-0.28	22.9375	955.0	2.48	Outcome1	13.3	-0.55	2.9185	Yes	n/a	13.853907134767802	n/a	n/a	604.0	TrialHappiness	Loss
221.955	3.608	n/a	1285.538	67.0	3	13.3	-0.28	22.9375	955.0	2.48	Outcome1	13.3	-0.55	2.9185	Yes	n/a	13.853907134767802	n/a	n/a	604.0	TrialHappinessSliderResponse	Loss
225.97	3.674	4.015	1289.178	67.0	3	13.3	-0.28	22.9375	955.0	2.48	Outcome1	13.3	-0.55	2.9185	Yes	n/a	13.853907134767802	n/a	n/a	n/a	ISIRate	Loss
229.668	3.0	0.024	1292.876	68.0	3	3.39	1.7	23.3613	955.0	2.48	Outcome1	3.39	5.3	0.0	No	2.0	-1.90902227255568	1.632	231.3	n/a	GetAnswer	Gain
231.318	4.0	0.018	1294.526	68.0	3	3.39	1.7	23.3613	955.0	2.48	Outcome1	3.39	5.3	0.0	No	n/a	-1.90902227255568	n/a	n/a	n/a	ShowChoice	Gain
235.333	1.0	0.015	1298.541	68.0	3	3.39	1.7	23.3613	955.0	2.48	Outcome1	3.39	5.3	0.0	No	n/a	-1.90902227255568	n/a	n/a	n/a	ShowResult	Gain
236.349	2.185	0.016	1299.557	68.0	3	3.39	1.7	23.3613	955.0	2.48	Outcome1	3.39	5.3	0.0	No	n/a	-1.90902227255568	n/a	n/a	n/a	ISITrial	Gain
238.565	3.0	0.031	1301.773	69.0	3	9.9	-1.14	24.5988	955.0	3.6	Outcome2	-2.28	9.9	0.0	No	2.0	12.1755379388448	1.932	240.497	n/a	GetAnswer	Gain
240.515	4.0	0.018	1303.723	69.0	3	9.9	-1.14	24.5988	955.0	3.6	Outcome2	-2.28	9.9	0.0	No	n/a	12.1755379388448	n/a	n/a	n/a	ShowChoice	Gain
244.53	1.0	0.015	1307.738	69.0	3	9.9	-1.14	24.5988	955.0	3.6	Outcome2	-2.28	9.9	0.0	No	n/a	12.1755379388448	n/a	n/a	n/a	ShowResult	Gain
245.546	2.0	0.016	1308.754	69.0	3	9.9	-1.14	24.5988	955.0	3.6	Outcome2	-2.28	9.9	0.0	No	n/a	12.1755379388448	n/a	n/a	n/a	ISITrial	Gain
247.562	3.0	0.016	1310.77	70.0	3	0.0	0.0	24.5988	955.0	1.68	Certain	6.5	-6.07	3.65125	Yes	4.0	12.5730464326161	1.912	249.474	n/a	GetAnswer	Gain
249.495	4.0	0.021	1312.703	70.0	3	0.0	0.0	24.5988	955.0	1.68	Certain	6.5	-6.07	3.65125	Yes	n/a	12.5730464326161	n/a	n/a	n/a	ShowChoice	Gain
253.51	1.0	0.015	1316.718	70.0	3	0.0	0.0	24.5988	955.0	1.68	Certain	6.5	-6.07	3.65125	Yes	n/a	12.5730464326161	n/a	n/a	n/a	ShowResult	Gain
254.526	2.623	0.016	1317.734	70.0	3	0.0	0.0	24.5988	955.0	1.68	Certain	6.5	-6.07	3.65125	Yes	n/a	12.5730464326161	n/a	n/a	n/a	ISITrial	Gain
257.175	3.651	0.026	1320.383	70.0	3	0.0	0.0	24.5988	955.0	1.68	Certain	6.5	-6.07	3.65125	Yes	n/a	12.5730464326161	n/a	n/a	n/a	TrialHappPreview	Gain
260.857	4.016	0.031	1324.065	70.0	3	0.0	0.0	24.5988	955.0	1.68	Certain	6.5	-6.07	3.65125	Yes	n/a	12.5730464326161	n/a	n/a	568.0	TrialHappiness	Gain
260.858	0.629	n/a	1325.744	70.0	3	0.0	0.0	24.5988	955.0	1.68	Certain	6.5	-6.07	3.65125	Yes	n/a	12.5730464326161	n/a	n/a	568.0	TrialHappinessSliderResponse	Gain
264.873	6.605	4.016	1328.081	70.0	3	0.0	0.0	24.5988	955.0	1.68	Certain	6.5	-6.07	3.65125	Yes	n/a	12.5730464326161	n/a	n/a	n/a	ISIRate	Gain
271.504	3.0	0.026	1334.712	71.0	3	10.5	-1.54	25.9113	955.0	1.68	Outcome1	10.5	-3.08	0.0	No	2.0	13.582106455266098	1.136	272.64	n/a	GetAnswer	Loss
272.653	4.0	0.013	1335.861	71.0	3	10.5	-1.54	25.9113	955.0	1.68	Outcome1	10.5	-3.08	0.0	No	n/a	13.582106455266098	n/a	n/a	n/a	ShowChoice	Loss
276.668	1.0	0.015	1339.876	71.0	3	10.5	-1.54	25.9113	955.0	1.68	Outcome1	10.5	-3.08	0.0	No	n/a	13.582106455266098	n/a	n/a	n/a	ShowResult	Loss
277.685	5.499	0.017	1340.893	71.0	3	10.5	-1.54	25.9113	955.0	1.68	Outcome1	10.5	-3.08	0.0	No	n/a	13.582106455266098	n/a	n/a	n/a	ISITrial	Loss
283.199	3.0	0.015	1346.407	72.0	3	11.5	-1.26	27.3488	955.0	2.8	Outcome2	-2.52	11.5	3.0805	Yes	2.0	14.0203850509626	1.54	284.739	n/a	GetAnswer	Loss
284.766	4.0	0.027	1347.974	72.0	3	11.5	-1.26	27.3488	955.0	2.8	Outcome2	-2.52	11.5	3.0805	Yes	n/a	14.0203850509626	n/a	n/a	n/a	ShowChoice	Loss
288.781	1.0	0.015	1351.989	72.0	3	11.5	-1.26	27.3488	955.0	2.8	Outcome2	-2.52	11.5	3.0805	Yes	n/a	14.0203850509626	n/a	n/a	n/a	ShowResult	Loss
289.797	5.672	0.016	1353.005	72.0	3	11.5	-1.26	27.3488	955.0	2.8	Outcome2	-2.52	11.5	3.0805	Yes	n/a	14.0203850509626	n/a	n/a	n/a	ISITrial	Loss
295.495	3.08	0.026	1358.703	72.0	3	11.5	-1.26	27.3488	955.0	2.8	Outcome2	-2.52	11.5	3.0805	Yes	n/a	14.0203850509626	n/a	n/a	n/a	TrialHappPreview	Loss
298.594	4.015	0.019	1361.802	72.0	3	11.5	-1.26	27.3488	955.0	2.8	Outcome2	-2.52	11.5	3.0805	Yes	2{-2}	14.0203850509626	2.989	301.583	544.0	TrialHappiness	Loss
298.595	0.205	n/a	1364.587	72.0	3	11.5	-1.26	27.3488	955.0	2.8	Outcome2	-2.52	11.5	3.0805	Yes	n/a	14.0203850509626	n/a	n/a	544.0	TrialHappinessSliderResponse	Loss
302.609	4.322	4.015	1365.817	72.0	3	11.5	-1.26	27.3488	955.0	2.8	Outcome2	-2.52	11.5	3.0805	Yes	n/a	14.0203850509626	n/a	n/a	n/a	ISIRate	Loss
306.958	3.0	0.027	1370.166	73.0	3	4.38	2.19	27.8963	955.0	1.82	Outcome1	4.38	6.7	0.0	No	2.0	-2.32493393733484	1.063	308.021	n/a	GetAnswer	Gain
308.041	4.0	0.02	1371.249	73.0	3	4.38	2.19	27.8963	955.0	1.82	Outcome1	4.38	6.7	0.0	No	n/a	-2.32493393733484	n/a	n/a	n/a	ShowChoice	Gain
312.056	1.0	0.015	1375.264	73.0	3	4.38	2.19	27.8963	955.0	1.82	Outcome1	4.38	6.7	0.0	No	n/a	-2.32493393733484	n/a	n/a	n/a	ShowResult	Gain
313.072	4.616	0.016	1376.28	73.0	3	4.38	2.19	27.8963	955.0	1.82	Outcome1	4.38	6.7	0.0	No	n/a	-2.32493393733484	n/a	n/a	n/a	ISITrial	Gain
317.704	3.0	0.016	1380.912	74.0	3	-7.0	-7.0	27.0213	955.0	2.0	Certain	0.3	-15.03	3.05625	Yes	4.0	15.3318233295583	1.104	318.808	n/a	GetAnswer	Mixed
318.82	4.0	0.012	1382.028	74.0	3	-7.0	-7.0	27.0213	955.0	2.0	Certain	0.3	-15.03	3.05625	Yes	n/a	15.3318233295583	n/a	n/a	n/a	ShowChoice	Mixed
322.835	1.0	0.015	1386.043	74.0	3	-7.0	-7.0	27.0213	955.0	2.0	Certain	0.3	-15.03	3.05625	Yes	n/a	15.3318233295583	n/a	n/a	n/a	ShowResult	Mixed
323.852	3.909	0.017	1387.06	74.0	3	-7.0	-7.0	27.0213	955.0	2.0	Certain	0.3	-15.03	3.05625	Yes	n/a	15.3318233295583	n/a	n/a	n/a	ISITrial	Mixed
327.784	3.056	0.023	1390.992	74.0	3	-7.0	-7.0	27.0213	955.0	2.0	Certain	0.3	-15.03	3.05625	Yes	n/a	15.3318233295583	n/a	n/a	n/a	TrialHappPreview	Mixed
330.866	4.015	0.026	1394.074	74.0	3	-7.0	-7.0	27.0213	955.0	2.0	Certain	0.3	-15.03	3.05625	Yes	n/a	15.3318233295583	n/a	n/a	456.0	TrialHappiness	Mixed
330.866	0.264	n/a	1394.5	74.0	3	-7.0	-7.0	27.0213	955.0	2.0	Certain	0.3	-15.03	3.05625	Yes	n/a	15.3318233295583	n/a	n/a	456.0	TrialHappinessSliderResponse	Mixed
334.881	4.225	4.015	1398.089	74.0	3	-7.0	-7.0	27.0213	955.0	2.0	Certain	0.3	-15.03	3.05625	Yes	n/a	15.3318233295583	n/a	n/a	n/a	ISIRate	Mixed
339.13	3.0	0.024	1402.338	75.0	3	5.74	2.87	27.7388	955.0	1.68	Outcome1	5.74	8.5	0.0	No	2.0	-2.75962627406569	1.181	340.311	n/a	GetAnswer	Gain
340.329	4.0	0.018	1403.537	75.0	3	5.74	2.87	27.7388	955.0	1.68	Outcome1	5.74	8.5	0.0	No	n/a	-2.75962627406569	n/a	n/a	n/a	ShowChoice	Gain
344.344	1.0	0.015	1407.552	75.0	3	5.74	2.87	27.7388	955.0	1.68	Outcome1	5.74	8.5	0.0	No	n/a	-2.75962627406569	n/a	n/a	n/a	ShowResult	Gain
345.361	4.979	0.017	1408.569	75.0	3	5.74	2.87	27.7388	955.0	1.68	Outcome1	5.74	8.5	0.0	No	n/a	-2.75962627406569	n/a	n/a	n/a	ISITrial	Gain
350.359	3.0	0.019	1413.567	76.0	3	0.0	0.0	27.7388	955.0	1.82	Certain	8.7	-9.16	0.0	No	4.0	17.857304643261603	1.164	351.523	n/a	GetAnswer	Gain
351.542	4.0	0.019	1414.75	76.0	3	0.0	0.0	27.7388	955.0	1.82	Certain	8.7	-9.16	0.0	No	n/a	17.857304643261603	n/a	n/a	n/a	ShowChoice	Gain
355.557	1.0	0.015	1418.765	76.0	3	0.0	0.0	27.7388	955.0	1.82	Certain	8.7	-9.16	0.0	No	n/a	17.857304643261603	n/a	n/a	n/a	ShowResult	Gain
356.573	3.931	0.016	1419.781	76.0	3	0.0	0.0	27.7388	955.0	1.82	Certain	8.7	-9.16	0.0	No	n/a	17.857304643261603	n/a	n/a	n/a	ISITrial	Gain
360.522	3.0	0.018	1423.73	77.0	3	-9.0	-9.0	26.6138	955.0	1.5	Certain	0.1	-18.32	4.0	Yes	4.0	18.4224235560589	2.362	362.884	n/a	GetAnswer	Mixed
362.904	4.0	0.02	1426.112	77.0	3	-9.0	-9.0	26.6138	955.0	1.5	Certain	0.1	-18.32	4.0	Yes	n/a	18.4224235560589	n/a	n/a	n/a	ShowChoice	Mixed
366.92	1.0	0.016	1430.128	77.0	3	-9.0	-9.0	26.6138	955.0	1.5	Certain	0.1	-18.32	4.0	Yes	n/a	18.4224235560589	n/a	n/a	n/a	ShowResult	Mixed
367.936	7.022	0.016	1431.144	77.0	3	-9.0	-9.0	26.6138	955.0	1.5	Certain	0.1	-18.32	4.0	Yes	n/a	18.4224235560589	n/a	n/a	n/a	ISITrial	Mixed
374.983	4.0	0.025	1438.191	77.0	3	-9.0	-9.0	26.6138	955.0	1.5	Certain	0.1	-18.32	4.0	Yes	n/a	18.4224235560589	n/a	n/a	n/a	TrialHappPreview	Mixed
378.999	4.015	0.016	1442.207	77.0	3	-9.0	-9.0	26.6138	955.0	1.5	Certain	0.1	-18.32	4.0	Yes	n/a	18.4224235560589	n/a	n/a	424.0	TrialHappiness	Mixed
378.999	1.354	n/a	1442.71	77.0	3	-9.0	-9.0	26.6138	955.0	1.5	Certain	0.1	-18.32	4.0	Yes	n/a	18.4224235560589	n/a	n/a	424.0	TrialHappinessSliderResponse	Mixed
383.014	8.0	4.015	1446.222	77.0	3	-9.0	-9.0	26.6138	955.0	1.5	Certain	0.1	-18.32	4.0	Yes	n/a	18.4224235560589	n/a	n/a	n/a	ISIRate	Mixed
391.044	3.0	0.03	1454.252	78.0	3	12.1	2.0	28.1263	955.0	4.2	Outcome2	-7.43	12.1	0.0	No	2.0	19.5311438278596	1.31	392.354	n/a	GetAnswer	Loss
392.377	4.0	0.023	1455.585	78.0	3	12.1	2.0	28.1263	955.0	4.2	Outcome2	-7.43	12.1	0.0	No	n/a	19.5311438278596	n/a	n/a	n/a	ShowChoice	Loss
396.393	1.0	0.016	1459.601	78.0	3	12.1	2.0	28.1263	955.0	4.2	Outcome2	-7.43	12.1	0.0	No	n/a	19.5311438278596	n/a	n/a	n/a	ShowResult	Loss
397.409	2.078	0.016	1460.617	78.0	3	12.1	2.0	28.1263	955.0	4.2	Outcome2	-7.43	12.1	0.0	No	n/a	19.5311438278596	n/a	n/a	n/a	ISITrial	Loss
399.508	3.0	0.021	1462.716	79.0	3	-6.0	-6.0	27.3763	955.0	1.2	Certain	-16.23	3.9	2.7295	Yes	4.0	20.132502831257103	1.294	400.802	n/a	GetAnswer	Mixed
400.824	4.0	0.022	1464.032	79.0	3	-6.0	-6.0	27.3763	955.0	1.2	Certain	-16.23	3.9	2.7295	Yes	n/a	20.132502831257103	n/a	n/a	n/a	ShowChoice	Mixed
404.84	1.0	0.016	1468.048	79.0	3	-6.0	-6.0	27.3763	955.0	1.2	Certain	-16.23	3.9	2.7295	Yes	n/a	20.132502831257103	n/a	n/a	n/a	ShowResult	Mixed
405.856	3.829	0.016	1469.064	79.0	3	-6.0	-6.0	27.3763	955.0	1.2	Certain	-16.23	3.9	2.7295	Yes	n/a	20.132502831257103	n/a	n/a	n/a	ISITrial	Mixed
409.704	2.73	0.019	1472.912	79.0	3	-6.0	-6.0	27.3763	955.0	1.2	Certain	-16.23	3.9	2.7295	Yes	n/a	20.132502831257103	n/a	n/a	n/a	TrialHappPreview	Mixed
412.453	4.016	0.019	1475.661	79.0	3	-6.0	-6.0	27.3763	955.0	1.2	Certain	-16.23	3.9	2.7295	Yes	n/a	20.132502831257103	n/a	n/a	568.0	TrialHappiness	Mixed
412.454	0.798	n/a	1476.491	79.0	3	-6.0	-6.0	27.3763	955.0	1.2	Certain	-16.23	3.9	2.7295	Yes	n/a	20.132502831257103	n/a	n/a	568.0	TrialHappinessSliderResponse	Mixed
416.469	2.918	4.016	1479.677	79.0	3	-6.0	-6.0	27.3763	955.0	1.2	Certain	-16.23	3.9	2.7295	Yes	n/a	20.132502831257103	n/a	n/a	n/a	ISIRate	Mixed
419.418	3.0	0.031	1482.626	80.0	3	-1.0	-1.0	27.2513	955.0	2.0	Certain	-2.25	0.3	0.0	No	4.0	-2.54662136655342	1.659	421.077	n/a	GetAnswer	Mixed
421.1	4.0	0.023	1484.308	80.0	3	-1.0	-1.0	27.2513	955.0	2.0	Certain	-2.25	0.3	0.0	No	n/a	-2.54662136655342	n/a	n/a	n/a	ShowChoice	Mixed
425.116	1.0	0.016	1488.324	80.0	3	-1.0	-1.0	27.2513	955.0	2.0	Certain	-2.25	0.3	0.0	No	n/a	-2.54662136655342	n/a	n/a	n/a	ShowResult	Mixed
426.132	3.336	0.016	1489.34	80.0	3	-1.0	-1.0	27.2513	955.0	2.0	Certain	-2.25	0.3	0.0	No	n/a	-2.54662136655342	n/a	n/a	n/a	ISITrial	Mixed
429.497	3.0	0.029	1492.705	81.0	3	13.5	-2.62	28.9388	955.0	2.8	Outcome2	-5.23	13.5	3.92375	Yes	2.0	18.7259343148358	1.722	431.219	n/a	GetAnswer	Loss
431.23	4.0	0.011	1494.438	81.0	3	13.5	-2.62	28.9388	955.0	2.8	Outcome2	-5.23	13.5	3.92375	Yes	n/a	18.7259343148358	n/a	n/a	n/a	ShowChoice	Loss
435.245	1.0	0.015	1498.453	81.0	3	13.5	-2.62	28.9388	955.0	2.8	Outcome2	-5.23	13.5	3.92375	Yes	n/a	18.7259343148358	n/a	n/a	n/a	ShowResult	Loss
436.262	3.919	0.017	1499.47	81.0	3	13.5	-2.62	28.9388	955.0	2.8	Outcome2	-5.23	13.5	3.92375	Yes	n/a	18.7259343148358	n/a	n/a	n/a	ISITrial	Loss
440.194	3.924	0.013	1503.402	81.0	3	13.5	-2.62	28.9388	955.0	2.8	Outcome2	-5.23	13.5	3.92375	Yes	n/a	18.7259343148358	n/a	n/a	n/a	TrialHappPreview	Loss
444.142	4.015	0.024	1507.35	81.0	3	13.5	-2.62	28.9388	955.0	2.8	Outcome2	-5.23	13.5	3.92375	Yes	n/a	18.7259343148358	n/a	n/a	600.0	TrialHappiness	Loss
444.143	1.449	n/a	1508.308	81.0	3	13.5	-2.62	28.9388	955.0	2.8	Outcome2	-5.23	13.5	3.92375	Yes	n/a	18.7259343148358	n/a	n/a	600.0	TrialHappinessSliderResponse	Loss
448.157	7.695	4.015	1511.365	81.0	3	13.5	-2.62	28.9388	955.0	2.8	Outcome2	-5.23	13.5	3.92375	Yes	n/a	18.7259343148358	n/a	n/a	n/a	ISIRate	Loss
455.871	3.0	0.019	1519.079	n/a	3	n/a	n/a	n/a	n/a	n/a	n/a	n/a	n/a	n/a	n/a	n/a	n/a	n/a	n/a	n/a	CurrentEarnings	n/a
458.887	-0.001	0.016	1522.095	n/a	3	n/a	n/a	n/a	n/a	n/a	n/a	n/a	n/a	n/a	n/a	4.0	n/a	74.168	533.055	n/a	Goodbye	n/a
