onset	duration	onset_delay	onset_unadjusted	trial_number	block	amount_change	certain_amount	current_amount	mood_target	multiplier	outcome	outcome1_amount	outcome2_amount	question_duration	rating	response	rpe	rt	rt_time	slider_response	trial_phase	trial_type
-44.668	-0.001	0.022	28.039	n/a	0	n/a	n/a	n/a	n/a	n/a	n/a	n/a	n/a	n/a	n/a	2.0	n/a	8.525	-36.143	n/a	Welcome	n/a
-36.121	5.0	0.022	36.586	n/a	0	n/a	n/a	n/a	n/a	n/a	n/a	n/a	n/a	n/a	n/a	n/a	n/a	n/a	n/a	n/a	LifeHappyPreview	n/a
-31.089	4.864	0.032	41.618	n/a	0	n/a	n/a	n/a	n/a	n/a	n/a	n/a	n/a	n/a	n/a	n/a	n/a	n/a	n/a	692.0	LifeHappiness	n/a
-31.088	3.124	n/a	43.359	n/a	0	n/a	n/a	n/a	n/a	n/a	n/a	n/a	n/a	n/a	n/a	n/a	n/a	n/a	n/a	692.0	LifeHappinessSliderResponse	n/a
-20.992	4.0	0.027	51.715	n/a	0	n/a	n/a	n/a	n/a	n/a	n/a	n/a	n/a	n/a	n/a	n/a	n/a	n/a	n/a	n/a	BlockHappyPreview	n/a
-16.977	2.674	0.015	55.73	n/a	0	n/a	n/a	n/a	n/a	n/a	n/a	n/a	n/a	n/a	n/a	n/a	n/a	n/a	n/a	700.0	BlockStartHappiness	n/a
-16.977	2.619	n/a	55.785	n/a	0	n/a	n/a	n/a	n/a	n/a	n/a	n/a	n/a	n/a	n/a	n/a	n/a	n/a	n/a	700.0	BlockStartHappinessSliderResponse	n/a
-5.914	-0.001	0.022	66.793	n/a	0	n/a	n/a	n/a	n/a	n/a	n/a	n/a	n/a	n/a	n/a	5.0	n/a	5.889	-0.025	n/a	ScanWait	n/a
0.0	10.0	0.025	72.707	n/a	1	n/a	n/a	n/a	n/a	n/a	n/a	n/a	n/a	n/a	n/a	n/a	n/a	n/a	n/a	n/a	GetReady	n/a
10.03	3.0	0.03	82.737	1.0	1	8.67	4.34	11.0838	955.0	3.16	Outcome1	8.67	9.7	0.0	No	2.0	-1.03482446206116	1.311	11.341	n/a	GetAnswer	Gain
11.363	4.0	0.022	84.07	1.0	1	8.67	4.34	11.0838	955.0	3.16	Outcome1	8.67	9.7	0.0	No	n/a	-1.03482446206116	n/a	n/a	n/a	ShowChoice	Gain
15.378	1.0	0.015	88.085	1.0	1	8.67	4.34	11.0838	955.0	3.16	Outcome1	8.67	9.7	0.0	No	n/a	-1.03482446206116	n/a	n/a	n/a	ShowResult	Gain
16.394	2.431	0.016	89.101	1.0	1	8.67	4.34	11.0838	955.0	3.16	Outcome1	8.67	9.7	0.0	No	n/a	-1.03482446206116	n/a	n/a	n/a	ISITrial	Gain
18.844	3.0	0.019	91.551	2.0	1	10.1	2.74	12.3463	955.0	4.2	Outcome2	5.48	10.1	0.0	No	2.0	4.62061155152888	1.16	20.004	n/a	GetAnswer	Gain
20.027	4.0	0.023	92.734	2.0	1	10.1	2.74	12.3463	955.0	4.2	Outcome2	5.48	10.1	0.0	No	n/a	4.62061155152888	n/a	n/a	n/a	ShowChoice	Gain
24.042	1.0	0.015	96.749	2.0	1	10.1	2.74	12.3463	955.0	4.2	Outcome2	5.48	10.1	0.0	No	n/a	4.62061155152888	n/a	n/a	n/a	ShowResult	Gain
25.058	4.568	0.016	97.765	2.0	1	10.1	2.74	12.3463	955.0	4.2	Outcome2	5.48	10.1	0.0	No	n/a	4.62061155152888	n/a	n/a	n/a	ISITrial	Gain
29.657	3.0	0.031	102.364	3.0	1	12.5	3.8	13.9088	955.0	1.68	Outcome2	7.59	12.5	2.868	Yes	2.0	4.9093997734994295	1.359	31.016	n/a	GetAnswer	Loss
31.039	4.0	0.023	103.746	3.0	1	12.5	3.8	13.9088	955.0	1.68	Outcome2	7.59	12.5	2.868	Yes	n/a	4.9093997734994295	n/a	n/a	n/a	ShowChoice	Loss
35.055	1.0	0.016	107.762	3.0	1	12.5	3.8	13.9088	955.0	1.68	Outcome2	7.59	12.5	2.868	Yes	n/a	4.9093997734994295	n/a	n/a	n/a	ShowResult	Loss
36.071	3.243	0.016	108.778	3.0	1	12.5	3.8	13.9088	955.0	1.68	Outcome2	7.59	12.5	2.868	Yes	n/a	4.9093997734994295	n/a	n/a	n/a	ISITrial	Loss
39.336	2.868	0.022	112.043	3.0	1	12.5	3.8	13.9088	955.0	1.68	Outcome2	7.59	12.5	2.868	Yes	n/a	4.9093997734994295	n/a	n/a	n/a	TrialHappPreview	Loss
42.219	4.015	0.015	114.926	3.0	1	12.5	3.8	13.9088	955.0	1.68	Outcome2	7.59	12.5	2.868	Yes	n/a	4.9093997734994295	n/a	n/a	688.0	TrialHappiness	Loss
42.219	0.512	n/a	115.836	3.0	1	12.5	3.8	13.9088	955.0	1.68	Outcome2	7.59	12.5	2.868	Yes	n/a	4.9093997734994295	n/a	n/a	688.0	TrialHappinessSliderResponse	Loss
46.234	3.472	4.015	118.941	3.0	1	12.5	3.8	13.9088	955.0	1.68	Outcome2	7.59	12.5	2.868	Yes	n/a	4.9093997734994295	n/a	n/a	n/a	ISIRate	Loss
49.733	3.0	0.027	122.44	4.0	1	0.7	-2.0	13.9963	955.0	0.3	Outcome1	0.7	-4.7	0.0	No	2.0	5.40203850509626	1.394	51.127	n/a	GetAnswer	Mixed
51.149	4.0	0.022	123.856	4.0	1	0.7	-2.0	13.9963	955.0	0.3	Outcome1	0.7	-4.7	0.0	No	n/a	5.40203850509626	n/a	n/a	n/a	ShowChoice	Mixed
55.164	1.0	0.015	127.871	4.0	1	0.7	-2.0	13.9963	955.0	0.3	Outcome1	0.7	-4.7	0.0	No	n/a	5.40203850509626	n/a	n/a	n/a	ShowResult	Mixed
56.181	2.011	0.017	128.888	4.0	1	0.7	-2.0	13.9963	955.0	0.3	Outcome1	0.7	-4.7	0.0	No	n/a	5.40203850509626	n/a	n/a	n/a	ISITrial	Mixed
58.213	3.0	0.021	130.92	5.0	1	1.0	1.0	14.1213	955.0	2.0	Certain	-1.4	4.3	2.5825	Yes	4.0	5.7044167610419	1.84	60.053	n/a	GetAnswer	Mixed
60.079	4.0	0.026	132.786	5.0	1	1.0	1.0	14.1213	955.0	2.0	Certain	-1.4	4.3	2.5825	Yes	n/a	5.7044167610419	n/a	n/a	n/a	ShowChoice	Mixed
64.095	1.0	0.016	136.802	5.0	1	1.0	1.0	14.1213	955.0	2.0	Certain	-1.4	4.3	2.5825	Yes	n/a	5.7044167610419	n/a	n/a	n/a	ShowResult	Mixed
65.111	5.129	0.016	137.818	5.0	1	1.0	1.0	14.1213	955.0	2.0	Certain	-1.4	4.3	2.5825	Yes	n/a	5.7044167610419	n/a	n/a	n/a	ISITrial	Mixed
70.259	2.582	0.019	142.966	5.0	1	1.0	1.0	14.1213	955.0	2.0	Certain	-1.4	4.3	2.5825	Yes	n/a	5.7044167610419	n/a	n/a	n/a	TrialHappPreview	Mixed
72.858	4.015	0.017	145.565	5.0	1	1.0	1.0	14.1213	955.0	2.0	Certain	-1.4	4.3	2.5825	Yes	n/a	5.7044167610419	n/a	n/a	700.0	TrialHappiness	Mixed
72.859	1.177	n/a	146.178	5.0	1	1.0	1.0	14.1213	955.0	2.0	Certain	-1.4	4.3	2.5825	Yes	n/a	5.7044167610419	n/a	n/a	700.0	TrialHappinessSliderResponse	Mixed
76.873	2.33	4.015	149.58	5.0	1	1.0	1.0	14.1213	955.0	2.0	Certain	-1.4	4.3	2.5825	Yes	n/a	5.7044167610419	n/a	n/a	n/a	ISIRate	Mixed
79.223	3.0	0.02	151.93	6.0	1	-4.0	-4.0	13.6213	955.0	0.4	Certain	-1.1	-6.9	0.0	No	4.0	5.802944507361269	2.316	81.539	n/a	GetAnswer	Mixed
81.555	4.0	0.016	154.262	6.0	1	-4.0	-4.0	13.6213	955.0	0.4	Certain	-1.1	-6.9	0.0	No	n/a	5.802944507361269	n/a	n/a	n/a	ShowChoice	Mixed
85.57	1.0	0.015	158.277	6.0	1	-4.0	-4.0	13.6213	955.0	0.4	Certain	-1.1	-6.9	0.0	No	n/a	5.802944507361269	n/a	n/a	n/a	ShowResult	Mixed
86.587	6.232	0.017	159.294	6.0	1	-4.0	-4.0	13.6213	955.0	0.4	Certain	-1.1	-6.9	0.0	No	n/a	5.802944507361269	n/a	n/a	n/a	ISITrial	Mixed
92.834	3.0	0.015	165.541	7.0	1	2.3	0.0	13.9088	955.0	2.0	Outcome2	-3.79	2.3	0.0	No	2.0	6.09173272933182	1.331	94.165	n/a	GetAnswer	Mixed
94.184	4.0	0.019	166.891	7.0	1	2.3	0.0	13.9088	955.0	2.0	Outcome2	-3.79	2.3	0.0	No	n/a	6.09173272933182	n/a	n/a	n/a	ShowChoice	Mixed
98.199	1.0	0.015	170.906	7.0	1	2.3	0.0	13.9088	955.0	2.0	Outcome2	-3.79	2.3	0.0	No	n/a	6.09173272933182	n/a	n/a	n/a	ShowResult	Mixed
99.216	2.305	0.017	171.923	7.0	1	2.3	0.0	13.9088	955.0	2.0	Outcome2	-3.79	2.3	0.0	No	n/a	6.09173272933182	n/a	n/a	n/a	ISITrial	Mixed
101.548	3.0	0.027	174.255	8.0	1	-3.0	-3.0	13.5338	955.0	0.82	Certain	-6.88	-0.5	3.1125	Yes	4.0	6.38052095130238	1.734	103.282	n/a	GetAnswer	Mixed
103.298	4.0	0.016	176.005	8.0	1	-3.0	-3.0	13.5338	955.0	0.82	Certain	-6.88	-0.5	3.1125	Yes	n/a	6.38052095130238	n/a	n/a	n/a	ShowChoice	Mixed
107.313	1.0	0.015	180.02	8.0	1	-3.0	-3.0	13.5338	955.0	0.82	Certain	-6.88	-0.5	3.1125	Yes	n/a	6.38052095130238	n/a	n/a	n/a	ShowResult	Mixed
108.329	3.506	0.016	181.036	8.0	1	-3.0	-3.0	13.5338	955.0	0.82	Certain	-6.88	-0.5	3.1125	Yes	n/a	6.38052095130238	n/a	n/a	n/a	ISITrial	Mixed
111.861	3.112	0.026	184.568	8.0	1	-3.0	-3.0	13.5338	955.0	0.82	Certain	-6.88	-0.5	3.1125	Yes	n/a	6.38052095130238	n/a	n/a	n/a	TrialHappPreview	Mixed
114.993	4.016	0.02	187.7	8.0	1	-3.0	-3.0	13.5338	955.0	0.82	Certain	-6.88	-0.5	3.1125	Yes	n/a	6.38052095130238	n/a	n/a	676.0	TrialHappiness	Mixed
114.994	3.078	n/a	188.213	8.0	1	-3.0	-3.0	13.5338	955.0	0.82	Certain	-6.88	-0.5	3.1125	Yes	n/a	6.38052095130238	n/a	n/a	676.0	TrialHappinessSliderResponse	Mixed
119.009	4.45	4.016	191.716	8.0	1	-3.0	-3.0	13.5338	955.0	0.82	Certain	-6.88	-0.5	3.1125	Yes	n/a	6.38052095130238	n/a	n/a	n/a	ISIRate	Mixed
123.49	3.0	0.031	196.197	9.0	1	13.7	3.31	15.2463	955.0	3.16	Outcome1	13.7	6.62	0.0	No	2.0	7.077010192525481	1.756	125.246	n/a	GetAnswer	Loss
125.273	4.0	0.027	197.98	9.0	1	13.7	3.31	15.2463	955.0	3.16	Outcome1	13.7	6.62	0.0	No	n/a	7.077010192525481	n/a	n/a	n/a	ShowChoice	Loss
129.288	1.0	0.015	201.995	9.0	1	13.7	3.31	15.2463	955.0	3.16	Outcome1	13.7	6.62	0.0	No	n/a	7.077010192525481	n/a	n/a	n/a	ShowResult	Loss
130.305	2.0	0.017	203.012	9.0	1	13.7	3.31	15.2463	955.0	3.16	Outcome1	13.7	6.62	0.0	No	n/a	7.077010192525481	n/a	n/a	n/a	ISITrial	Loss
132.321	3.0	0.016	205.028	10.0	1	0.9	-3.0	15.3588	955.0	0.4	Outcome1	0.9	-6.49	4.0	Yes	2.0	7.39297848244621	1.401	133.722	n/a	GetAnswer	Mixed
133.737	4.0	0.015	206.444	10.0	1	0.9	-3.0	15.3588	955.0	0.4	Outcome1	0.9	-6.49	4.0	Yes	n/a	7.39297848244621	n/a	n/a	n/a	ShowChoice	Mixed
137.752	1.0	0.015	210.459	10.0	1	0.9	-3.0	15.3588	955.0	0.4	Outcome1	0.9	-6.49	4.0	Yes	n/a	7.39297848244621	n/a	n/a	n/a	ShowResult	Mixed
138.768	2.0	0.016	211.475	10.0	1	0.9	-3.0	15.3588	955.0	0.4	Outcome1	0.9	-6.49	4.0	Yes	n/a	7.39297848244621	n/a	n/a	n/a	ISITrial	Mixed
140.784	4.0	0.016	213.491	10.0	1	0.9	-3.0	15.3588	955.0	0.4	Outcome1	0.9	-6.49	4.0	Yes	n/a	7.39297848244621	n/a	n/a	n/a	TrialHappPreview	Mixed
144.8	4.015	0.016	217.507	10.0	1	0.9	-3.0	15.3588	955.0	0.4	Outcome1	0.9	-6.49	4.0	Yes	n/a	7.39297848244621	n/a	n/a	696.0	TrialHappiness	Mixed
144.8	2.146	n/a	218.0	10.0	1	0.9	-3.0	15.3588	955.0	0.4	Outcome1	0.9	-6.49	4.0	Yes	n/a	7.39297848244621	n/a	n/a	696.0	TrialHappinessSliderResponse	Mixed
148.815	8.0	4.015	221.522	10.0	1	0.9	-3.0	15.3588	955.0	0.4	Outcome1	0.9	-6.49	4.0	Yes	n/a	7.39297848244621	n/a	n/a	n/a	ISIRate	Mixed
156.845	3.0	0.03	229.552	11.0	1	10.4	5.2	16.6588	955.0	3.16	Outcome2	11.7	10.4	0.0	No	2.0	-1.29850887127218	1.022	157.867	n/a	GetAnswer	Loss
157.878	4.0	0.011	230.585	11.0	1	10.4	5.2	16.6588	955.0	3.16	Outcome2	11.7	10.4	0.0	No	n/a	-1.29850887127218	n/a	n/a	n/a	ShowChoice	Loss
161.894	1.0	0.016	234.601	11.0	1	10.4	5.2	16.6588	955.0	3.16	Outcome2	11.7	10.4	0.0	No	n/a	-1.29850887127218	n/a	n/a	n/a	ShowResult	Loss
162.91	3.324	0.016	235.617	11.0	1	10.4	5.2	16.6588	955.0	3.16	Outcome2	11.7	10.4	0.0	No	n/a	-1.29850887127218	n/a	n/a	n/a	ISITrial	Loss
166.259	3.0	0.025	238.966	12.0	1	3.38	1.69	17.0813	955.0	1.82	Outcome2	4.7	3.38	2.61875	Yes	2.0	-1.32295205738014	1.047	167.306	n/a	GetAnswer	Gain
167.325	4.0	0.019	240.032	12.0	1	3.38	1.69	17.0813	955.0	1.82	Outcome2	4.7	3.38	2.61875	Yes	n/a	-1.32295205738014	n/a	n/a	n/a	ShowChoice	Gain
171.34	1.0	0.015	244.047	12.0	1	3.38	1.69	17.0813	955.0	1.82	Outcome2	4.7	3.38	2.61875	Yes	n/a	-1.32295205738014	n/a	n/a	n/a	ShowResult	Gain
172.357	6.642	0.017	245.064	12.0	1	3.38	1.69	17.0813	955.0	1.82	Outcome2	4.7	3.38	2.61875	Yes	n/a	-1.32295205738014	n/a	n/a	n/a	ISITrial	Gain
179.021	2.619	0.022	251.728	12.0	1	3.38	1.69	17.0813	955.0	1.82	Outcome2	4.7	3.38	2.61875	Yes	n/a	-1.32295205738014	n/a	n/a	n/a	TrialHappPreview	Gain
181.67	4.015	0.03	254.377	12.0	1	3.38	1.69	17.0813	955.0	1.82	Outcome2	4.7	3.38	2.61875	Yes	n/a	-1.32295205738014	n/a	n/a	696.0	TrialHappiness	Gain
181.671	0.521	n/a	254.862	12.0	1	3.38	1.69	17.0813	955.0	1.82	Outcome2	4.7	3.38	2.61875	Yes	n/a	-1.32295205738014	n/a	n/a	696.0	TrialHappinessSliderResponse	Gain
185.685	2.475	4.015	258.392	12.0	1	3.38	1.69	17.0813	955.0	1.82	Outcome2	4.7	3.38	2.61875	Yes	n/a	-1.32295205738014	n/a	n/a	n/a	ISIRate	Gain
188.185	3.0	0.025	260.892	13.0	1	1.0	1.0	17.2063	955.0	2.22	Certain	5.1	-2.86	0.0	No	4.0	7.95583238958097	2.138	190.323	n/a	GetAnswer	Gain
190.35	4.0	0.027	263.057	13.0	1	1.0	1.0	17.2063	955.0	2.22	Certain	5.1	-2.86	0.0	No	n/a	7.95583238958097	n/a	n/a	n/a	ShowChoice	Gain
194.366	1.0	0.016	267.073	13.0	1	1.0	1.0	17.2063	955.0	2.22	Certain	5.1	-2.86	0.0	No	n/a	7.95583238958097	n/a	n/a	n/a	ShowResult	Gain
195.382	3.48	0.016	268.089	13.0	1	1.0	1.0	17.2063	955.0	2.22	Certain	5.1	-2.86	0.0	No	n/a	7.95583238958097	n/a	n/a	n/a	ISITrial	Gain
198.881	3.0	0.019	271.588	14.0	1	1.53	2.0	17.3975	955.0	0.4	Outcome2	2.9	1.53	0.0	No	2.0	-1.37183842959607	1.284	200.165	n/a	GetAnswer	Mixed
200.18	4.0	0.015	272.887	14.0	1	1.53	2.0	17.3975	955.0	0.4	Outcome2	2.9	1.53	0.0	No	n/a	-1.37183842959607	n/a	n/a	n/a	ShowChoice	Mixed
204.196	1.0	0.016	276.903	14.0	1	1.53	2.0	17.3975	955.0	0.4	Outcome2	2.9	1.53	0.0	No	n/a	-1.37183842959607	n/a	n/a	n/a	ShowResult	Mixed
205.212	5.019	0.016	277.919	14.0	1	1.53	2.0	17.3975	955.0	0.4	Outcome2	2.9	1.53	0.0	No	n/a	-1.37183842959607	n/a	n/a	n/a	ISITrial	Mixed
210.26	3.0	0.029	282.967	15.0	1	8.5	-0.02	18.46	955.0	1.68	Outcome2	-0.04	8.5	3.3485	Yes	2.0	8.542468856172139	1.747	212.007	n/a	GetAnswer	Gain
212.026	4.0	0.019	284.733	15.0	1	8.5	-0.02	18.46	955.0	1.68	Outcome2	-0.04	8.5	3.3485	Yes	n/a	8.542468856172139	n/a	n/a	n/a	ShowChoice	Gain
216.042	1.0	0.016	288.749	15.0	1	8.5	-0.02	18.46	955.0	1.68	Outcome2	-0.04	8.5	3.3485	Yes	n/a	8.542468856172139	n/a	n/a	n/a	ShowResult	Gain
217.058	7.614	0.016	289.765	15.0	1	8.5	-0.02	18.46	955.0	1.68	Outcome2	-0.04	8.5	3.3485	Yes	n/a	8.542468856172139	n/a	n/a	n/a	ISITrial	Gain
224.688	3.348	0.016	297.395	15.0	1	8.5	-0.02	18.46	955.0	1.68	Outcome2	-0.04	8.5	3.3485	Yes	n/a	8.542468856172139	n/a	n/a	n/a	TrialHappPreview	Gain
228.054	4.015	0.018	300.761	15.0	1	8.5	-0.02	18.46	955.0	1.68	Outcome2	-0.04	8.5	3.3485	Yes	n/a	8.542468856172139	n/a	n/a	680.0	TrialHappiness	Gain
228.055	3.028	n/a	301.632	15.0	1	8.5	-0.02	18.46	955.0	1.68	Outcome2	-0.04	8.5	3.3485	Yes	n/a	8.542468856172139	n/a	n/a	680.0	TrialHappinessSliderResponse	Gain
232.069	5.394	4.015	304.776	15.0	1	8.5	-0.02	18.46	955.0	1.68	Outcome2	-0.04	8.5	3.3485	Yes	n/a	8.542468856172139	n/a	n/a	n/a	ISIRate	Gain
237.484	3.0	0.021	310.191	16.0	1	2.0	2.0	18.71	955.0	2.0	Certain	-2.21	6.9	0.0	No	4.0	9.10758776896942	2.151	239.635	n/a	GetAnswer	Gain
239.65	4.0	0.015	312.357	16.0	1	2.0	2.0	18.71	955.0	2.0	Certain	-2.21	6.9	0.0	No	n/a	9.10758776896942	n/a	n/a	n/a	ShowChoice	Gain
243.665	1.0	0.015	316.372	16.0	1	2.0	2.0	18.71	955.0	2.0	Certain	-2.21	6.9	0.0	No	n/a	9.10758776896942	n/a	n/a	n/a	ShowResult	Gain
244.682	3.008	0.017	317.389	16.0	1	2.0	2.0	18.71	955.0	2.0	Certain	-2.21	6.9	0.0	No	n/a	9.10758776896942	n/a	n/a	n/a	ISITrial	Gain
247.714	3.0	0.024	320.421	17.0	1	0.0	0.0	18.71	955.0	1.5	Certain	4.1	-5.32	3.0415	Yes	4.0	9.41902604756512	1.278	248.992	n/a	GetAnswer	Mixed
249.013	4.0	0.021	321.72	17.0	1	0.0	0.0	18.71	955.0	1.5	Certain	4.1	-5.32	3.0415	Yes	n/a	9.41902604756512	n/a	n/a	n/a	ShowChoice	Mixed
253.029	1.0	0.016	325.736	17.0	1	0.0	0.0	18.71	955.0	1.5	Certain	4.1	-5.32	3.0415	Yes	n/a	9.41902604756512	n/a	n/a	n/a	ShowResult	Mixed
254.045	3.566	0.016	326.752	17.0	1	0.0	0.0	18.71	955.0	1.5	Certain	4.1	-5.32	3.0415	Yes	n/a	9.41902604756512	n/a	n/a	n/a	ISITrial	Mixed
257.627	3.042	0.016	330.334	17.0	1	0.0	0.0	18.71	955.0	1.5	Certain	4.1	-5.32	3.0415	Yes	n/a	9.41902604756512	n/a	n/a	n/a	TrialHappPreview	Mixed
260.693	4.032	0.024	333.4	17.0	1	0.0	0.0	18.71	955.0	1.5	Certain	4.1	-5.32	3.0415	Yes	n/a	9.41902604756512	n/a	n/a	756.0	TrialHappiness	Mixed
260.693	2.149	n/a	334.818	17.0	1	0.0	0.0	18.71	955.0	1.5	Certain	4.1	-5.32	3.0415	Yes	n/a	9.41902604756512	n/a	n/a	756.0	TrialHappinessSliderResponse	Mixed
264.725	4.166	4.032	337.432	17.0	1	0.0	0.0	18.71	955.0	1.5	Certain	4.1	-5.32	3.0415	Yes	n/a	9.41902604756512	n/a	n/a	n/a	ISIRate	Mixed
268.923	3.0	0.032	341.63	18.0	1	6.07	3.04	19.4688	955.0	2.48	Outcome1	6.07	7.3	0.0	No	2.0	-1.2291430728576798	2.562	271.485	n/a	GetAnswer	Gain
271.505	4.0	0.02	344.212	18.0	1	6.07	3.04	19.4688	955.0	2.48	Outcome1	6.07	7.3	0.0	No	n/a	-1.2291430728576798	n/a	n/a	n/a	ShowChoice	Gain
275.521	1.0	0.016	348.228	18.0	1	6.07	3.04	19.4688	955.0	2.48	Outcome1	6.07	7.3	0.0	No	n/a	-1.2291430728576798	n/a	n/a	n/a	ShowResult	Gain
276.537	6.787	0.016	349.244	18.0	1	6.07	3.04	19.4688	955.0	2.48	Outcome1	6.07	7.3	0.0	No	n/a	-1.2291430728576798	n/a	n/a	n/a	ISITrial	Gain
283.351	3.0	0.027	356.058	19.0	1	-1.3	-5.0	19.3063	955.0	0.3	Outcome1	-1.3	-9.96	0.0	No	2.0	8.6647791619479	1.296	284.647	n/a	GetAnswer	Mixed
284.668	4.0	0.021	357.375	19.0	1	-1.3	-5.0	19.3063	955.0	0.3	Outcome1	-1.3	-9.96	0.0	No	n/a	8.6647791619479	n/a	n/a	n/a	ShowChoice	Mixed
288.683	1.0	0.015	361.39	19.0	1	-1.3	-5.0	19.3063	955.0	0.3	Outcome1	-1.3	-9.96	0.0	No	n/a	8.6647791619479	n/a	n/a	n/a	ShowResult	Mixed
289.699	2.0	0.016	362.406	19.0	1	-1.3	-5.0	19.3063	955.0	0.3	Outcome1	-1.3	-9.96	0.0	No	n/a	8.6647791619479	n/a	n/a	n/a	ISITrial	Mixed
291.715	3.0	0.016	364.422	20.0	1	8.1	-0.4	20.3188	955.0	4.2	Outcome1	8.1	-0.79	2.92125	Yes	2.0	8.890147225368061	1.75	293.465	n/a	GetAnswer	Gain
293.481	4.0	0.016	366.188	20.0	1	8.1	-0.4	20.3188	955.0	4.2	Outcome1	8.1	-0.79	2.92125	Yes	n/a	8.890147225368061	n/a	n/a	n/a	ShowChoice	Gain
297.496	1.0	0.015	370.203	20.0	1	8.1	-0.4	20.3188	955.0	4.2	Outcome1	8.1	-0.79	2.92125	Yes	n/a	8.890147225368061	n/a	n/a	n/a	ShowResult	Gain
298.513	8.0	0.017	371.22	20.0	1	8.1	-0.4	20.3188	955.0	4.2	Outcome1	8.1	-0.79	2.92125	Yes	n/a	8.890147225368061	n/a	n/a	n/a	ISITrial	Gain
306.527	2.921	0.014	379.234	20.0	1	8.1	-0.4	20.3188	955.0	4.2	Outcome1	8.1	-0.79	2.92125	Yes	n/a	8.890147225368061	n/a	n/a	n/a	TrialHappPreview	Gain
309.476	4.015	0.028	382.183	20.0	1	8.1	-0.4	20.3188	955.0	4.2	Outcome1	8.1	-0.79	2.92125	Yes	2{-2}2{-2}2{-2}2{-2}2{-2}2{-2}2{-2}2{-2}2{-2}	8.890147225368061	3.455	312.931	712.0	TrialHappiness	Gain
309.476	2.798	n/a	382.84	20.0	1	8.1	-0.4	20.3188	955.0	4.2	Outcome1	8.1	-0.79	2.92125	Yes	n/a	8.890147225368061	n/a	n/a	712.0	TrialHappinessSliderResponse	Gain
313.491	3.685	4.015	386.198	20.0	1	8.1	-0.4	20.3188	955.0	4.2	Outcome1	8.1	-0.79	2.92125	Yes	n/a	8.890147225368061	n/a	n/a	n/a	ISIRate	Gain
317.206	3.0	0.03	389.913	21.0	1	1.04	2.0	20.4488	955.0	0.2	Outcome2	2.5	1.04	0.0	No	2.0	-1.46404303510759	1.27	318.476	n/a	GetAnswer	Mixed
318.489	4.0	0.013	391.196	21.0	1	1.04	2.0	20.4488	955.0	0.2	Outcome2	2.5	1.04	0.0	No	n/a	-1.46404303510759	n/a	n/a	n/a	ShowChoice	Mixed
322.504	1.0	0.015	395.211	21.0	1	1.04	2.0	20.4488	955.0	0.2	Outcome2	2.5	1.04	0.0	No	n/a	-1.46404303510759	n/a	n/a	n/a	ShowResult	Mixed
323.521	3.555	0.017	396.228	21.0	1	1.04	2.0	20.4488	955.0	0.2	Outcome2	2.5	1.04	0.0	No	n/a	-1.46404303510759	n/a	n/a	n/a	ISITrial	Mixed
327.103	3.0	0.027	399.81	22.0	1	12.7	1.28	22.0363	955.0	1.82	Outcome1	12.7	2.56	3.2195	Yes	2.0	10.1381653454134	1.236	328.339	n/a	GetAnswer	Loss
328.352	4.0	0.013	401.059	22.0	1	12.7	1.28	22.0363	955.0	1.82	Outcome1	12.7	2.56	3.2195	Yes	n/a	10.1381653454134	n/a	n/a	n/a	ShowChoice	Loss
332.368	1.0	0.016	405.075	22.0	1	12.7	1.28	22.0363	955.0	1.82	Outcome1	12.7	2.56	3.2195	Yes	n/a	10.1381653454134	n/a	n/a	n/a	ShowResult	Loss
333.384	6.793	0.016	406.091	22.0	1	12.7	1.28	22.0363	955.0	1.82	Outcome1	12.7	2.56	3.2195	Yes	n/a	10.1381653454134	n/a	n/a	n/a	ISITrial	Loss
340.198	3.22	0.021	412.905	22.0	1	12.7	1.28	22.0363	955.0	1.82	Outcome1	12.7	2.56	3.2195	Yes	n/a	10.1381653454134	n/a	n/a	n/a	TrialHappPreview	Loss
343.447	4.015	0.029	416.154	22.0	1	12.7	1.28	22.0363	955.0	1.82	Outcome1	12.7	2.56	3.2195	Yes	n/a	10.1381653454134	n/a	n/a	632.0	TrialHappiness	Loss
343.448	3.264	n/a	416.58	22.0	1	12.7	1.28	22.0363	955.0	1.82	Outcome1	12.7	2.56	3.2195	Yes	n/a	10.1381653454134	n/a	n/a	632.0	TrialHappinessSliderResponse	Loss
347.462	4.878	4.015	420.169	22.0	1	12.7	1.28	22.0363	955.0	1.82	Outcome1	12.7	2.56	3.2195	Yes	n/a	10.1381653454134	n/a	n/a	n/a	ISIRate	Loss
352.361	3.0	0.021	425.068	23.0	1	10.5	-0.64	23.3488	955.0	1.68	Outcome2	-1.27	10.5	0.0	No	2.0	11.7723669309173	1.166	353.527	n/a	GetAnswer	Loss
353.544	4.0	0.017	426.251	23.0	1	10.5	-0.64	23.3488	955.0	1.68	Outcome2	-1.27	10.5	0.0	No	n/a	11.7723669309173	n/a	n/a	n/a	ShowChoice	Loss
357.559	1.0	0.015	430.266	23.0	1	10.5	-0.64	23.3488	955.0	1.68	Outcome2	-1.27	10.5	0.0	No	n/a	11.7723669309173	n/a	n/a	n/a	ShowResult	Loss
358.575	8.0	0.016	431.282	23.0	1	10.5	-0.64	23.3488	955.0	1.68	Outcome2	-1.27	10.5	0.0	No	n/a	11.7723669309173	n/a	n/a	n/a	ISITrial	Loss
366.606	3.0	0.031	439.313	24.0	1	1.64	2.0	23.5538	955.0	0.82	Outcome1	1.64	3.5	3.255	Yes	2.0	-1.86504341260853	1.059	367.665	n/a	GetAnswer	Mixed
367.689	4.0	0.024	440.396	24.0	1	1.64	2.0	23.5538	955.0	0.82	Outcome1	1.64	3.5	3.255	Yes	n/a	-1.86504341260853	n/a	n/a	n/a	ShowChoice	Mixed
371.704	1.0	0.015	444.411	24.0	1	1.64	2.0	23.5538	955.0	0.82	Outcome1	1.64	3.5	3.255	Yes	n/a	-1.86504341260853	n/a	n/a	n/a	ShowResult	Mixed
372.72	2.0	0.016	445.427	24.0	1	1.64	2.0	23.5538	955.0	0.82	Outcome1	1.64	3.5	3.255	Yes	n/a	-1.86504341260853	n/a	n/a	n/a	ISITrial	Mixed
374.736	3.255	0.016	447.443	24.0	1	1.64	2.0	23.5538	955.0	0.82	Outcome1	1.64	3.5	3.255	Yes	n/a	-1.86504341260853	n/a	n/a	n/a	TrialHappPreview	Mixed
378.018	4.016	0.027	450.725	24.0	1	1.64	2.0	23.5538	955.0	0.82	Outcome1	1.64	3.5	3.255	Yes	n/a	-1.86504341260853	n/a	n/a	656.0	TrialHappiness	Mixed
378.019	3.057	n/a	451.225	24.0	1	1.64	2.0	23.5538	955.0	0.82	Outcome1	1.64	3.5	3.255	Yes	n/a	-1.86504341260853	n/a	n/a	656.0	TrialHappinessSliderResponse	Mixed
382.034	5.02	4.016	454.741	24.0	1	1.64	2.0	23.5538	955.0	0.82	Outcome1	1.64	3.5	3.255	Yes	n/a	-1.86504341260853	n/a	n/a	n/a	ISIRate	Mixed
387.082	3.0	0.028	459.789	25.0	1	8.1	4.05	24.5663	955.0	3.6	Outcome2	9.9	8.1	0.0	No	2.0	-1.7981313703284298	1.092	388.174	n/a	GetAnswer	Gain
388.198	4.0	0.024	460.905	25.0	1	8.1	4.05	24.5663	955.0	3.6	Outcome2	9.9	8.1	0.0	No	n/a	-1.7981313703284298	n/a	n/a	n/a	ShowChoice	Gain
392.213	1.0	0.015	464.92	25.0	1	8.1	4.05	24.5663	955.0	3.6	Outcome2	9.9	8.1	0.0	No	n/a	-1.7981313703284298	n/a	n/a	n/a	ShowResult	Gain
393.23	3.749	0.017	465.937	25.0	1	8.1	4.05	24.5663	955.0	3.6	Outcome2	9.9	8.1	0.0	No	n/a	-1.7981313703284298	n/a	n/a	n/a	ISITrial	Gain
396.995	3.0	0.016	469.702	26.0	1	11.9	-0.26	26.0538	955.0	3.6	Outcome1	11.9	-0.53	0.0	No	2.0	12.4348810872027	1.149	398.144	n/a	GetAnswer	Loss
398.161	4.0	0.017	470.868	26.0	1	11.9	-0.26	26.0538	955.0	3.6	Outcome1	11.9	-0.53	0.0	No	n/a	12.4348810872027	n/a	n/a	n/a	ShowChoice	Loss
402.177	1.0	0.016	474.884	26.0	1	11.9	-0.26	26.0538	955.0	3.6	Outcome1	11.9	-0.53	0.0	No	n/a	12.4348810872027	n/a	n/a	n/a	ShowResult	Loss
403.193	7.834	0.016	475.9	26.0	1	11.9	-0.26	26.0538	955.0	3.6	Outcome1	11.9	-0.53	0.0	No	n/a	12.4348810872027	n/a	n/a	n/a	ISITrial	Loss
411.057	3.0	0.03	483.764	27.0	1	-1.5	-8.0	25.8663	955.0	0.2	Outcome1	-1.5	-14.27	2.54975	Yes	2.0	12.7734994337486	1.215	412.272	n/a	GetAnswer	Mixed
412.29	4.0	0.018	484.997	27.0	1	-1.5	-8.0	25.8663	955.0	0.2	Outcome1	-1.5	-14.27	2.54975	Yes	n/a	12.7734994337486	n/a	n/a	n/a	ShowChoice	Mixed
416.305	1.0	0.015	489.012	27.0	1	-1.5	-8.0	25.8663	955.0	0.2	Outcome1	-1.5	-14.27	2.54975	Yes	n/a	12.7734994337486	n/a	n/a	n/a	ShowResult	Mixed
417.321	4.225	0.016	490.028	27.0	1	-1.5	-8.0	25.8663	955.0	0.2	Outcome1	-1.5	-14.27	2.54975	Yes	n/a	12.7734994337486	n/a	n/a	n/a	ISITrial	Mixed
421.57	2.55	0.024	494.277	27.0	1	-1.5	-8.0	25.8663	955.0	0.2	Outcome1	-1.5	-14.27	2.54975	Yes	n/a	12.7734994337486	n/a	n/a	n/a	TrialHappPreview	Mixed
424.136	4.015	0.016	496.843	27.0	1	-1.5	-8.0	25.8663	955.0	0.2	Outcome1	-1.5	-14.27	2.54975	Yes	n/a	12.7734994337486	n/a	n/a	664.0	TrialHappiness	Mixed
424.136	2.936	n/a	497.41	27.0	1	-1.5	-8.0	25.8663	955.0	0.2	Outcome1	-1.5	-14.27	2.54975	Yes	n/a	12.7734994337486	n/a	n/a	664.0	TrialHappinessSliderResponse	Mixed
428.151	2.199	4.015	500.858	27.0	1	-1.5	-8.0	25.8663	955.0	0.2	Outcome1	-1.5	-14.27	2.54975	Yes	n/a	12.7734994337486	n/a	n/a	n/a	ISIRate	Mixed
489.697	2.021	n/a	562.906	n/a	1	n/a	n/a	n/a	n/a	n/a	n/a	n/a	n/a	n/a	n/a	n/a	n/a	n/a	n/a	680.0	BlockStartHappinessSliderResponse	n/a
-94.35	-0.001	0.017	503.074	n/a	2	n/a	n/a	n/a	n/a	n/a	n/a	n/a	n/a	n/a	n/a	1	n/a	55.299	-39.051	n/a	Rest	n/a
-39.036	4.0	0.015	558.388	n/a	2	n/a	n/a	n/a	n/a	n/a	n/a	n/a	n/a	n/a	n/a	n/a	n/a	n/a	n/a	n/a	BlockHappyPreview	n/a
-35.021	2.523	0.015	562.403	n/a	2	n/a	n/a	n/a	n/a	n/a	n/a	n/a	n/a	n/a	n/a	n/a	n/a	n/a	n/a	680.0	BlockStartHappiness	n/a
-3.099	-0.001	0.012	594.325	n/a	2	n/a	n/a	n/a	n/a	n/a	n/a	n/a	n/a	n/a	n/a	5.0	n/a	3.077	-0.022	n/a	ScanWait	n/a
0.0	10.0	0.021	597.424	n/a	2	n/a	n/a	n/a	n/a	n/a	n/a	n/a	n/a	n/a	n/a	n/a	n/a	n/a	n/a	n/a	GetReady	n/a
10.013	3.0	0.013	607.437	28.0	2	1.98	0.0	26.1138	70.0	3.6	Outcome1	1.98	-0.5	0.0	No	2.0	2.47826908541194	1.418	11.431	n/a	GetAnswer	Gain
11.446	4.0	0.015	608.87	28.0	2	1.98	0.0	26.1138	70.0	3.6	Outcome1	1.98	-0.5	0.0	No	n/a	2.47826908541194	n/a	n/a	n/a	ShowChoice	Gain
15.461	1.0	0.015	612.885	28.0	2	1.98	0.0	26.1138	70.0	3.6	Outcome1	1.98	-0.5	0.0	No	n/a	2.47826908541194	n/a	n/a	n/a	ShowResult	Gain
16.478	3.575	0.017	613.902	28.0	2	1.98	0.0	26.1138	70.0	3.6	Outcome1	1.98	-0.5	0.0	No	n/a	2.47826908541194	n/a	n/a	n/a	ISITrial	Gain
20.076	3.0	0.023	617.5	29.0	2	-9.17	-3.0	24.9676	70.0	1.2	Outcome2	1.9	-9.17	3.529	Yes	2.0	-11.0657596371882	1.232	21.308	n/a	GetAnswer	Mixed
21.326	4.0	0.018	618.75	29.0	2	-9.17	-3.0	24.9676	70.0	1.2	Outcome2	1.9	-9.17	3.529	Yes	n/a	-11.0657596371882	n/a	n/a	n/a	ShowChoice	Mixed
25.341	1.0	0.015	622.765	29.0	2	-9.17	-3.0	24.9676	70.0	1.2	Outcome2	1.9	-9.17	3.529	Yes	n/a	-11.0657596371882	n/a	n/a	n/a	ShowResult	Mixed
26.358	3.955	0.017	623.782	29.0	2	-9.17	-3.0	24.9676	70.0	1.2	Outcome2	1.9	-9.17	3.529	Yes	n/a	-11.0657596371882	n/a	n/a	n/a	ISITrial	Mixed
30.34	3.529	0.027	627.764	29.0	2	-9.17	-3.0	24.9676	70.0	1.2	Outcome2	1.9	-9.17	3.529	Yes	n/a	-11.0657596371882	n/a	n/a	n/a	TrialHappPreview	Mixed
33.888	4.016	0.019	631.312	29.0	2	-9.17	-3.0	24.9676	70.0	1.2	Outcome2	1.9	-9.17	3.529	Yes	n/a	-11.0657596371882	n/a	n/a	588.0	TrialHappiness	Mixed
33.889	3.47	n/a	631.815	29.0	2	-9.17	-3.0	24.9676	70.0	1.2	Outcome2	1.9	-9.17	3.529	Yes	n/a	-11.0657596371882	n/a	n/a	588.0	TrialHappinessSliderResponse	Mixed
37.904	6.116	4.016	635.328	29.0	2	-9.17	-3.0	24.9676	70.0	1.2	Outcome2	1.9	-9.17	3.529	Yes	n/a	-11.0657596371882	n/a	n/a	n/a	ISIRate	Mixed
44.035	3.0	0.015	641.459	30.0	2	1.11	0.56	25.1064	70.0	2.48	Outcome2	11.3	1.11	0.0	No	2.0	-10.1927437641723	1.1	45.135	n/a	GetAnswer	Loss
45.151	4.0	0.016	642.575	30.0	2	1.11	0.56	25.1064	70.0	2.48	Outcome2	11.3	1.11	0.0	No	n/a	-10.1927437641723	n/a	n/a	n/a	ShowChoice	Loss
49.166	1.0	0.015	646.59	30.0	2	1.11	0.56	25.1064	70.0	2.48	Outcome2	11.3	1.11	0.0	No	n/a	-10.1927437641723	n/a	n/a	n/a	ShowResult	Loss
50.183	4.453	0.017	647.607	30.0	2	1.11	0.56	25.1064	70.0	2.48	Outcome2	11.3	1.11	0.0	No	n/a	-10.1927437641723	n/a	n/a	n/a	ISITrial	Loss
54.664	3.0	0.028	652.088	31.0	2	1.0	1.0	25.2314	70.0	5.0	Certain	6.3	-4.48	2.50325	Yes	4.0	-10.780045351473902	1.768	56.432	n/a	GetAnswer	Gain
56.447	4.0	0.015	653.871	31.0	2	1.0	1.0	25.2314	70.0	5.0	Certain	6.3	-4.48	2.50325	Yes	n/a	-10.780045351473902	n/a	n/a	n/a	ShowChoice	Gain
60.462	1.0	0.015	657.886	31.0	2	1.0	1.0	25.2314	70.0	5.0	Certain	6.3	-4.48	2.50325	Yes	n/a	-10.780045351473902	n/a	n/a	n/a	ShowResult	Gain
61.479	4.786	0.017	658.903	31.0	2	1.0	1.0	25.2314	70.0	5.0	Certain	6.3	-4.48	2.50325	Yes	n/a	-10.780045351473902	n/a	n/a	n/a	ISITrial	Gain
66.277	2.503	0.012	663.701	31.0	2	1.0	1.0	25.2314	70.0	5.0	Certain	6.3	-4.48	2.50325	Yes	n/a	-10.780045351473902	n/a	n/a	n/a	TrialHappPreview	Gain
68.809	4.016	0.029	666.233	31.0	2	1.0	1.0	25.2314	70.0	5.0	Certain	6.3	-4.48	2.50325	Yes	n/a	-10.780045351473902	n/a	n/a	608.0	TrialHappiness	Gain
68.81	2.399	n/a	667.592	31.0	2	1.0	1.0	25.2314	70.0	5.0	Certain	6.3	-4.48	2.50325	Yes	n/a	-10.780045351473902	n/a	n/a	608.0	TrialHappinessSliderResponse	Gain
72.825	2.013	4.016	670.249	31.0	2	1.0	1.0	25.2314	70.0	5.0	Certain	6.3	-4.48	2.50325	Yes	n/a	-10.780045351473902	n/a	n/a	n/a	ISIRate	Gain
74.857	3.0	0.019	672.281	32.0	2	-4.21	1.0	24.7052	70.0	2.8	Outcome1	-4.21	7.5	0.0	No	2.0	-11.7074829931973	2.162	77.019	n/a	GetAnswer	Gain
77.04	4.0	0.021	674.464	32.0	2	-4.21	1.0	24.7052	70.0	2.8	Outcome1	-4.21	7.5	0.0	No	n/a	-11.7074829931973	n/a	n/a	n/a	ShowChoice	Gain
81.055	1.0	0.015	678.479	32.0	2	-4.21	1.0	24.7052	70.0	2.8	Outcome1	-4.21	7.5	0.0	No	n/a	-11.7074829931973	n/a	n/a	n/a	ShowResult	Gain
82.072	2.0	0.017	679.496	32.0	2	-4.21	1.0	24.7052	70.0	2.8	Outcome1	-4.21	7.5	0.0	No	n/a	-11.7074829931973	n/a	n/a	n/a	ISITrial	Gain
84.104	3.0	0.032	681.528	33.0	2	-2.02	-1.01	24.4527	70.0	5.0	Outcome2	10.3	-2.02	0.0	No	2.0	-12.3174603174603	1.218	85.322	n/a	GetAnswer	Gain
85.337	4.0	0.015	682.761	33.0	2	-2.02	-1.01	24.4527	70.0	5.0	Outcome2	10.3	-2.02	0.0	No	n/a	-12.3174603174603	n/a	n/a	n/a	ShowChoice	Gain
89.352	1.0	0.015	686.776	33.0	2	-2.02	-1.01	24.4527	70.0	5.0	Outcome2	10.3	-2.02	0.0	No	n/a	-12.3174603174603	n/a	n/a	n/a	ShowResult	Gain
90.369	5.099	0.017	687.793	33.0	2	-2.02	-1.01	24.4527	70.0	5.0	Outcome2	10.3	-2.02	0.0	No	n/a	-12.3174603174603	n/a	n/a	n/a	ISITrial	Gain
95.484	3.0	0.016	692.908	34.0	2	-5.83	0.0	23.7239	70.0	2.22	Outcome2	7.1	-5.83	3.2315	Yes	2.0	-12.9274376417234	1.603	97.087	n/a	GetAnswer	Gain
97.1	4.0	0.013	694.524	34.0	2	-5.83	0.0	23.7239	70.0	2.22	Outcome2	7.1	-5.83	3.2315	Yes	n/a	-12.9274376417234	n/a	n/a	n/a	ShowChoice	Gain
101.115	1.0	0.015	698.539	34.0	2	-5.83	0.0	23.7239	70.0	2.22	Outcome2	7.1	-5.83	3.2315	Yes	n/a	-12.9274376417234	n/a	n/a	n/a	ShowResult	Gain
102.131	4.784	0.016	699.555	34.0	2	-5.83	0.0	23.7239	70.0	2.22	Outcome2	7.1	-5.83	3.2315	Yes	n/a	-12.9274376417234	n/a	n/a	n/a	ISITrial	Gain
106.93	3.232	0.015	704.354	34.0	2	-5.83	0.0	23.7239	70.0	2.22	Outcome2	7.1	-5.83	3.2315	Yes	n/a	-12.9274376417234	n/a	n/a	n/a	TrialHappPreview	Gain
110.178	4.016	0.016	707.602	34.0	2	-5.83	0.0	23.7239	70.0	2.22	Outcome2	7.1	-5.83	3.2315	Yes	n/a	-12.9274376417234	n/a	n/a	552.0	TrialHappiness	Gain
110.179	0.225	n/a	709.618	34.0	2	-5.83	0.0	23.7239	70.0	2.22	Outcome2	7.1	-5.83	3.2315	Yes	n/a	-12.9274376417234	n/a	n/a	552.0	TrialHappinessSliderResponse	Gain
114.194	4.926	4.016	711.618	34.0	2	-5.83	0.0	23.7239	70.0	2.22	Outcome2	7.1	-5.83	3.2315	Yes	n/a	-12.9274376417234	n/a	n/a	n/a	ISIRate	Gain
119.142	3.0	0.022	716.566	35.0	2	-3.48	-1.74	23.2889	70.0	2.22	Outcome1	-3.48	9.1	0.0	No	2.0	-12.585034013605402	2.524	121.666	n/a	GetAnswer	Gain
121.691	4.0	0.025	719.115	35.0	2	-3.48	-1.74	23.2889	70.0	2.22	Outcome1	-3.48	9.1	0.0	No	n/a	-12.585034013605402	n/a	n/a	n/a	ShowChoice	Gain
125.706	1.0	0.015	723.13	35.0	2	-3.48	-1.74	23.2889	70.0	2.22	Outcome1	-3.48	9.1	0.0	No	n/a	-12.585034013605402	n/a	n/a	n/a	ShowResult	Gain
126.723	2.098	0.017	724.147	35.0	2	-3.48	-1.74	23.2889	70.0	2.22	Outcome1	-3.48	9.1	0.0	No	n/a	-12.585034013605402	n/a	n/a	n/a	ISITrial	Gain
128.839	3.0	0.018	726.263	36.0	2	-7.63	-1.0	22.3351	70.0	2.8	Outcome2	5.5	-7.63	3.33575	Yes	2.0	-13.1315192743764	0.962	129.801	n/a	GetAnswer	Gain
129.822	4.0	0.021	727.246	36.0	2	-7.63	-1.0	22.3351	70.0	2.8	Outcome2	5.5	-7.63	3.33575	Yes	n/a	-13.1315192743764	n/a	n/a	n/a	ShowChoice	Gain
133.837	1.0	0.015	731.261	36.0	2	-7.63	-1.0	22.3351	70.0	2.8	Outcome2	5.5	-7.63	3.33575	Yes	n/a	-13.1315192743764	n/a	n/a	n/a	ShowResult	Gain
134.853	5.156	0.016	732.277	36.0	2	-7.63	-1.0	22.3351	70.0	2.8	Outcome2	5.5	-7.63	3.33575	Yes	n/a	-13.1315192743764	n/a	n/a	n/a	ISITrial	Gain
140.035	3.336	0.026	737.459	36.0	2	-7.63	-1.0	22.3351	70.0	2.8	Outcome2	5.5	-7.63	3.33575	Yes	n/a	-13.1315192743764	n/a	n/a	n/a	TrialHappPreview	Gain
143.4	4.015	0.029	740.824	36.0	2	-7.63	-1.0	22.3351	70.0	2.8	Outcome2	5.5	-7.63	3.33575	Yes	n/a	-13.1315192743764	n/a	n/a	560.0	TrialHappiness	Gain
143.401	0.248	n/a	741.5	36.0	2	-7.63	-1.0	22.3351	70.0	2.8	Outcome2	5.5	-7.63	3.33575	Yes	n/a	-13.1315192743764	n/a	n/a	560.0	TrialHappinessSliderResponse	Gain
147.415	5.343	4.015	744.839	36.0	2	-7.63	-1.0	22.3351	70.0	2.8	Outcome2	5.5	-7.63	3.33575	Yes	n/a	-13.1315192743764	n/a	n/a	n/a	ISIRate	Gain
152.78	3.0	0.022	750.204	37.0	2	-8.11	-1.0	21.3213	70.0	3.16	Outcome2	5.7	-8.11	0.0	No	2.0	-13.8140589569161	0.939	153.719	n/a	GetAnswer	Gain
153.747	4.0	0.028	751.171	37.0	2	-8.11	-1.0	21.3213	70.0	3.16	Outcome2	5.7	-8.11	0.0	No	n/a	-13.8140589569161	n/a	n/a	n/a	ShowChoice	Gain
157.762	1.0	0.015	755.186	37.0	2	-8.11	-1.0	21.3213	70.0	3.16	Outcome2	5.7	-8.11	0.0	No	n/a	-13.8140589569161	n/a	n/a	n/a	ShowResult	Gain
158.778	3.598	0.016	756.202	37.0	2	-8.11	-1.0	21.3213	70.0	3.16	Outcome2	5.7	-8.11	0.0	No	n/a	-13.8140589569161	n/a	n/a	n/a	ISITrial	Gain
162.393	3.0	0.017	759.817	38.0	2	0.0	0.0	21.3213	70.0	1.0	Certain	0.92	-1.57	0.0	No	4.0	2.4937641723356	1.109	163.502	n/a	GetAnswer	Mixed
163.526	4.0	0.024	760.95	38.0	2	0.0	0.0	21.3213	70.0	1.0	Certain	0.92	-1.57	0.0	No	n/a	2.4937641723356	n/a	n/a	n/a	ShowChoice	Mixed
167.542	1.0	0.016	764.966	38.0	2	0.0	0.0	21.3213	70.0	1.0	Certain	0.92	-1.57	0.0	No	n/a	2.4937641723356	n/a	n/a	n/a	ShowResult	Mixed
168.558	4.787	0.016	765.982	38.0	2	0.0	0.0	21.3213	70.0	1.0	Certain	0.92	-1.57	0.0	No	n/a	2.4937641723356	n/a	n/a	n/a	ISITrial	Mixed
173.373	3.0	0.028	770.797	39.0	2	-13.23	-6.0	19.6675	70.0	1.0	Outcome1	-13.23	1.7	2.86425	Yes	2.0	-14.925170068027198	1.033	174.406	n/a	GetAnswer	Mixed
174.423	4.0	0.017	771.847	39.0	2	-13.23	-6.0	19.6675	70.0	1.0	Outcome1	-13.23	1.7	2.86425	Yes	n/a	-14.925170068027198	n/a	n/a	n/a	ShowChoice	Mixed
178.438	1.0	0.015	775.862	39.0	2	-13.23	-6.0	19.6675	70.0	1.0	Outcome1	-13.23	1.7	2.86425	Yes	n/a	-14.925170068027198	n/a	n/a	n/a	ShowResult	Mixed
179.454	2.348	0.016	776.878	39.0	2	-13.23	-6.0	19.6675	70.0	1.0	Outcome1	-13.23	1.7	2.86425	Yes	n/a	-14.925170068027198	n/a	n/a	n/a	ISITrial	Mixed
181.82	2.864	0.018	779.244	39.0	2	-13.23	-6.0	19.6675	70.0	1.0	Outcome1	-13.23	1.7	2.86425	Yes	n/a	-14.925170068027198	n/a	n/a	n/a	TrialHappPreview	Mixed
184.702	4.016	0.018	782.126	39.0	2	-13.23	-6.0	19.6675	70.0	1.0	Outcome1	-13.23	1.7	2.86425	Yes	n/a	-14.925170068027198	n/a	n/a	512.0	TrialHappiness	Mixed
184.703	0.0	n/a	782.127	39.0	2	-13.23	-6.0	19.6675	70.0	1.0	Outcome1	-13.23	1.7	2.86425	Yes	n/a	-14.925170068027198	n/a	n/a	512.0	TrialHappinessSliderResponse	Mixed
188.718	3.457	4.016	786.142	39.0	2	-13.23	-6.0	19.6675	70.0	1.0	Outcome1	-13.23	1.7	2.86425	Yes	n/a	-14.925170068027198	n/a	n/a	n/a	ISIRate	Mixed
192.2	3.0	0.025	789.624	40.0	2	3.02	2.0	20.045	70.0	4.2	Outcome2	0.63	3.02	0.0	No	2.0	2.39134542705971	1.256	193.456	n/a	GetAnswer	Loss
193.483	4.0	0.027	790.907	40.0	2	3.02	2.0	20.045	70.0	4.2	Outcome2	0.63	3.02	0.0	No	n/a	2.39134542705971	n/a	n/a	n/a	ShowChoice	Loss
197.498	1.0	0.015	794.922	40.0	2	3.02	2.0	20.045	70.0	4.2	Outcome2	0.63	3.02	0.0	No	n/a	2.39134542705971	n/a	n/a	n/a	ShowResult	Loss
198.514	3.158	0.016	795.938	40.0	2	3.02	2.0	20.045	70.0	4.2	Outcome2	0.63	3.02	0.0	No	n/a	2.39134542705971	n/a	n/a	n/a	ISITrial	Loss
201.696	3.0	0.024	799.12	41.0	2	1.52	0.0	20.235	70.0	4.2	Outcome2	-0.91	1.52	4.0	Yes	2.0	2.4331065759637203	2.512	204.208	n/a	GetAnswer	Gain
204.229	4.0	0.021	801.653	41.0	2	1.52	0.0	20.235	70.0	4.2	Outcome2	-0.91	1.52	4.0	Yes	n/a	2.4331065759637203	n/a	n/a	n/a	ShowChoice	Gain
208.244	1.0	0.015	805.668	41.0	2	1.52	0.0	20.235	70.0	4.2	Outcome2	-0.91	1.52	4.0	Yes	n/a	2.4331065759637203	n/a	n/a	n/a	ShowResult	Gain
209.26	4.506	0.016	806.684	41.0	2	1.52	0.0	20.235	70.0	4.2	Outcome2	-0.91	1.52	4.0	Yes	n/a	2.4331065759637203	n/a	n/a	n/a	ISITrial	Gain
213.792	4.0	0.026	811.216	41.0	2	1.52	0.0	20.235	70.0	4.2	Outcome2	-0.91	1.52	4.0	Yes	n/a	2.4331065759637203	n/a	n/a	n/a	TrialHappPreview	Gain
217.824	4.015	0.032	815.248	41.0	2	1.52	0.0	20.235	70.0	4.2	Outcome2	-0.91	1.52	4.0	Yes	n/a	2.4331065759637203	n/a	n/a	512.0	TrialHappiness	Gain
217.825	0.0	n/a	819.168	41.0	2	1.52	0.0	20.235	70.0	4.2	Outcome2	-0.91	1.52	4.0	Yes	n/a	2.4331065759637203	n/a	n/a	512.0	TrialHappinessSliderResponse	Gain
221.839	8.0	4.015	819.263	41.0	2	1.52	0.0	20.235	70.0	4.2	Outcome2	-0.91	1.52	4.0	Yes	n/a	2.4331065759637203	n/a	n/a	n/a	ISIRate	Gain
229.87	3.0	0.031	827.294	42.0	2	-12.97	-5.0	18.6138	70.0	0.3	Outcome2	2.7	-12.97	0.0	No	2.0	-15.666666666666698	1.443	231.313	n/a	GetAnswer	Mixed
231.336	4.0	0.023	828.76	42.0	2	-12.97	-5.0	18.6138	70.0	0.3	Outcome2	2.7	-12.97	0.0	No	n/a	-15.666666666666698	n/a	n/a	n/a	ShowChoice	Mixed
235.351	1.0	0.015	832.775	42.0	2	-12.97	-5.0	18.6138	70.0	0.3	Outcome2	2.7	-12.97	0.0	No	n/a	-15.666666666666698	n/a	n/a	n/a	ShowResult	Mixed
236.368	6.248	0.017	833.792	42.0	2	-12.97	-5.0	18.6138	70.0	0.3	Outcome2	2.7	-12.97	0.0	No	n/a	-15.666666666666698	n/a	n/a	n/a	ISITrial	Mixed
242.649	3.0	0.033	840.073	43.0	2	0.52	0.0	18.6788	70.0	1.5	Outcome2	-2.0	0.52	2.77575	Yes	2.0	2.51662887377173	1.528	244.177	n/a	GetAnswer	Mixed
244.198	4.0	0.021	841.622	43.0	2	0.52	0.0	18.6788	70.0	1.5	Outcome2	-2.0	0.52	2.77575	Yes	n/a	2.51662887377173	n/a	n/a	n/a	ShowChoice	Mixed
248.214	1.0	0.016	845.638	43.0	2	0.52	0.0	18.6788	70.0	1.5	Outcome2	-2.0	0.52	2.77575	Yes	n/a	2.51662887377173	n/a	n/a	n/a	ShowResult	Mixed
249.23	4.596	0.016	846.654	43.0	2	0.52	0.0	18.6788	70.0	1.5	Outcome2	-2.0	0.52	2.77575	Yes	n/a	2.51662887377173	n/a	n/a	n/a	ISITrial	Mixed
253.845	2.776	0.019	851.269	43.0	2	0.52	0.0	18.6788	70.0	1.5	Outcome2	-2.0	0.52	2.77575	Yes	n/a	2.51662887377173	n/a	n/a	n/a	TrialHappPreview	Mixed
256.644	4.015	0.023	854.068	43.0	2	0.52	0.0	18.6788	70.0	1.5	Outcome2	-2.0	0.52	2.77575	Yes	n/a	2.51662887377173	n/a	n/a	532.0	TrialHappiness	Mixed
256.645	2.461	n/a	855.052	43.0	2	0.52	0.0	18.6788	70.0	1.5	Outcome2	-2.0	0.52	2.77575	Yes	n/a	2.51662887377173	n/a	n/a	532.0	TrialHappinessSliderResponse	Mixed
260.659	3.103	4.015	858.083	43.0	2	0.52	0.0	18.6788	70.0	1.5	Outcome2	-2.0	0.52	2.77575	Yes	n/a	2.51662887377173	n/a	n/a	n/a	ISIRate	Mixed
263.791	3.0	0.029	861.215	44.0	2	-16.71	-8.0	16.59	70.0	2.0	Outcome2	0.3	-16.71	0.0	No	2.0	-17.0090702947846	1.164	264.955	n/a	GetAnswer	Mixed
264.974	4.0	0.019	862.398	44.0	2	-16.71	-8.0	16.59	70.0	2.0	Outcome2	0.3	-16.71	0.0	No	n/a	-17.0090702947846	n/a	n/a	n/a	ShowChoice	Mixed
268.99	1.0	0.016	866.414	44.0	2	-16.71	-8.0	16.59	70.0	2.0	Outcome2	0.3	-16.71	0.0	No	n/a	-17.0090702947846	n/a	n/a	n/a	ShowResult	Mixed
270.006	2.42	0.016	867.43	44.0	2	-16.71	-8.0	16.59	70.0	2.0	Outcome2	0.3	-16.71	0.0	No	n/a	-17.0090702947846	n/a	n/a	n/a	ISITrial	Mixed
272.455	3.0	0.029	869.879	45.0	2	-8.03	0.0	15.5862	70.0	2.8	Outcome2	9.5	-8.03	0.0	No	2.0	-17.5328798185941	2.436	274.891	n/a	GetAnswer	Gain
274.921	4.0	0.03	872.345	45.0	2	-8.03	0.0	15.5862	70.0	2.8	Outcome2	9.5	-8.03	0.0	No	n/a	-17.5328798185941	n/a	n/a	n/a	ShowChoice	Gain
278.936	1.0	0.015	876.36	45.0	2	-8.03	0.0	15.5862	70.0	2.8	Outcome2	9.5	-8.03	0.0	No	n/a	-17.5328798185941	n/a	n/a	n/a	ShowResult	Gain
279.952	3.144	0.016	877.376	45.0	2	-8.03	0.0	15.5862	70.0	2.8	Outcome2	9.5	-8.03	0.0	No	n/a	-17.5328798185941	n/a	n/a	n/a	ISITrial	Gain
283.118	3.0	0.022	880.542	46.0	2	-18.96	-10.0	13.2162	70.0	0.52	Outcome2	-0.9	-18.96	3.84125	Yes	2.0	-18.0566893424036	0.885	284.003	n/a	GetAnswer	Mixed
284.018	4.0	0.015	881.442	46.0	2	-18.96	-10.0	13.2162	70.0	0.52	Outcome2	-0.9	-18.96	3.84125	Yes	n/a	-18.0566893424036	n/a	n/a	n/a	ShowChoice	Mixed
288.033	1.0	0.015	885.457	46.0	2	-18.96	-10.0	13.2162	70.0	0.52	Outcome2	-0.9	-18.96	3.84125	Yes	n/a	-18.0566893424036	n/a	n/a	n/a	ShowResult	Mixed
289.049	2.246	0.016	886.473	46.0	2	-18.96	-10.0	13.2162	70.0	0.52	Outcome2	-0.9	-18.96	3.84125	Yes	n/a	-18.0566893424036	n/a	n/a	n/a	ISITrial	Mixed
291.315	3.841	0.02	888.739	46.0	2	-18.96	-10.0	13.2162	70.0	0.52	Outcome2	-0.9	-18.96	3.84125	Yes	n/a	-18.0566893424036	n/a	n/a	n/a	TrialHappPreview	Mixed
295.181	4.015	0.025	892.605	46.0	2	-18.96	-10.0	13.2162	70.0	0.52	Outcome2	-0.9	-18.96	3.84125	Yes	n/a	-18.0566893424036	n/a	n/a	512.0	TrialHappiness	Mixed
295.181	0.0	n/a	892.605	46.0	2	-18.96	-10.0	13.2162	70.0	0.52	Outcome2	-0.9	-18.96	3.84125	Yes	n/a	-18.0566893424036	n/a	n/a	512.0	TrialHappinessSliderResponse	Mixed
299.196	7.365	4.015	896.62	46.0	2	-18.96	-10.0	13.2162	70.0	0.52	Outcome2	-0.9	-18.96	3.84125	Yes	n/a	-18.0566893424036	n/a	n/a	n/a	ISIRate	Mixed
306.593	3.0	0.032	904.017	47.0	2	0.38	-1.0	13.2637	70.0	0.82	Outcome1	0.38	-2.31	0.0	No	2.0	2.68934240362812	2.336	308.929	n/a	GetAnswer	Mixed
308.959	4.0	0.03	906.383	47.0	2	0.38	-1.0	13.2637	70.0	0.82	Outcome1	0.38	-2.31	0.0	No	n/a	2.68934240362812	n/a	n/a	n/a	ShowChoice	Mixed
312.974	1.0	0.015	910.398	47.0	2	0.38	-1.0	13.2637	70.0	0.82	Outcome1	0.38	-2.31	0.0	No	n/a	2.68934240362812	n/a	n/a	n/a	ShowResult	Mixed
313.991	2.0	0.017	911.415	47.0	2	0.38	-1.0	13.2637	70.0	0.82	Outcome1	0.38	-2.31	0.0	No	n/a	2.68934240362812	n/a	n/a	n/a	ISITrial	Mixed
316.023	3.0	0.032	913.447	48.0	2	-18.64	-9.0	10.9337	70.0	1.5	Outcome2	0.1	-18.64	2.83175	Yes	2.0	-18.7414965986395	1.347	317.37	n/a	GetAnswer	Mixed
317.389	4.0	0.019	914.813	48.0	2	-18.64	-9.0	10.9337	70.0	1.5	Outcome2	0.1	-18.64	2.83175	Yes	n/a	-18.7414965986395	n/a	n/a	n/a	ShowChoice	Mixed
321.405	1.0	0.016	918.829	48.0	2	-18.64	-9.0	10.9337	70.0	1.5	Outcome2	0.1	-18.64	2.83175	Yes	n/a	-18.7414965986395	n/a	n/a	n/a	ShowResult	Mixed
322.421	3.692	0.016	919.845	48.0	2	-18.64	-9.0	10.9337	70.0	1.5	Outcome2	0.1	-18.64	2.83175	Yes	n/a	-18.7414965986395	n/a	n/a	n/a	ISITrial	Mixed
326.136	2.832	0.023	923.56	48.0	2	-18.64	-9.0	10.9337	70.0	1.5	Outcome2	0.1	-18.64	2.83175	Yes	n/a	-18.7414965986395	n/a	n/a	n/a	TrialHappPreview	Mixed
328.985	4.016	0.017	926.409	48.0	2	-18.64	-9.0	10.9337	70.0	1.5	Outcome2	0.1	-18.64	2.83175	Yes	n/a	-18.7414965986395	n/a	n/a	512.0	TrialHappiness	Mixed
328.986	0.0	n/a	926.41	48.0	2	-18.64	-9.0	10.9337	70.0	1.5	Outcome2	0.1	-18.64	2.83175	Yes	n/a	-18.7414965986395	n/a	n/a	512.0	TrialHappinessSliderResponse	Mixed
333.001	3.327	4.016	930.425	48.0	2	-18.64	-9.0	10.9337	70.0	1.5	Outcome2	0.1	-18.64	2.83175	Yes	n/a	-18.7414965986395	n/a	n/a	n/a	ISIRate	Mixed
336.349	3.0	0.021	933.773	49.0	2	3.38	2.0	11.3562	70.0	2.8	Outcome2	0.61	3.38	0.0	No	2.0	2.77286470143613	2.692	339.041	n/a	GetAnswer	Loss
339.065	4.0	0.024	936.489	49.0	2	3.38	2.0	11.3562	70.0	2.8	Outcome2	0.61	3.38	0.0	No	n/a	2.77286470143613	n/a	n/a	n/a	ShowChoice	Loss
343.08	1.0	0.015	940.504	49.0	2	3.38	2.0	11.3562	70.0	2.8	Outcome2	0.61	3.38	0.0	No	n/a	2.77286470143613	n/a	n/a	n/a	ShowResult	Loss
344.097	8.0	0.017	941.521	49.0	2	3.38	2.0	11.3562	70.0	2.8	Outcome2	0.61	3.38	0.0	No	n/a	2.77286470143613	n/a	n/a	n/a	ISITrial	Loss
352.127	3.0	0.03	949.551	50.0	2	-7.44	2.0	10.4262	70.0	5.0	Outcome1	-7.44	12.3	3.54725	Yes	2.0	-19.7437641723356	2.236	354.363	n/a	GetAnswer	Loss
354.393	4.0	0.03	951.817	50.0	2	-7.44	2.0	10.4262	70.0	5.0	Outcome1	-7.44	12.3	3.54725	Yes	n/a	-19.7437641723356	n/a	n/a	n/a	ShowChoice	Loss
358.408	1.0	0.015	955.832	50.0	2	-7.44	2.0	10.4262	70.0	5.0	Outcome1	-7.44	12.3	3.54725	Yes	n/a	-19.7437641723356	n/a	n/a	n/a	ShowResult	Loss
359.425	7.537	0.017	956.849	50.0	2	-7.44	2.0	10.4262	70.0	5.0	Outcome1	-7.44	12.3	3.54725	Yes	n/a	-19.7437641723356	n/a	n/a	n/a	ISITrial	Loss
366.989	3.547	0.027	964.413	50.0	2	-7.44	2.0	10.4262	70.0	5.0	Outcome1	-7.44	12.3	3.54725	Yes	n/a	-19.7437641723356	n/a	n/a	n/a	TrialHappPreview	Loss
370.554	4.015	0.018	967.978	50.0	2	-7.44	2.0	10.4262	70.0	5.0	Outcome1	-7.44	12.3	3.54725	Yes	2{-2}4{-4}2{-2}	-19.7437641723356	2.963	373.517	520.0	TrialHappiness	Loss
370.555	2.214	n/a	968.728	50.0	2	-7.44	2.0	10.4262	70.0	5.0	Outcome1	-7.44	12.3	3.54725	Yes	n/a	-19.7437641723356	n/a	n/a	520.0	TrialHappinessSliderResponse	Loss
374.569	6.189	4.015	971.993	50.0	2	-7.44	2.0	10.4262	70.0	5.0	Outcome1	-7.44	12.3	3.54725	Yes	n/a	-19.7437641723356	n/a	n/a	n/a	ISIRate	Loss
380.784	3.0	0.026	978.208	51.0	2	-7.08	-3.54	9.5412	70.0	2.48	Outcome2	13.3	-7.08	0.0	No	2.0	-20.3809523809524	1.282	382.066	n/a	GetAnswer	Loss
382.084	4.0	0.018	979.508	51.0	2	-7.08	-3.54	9.5412	70.0	2.48	Outcome2	13.3	-7.08	0.0	No	n/a	-20.3809523809524	n/a	n/a	n/a	ShowChoice	Loss
386.099	1.0	0.015	983.523	51.0	2	-7.08	-3.54	9.5412	70.0	2.48	Outcome2	13.3	-7.08	0.0	No	n/a	-20.3809523809524	n/a	n/a	n/a	ShowResult	Loss
387.115	5.508	0.016	984.539	51.0	2	-7.08	-3.54	9.5412	70.0	2.48	Outcome2	13.3	-7.08	0.0	No	n/a	-20.3809523809524	n/a	n/a	n/a	ISITrial	Loss
392.647	3.0	0.024	990.071	52.0	2	0.0	0.0	9.5412	70.0	0.52	Certain	-2.15	0.78	0.0	No	4.0	2.93140589569161	1.423	394.07	n/a	GetAnswer	Mixed
394.096	4.0	0.026	991.52	52.0	2	0.0	0.0	9.5412	70.0	0.52	Certain	-2.15	0.78	0.0	No	n/a	2.93140589569161	n/a	n/a	n/a	ShowChoice	Mixed
398.111	1.0	0.015	995.535	52.0	2	0.0	0.0	9.5412	70.0	0.52	Certain	-2.15	0.78	0.0	No	n/a	2.93140589569161	n/a	n/a	n/a	ShowResult	Mixed
399.128	5.913	0.017	996.552	52.0	2	0.0	0.0	9.5412	70.0	0.52	Certain	-2.15	0.78	0.0	No	n/a	2.93140589569161	n/a	n/a	n/a	ISITrial	Mixed
405.059	3.0	0.018	1002.483	53.0	2	-16.1	-5.0	7.5287	70.0	2.48	Outcome2	5.3	-16.1	2.99675	Yes	2.0	-21.4013605442177	1.048	406.107	n/a	GetAnswer	Gain
406.125	4.0	0.018	1003.549	53.0	2	-16.1	-5.0	7.5287	70.0	2.48	Outcome2	5.3	-16.1	2.99675	Yes	n/a	-21.4013605442177	n/a	n/a	n/a	ShowChoice	Gain
410.14	1.0	0.015	1007.564	53.0	2	-16.1	-5.0	7.5287	70.0	2.48	Outcome2	5.3	-16.1	2.99675	Yes	n/a	-21.4013605442177	n/a	n/a	n/a	ShowResult	Gain
411.157	3.66	0.017	1008.581	53.0	2	-16.1	-5.0	7.5287	70.0	2.48	Outcome2	5.3	-16.1	2.99675	Yes	n/a	-21.4013605442177	n/a	n/a	n/a	ISITrial	Gain
414.839	2.997	0.022	1012.263	53.0	2	-16.1	-5.0	7.5287	70.0	2.48	Outcome2	5.3	-16.1	2.99675	Yes	n/a	-21.4013605442177	n/a	n/a	n/a	TrialHappPreview	Gain
417.854	4.016	0.018	1015.278	53.0	2	-16.1	-5.0	7.5287	70.0	2.48	Outcome2	5.3	-16.1	2.99675	Yes	n/a	-21.4013605442177	n/a	n/a	512.0	TrialHappiness	Gain
417.855	0.0	n/a	1015.279	53.0	2	-16.1	-5.0	7.5287	70.0	2.48	Outcome2	5.3	-16.1	2.99675	Yes	n/a	-21.4013605442177	n/a	n/a	512.0	TrialHappinessSliderResponse	Gain
421.87	3.987	4.016	1019.294	53.0	2	-16.1	-5.0	7.5287	70.0	2.48	Outcome2	5.3	-16.1	2.99675	Yes	n/a	-21.4013605442177	n/a	n/a	n/a	ISIRate	Gain
425.885	3.0	0.028	1023.309	54.0	2	3.48	2.0	7.9637	70.0	3.6	Outcome1	3.48	0.5	0.0	No	n/a	2.9839380196523	n/a	n/a	n/a	GetAnswer	Loss
428.901	4.0	0.016	1026.325	54.0	2	3.48	2.0	7.9637	70.0	3.6	Outcome1	3.48	0.5	0.0	No	n/a	2.9839380196523	n/a	n/a	n/a	ShowChoice	Loss
432.916	1.0	0.015	1030.34	54.0	2	3.48	2.0	7.9637	70.0	3.6	Outcome1	3.48	0.5	0.0	No	n/a	2.9839380196523	n/a	n/a	n/a	ShowResult	Loss
433.932	8.0	0.016	1031.356	54.0	2	3.48	2.0	7.9637	70.0	3.6	Outcome1	3.48	0.5	0.0	No	n/a	2.9839380196523	n/a	n/a	n/a	ISITrial	Loss
506.491	0.266	n/a	1107.588	n/a	2	n/a	n/a	n/a	n/a	n/a	n/a	n/a	n/a	n/a	n/a	n/a	n/a	n/a	n/a	568.0	BlockStartHappinessSliderResponse	n/a
-82.854	-0.001	0.031	1039.387	n/a	3	n/a	n/a	n/a	n/a	n/a	n/a	n/a	n/a	n/a	n/a	{SPACE}	n/a	60.484	-22.37	n/a	Rest	n/a
-22.342	4.0	0.028	1099.899	n/a	3	n/a	n/a	n/a	n/a	n/a	n/a	n/a	n/a	n/a	n/a	n/a	n/a	n/a	n/a	n/a	BlockHappyPreview	n/a
-18.327	3.939	0.015	1103.914	n/a	3	n/a	n/a	n/a	n/a	n/a	n/a	n/a	n/a	n/a	n/a	n/a	n/a	n/a	n/a	568.0	BlockStartHappiness	n/a
-4.698	-0.001	0.025	1117.543	n/a	3	n/a	n/a	n/a	n/a	n/a	n/a	n/a	n/a	n/a	n/a	5.0	n/a	4.682	-0.016	n/a	ScanWait	n/a
0.0	10.0	0.016	1122.241	n/a	3	n/a	n/a	n/a	n/a	n/a	n/a	n/a	n/a	n/a	n/a	n/a	n/a	n/a	n/a	n/a	GetReady	n/a
10.03	3.0	0.03	1132.271	55.0	3	8.7	1.06	9.0512	955.0	1.82	Outcome1	8.7	2.13	2.53325	Yes	2.0	6.57417893544734	1.162	11.192	n/a	GetAnswer	Gain
11.213	4.0	0.021	1133.454	55.0	3	8.7	1.06	9.0512	955.0	1.82	Outcome1	8.7	2.13	2.53325	Yes	n/a	6.57417893544734	n/a	n/a	n/a	ShowChoice	Gain
15.228	1.0	0.015	1137.469	55.0	3	8.7	1.06	9.0512	955.0	1.82	Outcome1	8.7	2.13	2.53325	Yes	n/a	6.57417893544734	n/a	n/a	n/a	ShowResult	Gain
16.244	7.709	0.016	1138.485	55.0	3	8.7	1.06	9.0512	955.0	1.82	Outcome1	8.7	2.13	2.53325	Yes	n/a	6.57417893544734	n/a	n/a	n/a	ISITrial	Gain
23.975	2.533	0.022	1146.216	55.0	3	8.7	1.06	9.0512	955.0	1.82	Outcome1	8.7	2.13	2.53325	Yes	n/a	6.57417893544734	n/a	n/a	n/a	TrialHappPreview	Gain
26.524	4.015	0.016	1148.765	55.0	3	8.7	1.06	9.0512	955.0	1.82	Outcome1	8.7	2.13	2.53325	Yes	n/a	6.57417893544734	n/a	n/a	664.0	TrialHappiness	Gain
26.525	3.068	n/a	1149.337	55.0	3	8.7	1.06	9.0512	955.0	1.82	Outcome1	8.7	2.13	2.53325	Yes	n/a	6.57417893544734	n/a	n/a	664.0	TrialHappinessSliderResponse	Gain
30.539	2.133	4.015	1152.78	55.0	3	8.7	1.06	9.0512	955.0	1.82	Outcome1	8.7	2.13	2.53325	Yes	n/a	6.57417893544734	n/a	n/a	n/a	ISIRate	Gain
32.705	3.0	0.033	1154.946	56.0	3	6.48	3.24	9.8612	955.0	3.16	Outcome1	6.48	7.7	0.0	No	2.0	-1.2174405436013602	2.787	35.492	n/a	GetAnswer	Gain
35.521	4.0	0.029	1157.762	56.0	3	6.48	3.24	9.8612	955.0	3.16	Outcome1	6.48	7.7	0.0	No	n/a	-1.2174405436013602	n/a	n/a	n/a	ShowChoice	Gain
39.536	1.0	0.015	1161.777	56.0	3	6.48	3.24	9.8612	955.0	3.16	Outcome1	6.48	7.7	0.0	No	n/a	-1.2174405436013602	n/a	n/a	n/a	ShowResult	Gain
40.553	4.697	0.017	1162.794	56.0	3	6.48	3.24	9.8612	955.0	3.16	Outcome1	6.48	7.7	0.0	No	n/a	-1.2174405436013602	n/a	n/a	n/a	ISITrial	Gain
45.268	3.0	0.018	1167.509	57.0	3	4.5	1.0	10.4237	955.0	1.68	Outcome1	4.5	-1.21	0.0	No	2.0	5.7112117780294405	2.11	47.378	n/a	GetAnswer	Gain
47.4	4.0	0.022	1169.641	57.0	3	4.5	1.0	10.4237	955.0	1.68	Outcome1	4.5	-1.21	0.0	No	n/a	5.7112117780294405	n/a	n/a	n/a	ShowChoice	Gain
51.415	1.0	0.015	1173.656	57.0	3	4.5	1.0	10.4237	955.0	1.68	Outcome1	4.5	-1.21	0.0	No	n/a	5.7112117780294405	n/a	n/a	n/a	ShowResult	Gain
52.432	4.291	0.017	1174.673	57.0	3	4.5	1.0	10.4237	955.0	1.68	Outcome1	4.5	-1.21	0.0	No	n/a	5.7112117780294405	n/a	n/a	n/a	ISITrial	Gain
56.747	3.0	0.024	1178.988	58.0	3	9.3	1.63	11.5862	955.0	2.48	Outcome1	9.3	3.26	3.04575	Yes	2.0	6.04077010192526	1.53	58.277	n/a	GetAnswer	Gain
58.296	4.0	0.019	1180.537	58.0	3	9.3	1.63	11.5862	955.0	2.48	Outcome1	9.3	3.26	3.04575	Yes	n/a	6.04077010192526	n/a	n/a	n/a	ShowChoice	Gain
62.312	1.0	0.016	1184.553	58.0	3	9.3	1.63	11.5862	955.0	2.48	Outcome1	9.3	3.26	3.04575	Yes	n/a	6.04077010192526	n/a	n/a	n/a	ShowResult	Gain
63.328	2.037	0.016	1185.569	58.0	3	9.3	1.63	11.5862	955.0	2.48	Outcome1	9.3	3.26	3.04575	Yes	n/a	6.04077010192526	n/a	n/a	n/a	ISITrial	Gain
65.394	3.046	0.029	1187.635	58.0	3	9.3	1.63	11.5862	955.0	2.48	Outcome1	9.3	3.26	3.04575	Yes	n/a	6.04077010192526	n/a	n/a	n/a	TrialHappPreview	Gain
68.46	4.015	0.02	1190.701	58.0	3	9.3	1.63	11.5862	955.0	2.48	Outcome1	9.3	3.26	3.04575	Yes	n/a	6.04077010192526	n/a	n/a	588.0	TrialHappiness	Gain
68.46	1.507	n/a	1191.651	58.0	3	9.3	1.63	11.5862	955.0	2.48	Outcome1	9.3	3.26	3.04575	Yes	n/a	6.04077010192526	n/a	n/a	588.0	TrialHappinessSliderResponse	Gain
72.475	4.183	4.015	1194.716	58.0	3	9.3	1.63	11.5862	955.0	2.48	Outcome1	9.3	3.26	3.04575	Yes	n/a	6.04077010192526	n/a	n/a	n/a	ISIRate	Gain
76.69	3.0	0.032	1198.931	59.0	3	-0.7	-4.0	11.4987	955.0	0.66	Outcome2	-8.36	-0.7	0.0	No	2.0	7.6613816534541295	2.263	78.953	n/a	GetAnswer	Mixed
78.973	4.0	0.019	1201.214	59.0	3	-0.7	-4.0	11.4987	955.0	0.66	Outcome2	-8.36	-0.7	0.0	No	n/a	7.6613816534541295	n/a	n/a	n/a	ShowChoice	Mixed
82.988	1.0	0.015	1205.229	59.0	3	-0.7	-4.0	11.4987	955.0	0.66	Outcome2	-8.36	-0.7	0.0	No	n/a	7.6613816534541295	n/a	n/a	n/a	ShowResult	Mixed
84.004	5.064	0.016	1206.245	59.0	3	-0.7	-4.0	11.4987	955.0	0.66	Outcome2	-8.36	-0.7	0.0	No	n/a	7.6613816534541295	n/a	n/a	n/a	ISITrial	Mixed
89.086	3.0	0.018	1211.327	60.0	3	2.26	1.13	11.7812	955.0	1.2	Outcome2	3.9	2.26	3.5625	Yes	2.0	-1.6428841072102702	1.799	90.885	n/a	GetAnswer	Mixed
90.902	4.0	0.017	1213.143	60.0	3	2.26	1.13	11.7812	955.0	1.2	Outcome2	3.9	2.26	3.5625	Yes	n/a	-1.6428841072102702	n/a	n/a	n/a	ShowChoice	Mixed
94.917	1.0	0.015	1217.158	60.0	3	2.26	1.13	11.7812	955.0	1.2	Outcome2	3.9	2.26	3.5625	Yes	n/a	-1.6428841072102702	n/a	n/a	n/a	ShowResult	Mixed
95.933	8.0	0.016	1218.174	60.0	3	2.26	1.13	11.7812	955.0	1.2	Outcome2	3.9	2.26	3.5625	Yes	n/a	-1.6428841072102702	n/a	n/a	n/a	ISITrial	Mixed
103.964	3.562	0.031	1226.205	60.0	3	2.26	1.13	11.7812	955.0	1.2	Outcome2	3.9	2.26	3.5625	Yes	n/a	-1.6428841072102702	n/a	n/a	n/a	TrialHappPreview	Mixed
107.546	4.015	0.02	1229.787	60.0	3	2.26	1.13	11.7812	955.0	1.2	Outcome2	3.9	2.26	3.5625	Yes	n/a	-1.6428841072102702	n/a	n/a	560.0	TrialHappiness	Mixed
107.547	0.245	n/a	1230.583	60.0	3	2.26	1.13	11.7812	955.0	1.2	Outcome2	3.9	2.26	3.5625	Yes	n/a	-1.6428841072102702	n/a	n/a	560.0	TrialHappinessSliderResponse	Mixed
111.561	6.25	4.015	1233.802	60.0	3	2.26	1.13	11.7812	955.0	1.2	Outcome2	3.9	2.26	3.5625	Yes	n/a	-1.6428841072102702	n/a	n/a	n/a	ISIRate	Mixed
117.842	3.0	0.031	1240.083	61.0	3	13.1	2.06	13.4187	955.0	2.22	Outcome1	13.1	4.13	0.0	No	2.0	8.968289920724802	1.086	118.928	n/a	GetAnswer	Loss
118.959	4.0	0.031	1241.2	61.0	3	13.1	2.06	13.4187	955.0	2.22	Outcome1	13.1	4.13	0.0	No	n/a	8.968289920724802	n/a	n/a	n/a	ShowChoice	Loss
122.974	1.0	0.015	1245.215	61.0	3	13.1	2.06	13.4187	955.0	2.22	Outcome1	13.1	4.13	0.0	No	n/a	8.968289920724802	n/a	n/a	n/a	ShowResult	Loss
123.99	4.586	0.016	1246.231	61.0	3	13.1	2.06	13.4187	955.0	2.22	Outcome1	13.1	4.13	0.0	No	n/a	8.968289920724802	n/a	n/a	n/a	ISITrial	Loss
128.605	3.0	0.029	1250.846	62.0	3	6.47	3.24	14.2275	955.0	5.0	Outcome1	6.47	8.3	3.74875	Yes	2.0	-1.8284258210645497	1.058	129.663	n/a	GetAnswer	Gain
129.688	4.0	0.025	1251.929	62.0	3	6.47	3.24	14.2275	955.0	5.0	Outcome1	6.47	8.3	3.74875	Yes	n/a	-1.8284258210645497	n/a	n/a	n/a	ShowChoice	Gain
133.703	1.0	0.015	1255.944	62.0	3	6.47	3.24	14.2275	955.0	5.0	Outcome1	6.47	8.3	3.74875	Yes	n/a	-1.8284258210645497	n/a	n/a	n/a	ShowResult	Gain
134.72	5.212	0.017	1256.961	62.0	3	6.47	3.24	14.2275	955.0	5.0	Outcome1	6.47	8.3	3.74875	Yes	n/a	-1.8284258210645497	n/a	n/a	n/a	ISITrial	Gain
139.951	3.749	0.019	1262.192	62.0	3	6.47	3.24	14.2275	955.0	5.0	Outcome1	6.47	8.3	3.74875	Yes	n/a	-1.8284258210645497	n/a	n/a	n/a	TrialHappPreview	Gain
143.733	4.016	0.033	1265.974	62.0	3	6.47	3.24	14.2275	955.0	5.0	Outcome1	6.47	8.3	3.74875	Yes	n/a	-1.8284258210645497	n/a	n/a	588.0	TrialHappiness	Gain
143.734	0.968	n/a	1266.782	62.0	3	6.47	3.24	14.2275	955.0	5.0	Outcome1	6.47	8.3	3.74875	Yes	n/a	-1.8284258210645497	n/a	n/a	588.0	TrialHappinessSliderResponse	Gain
147.749	6.995	4.016	1269.99	62.0	3	6.47	3.24	14.2275	955.0	5.0	Outcome1	6.47	8.3	3.74875	Yes	n/a	-1.8284258210645497	n/a	n/a	n/a	ISIRate	Gain
154.779	3.0	0.035	1277.02	63.0	3	-0.1	-5.0	14.215	955.0	1.2	Outcome2	-9.49	-0.1	0.0	No	2.0	9.38731596828992	0.93	155.709	n/a	GetAnswer	Mixed
155.729	4.0	0.02	1277.97	63.0	3	-0.1	-5.0	14.215	955.0	1.2	Outcome2	-9.49	-0.1	0.0	No	n/a	9.38731596828992	n/a	n/a	n/a	ShowChoice	Mixed
159.744	1.0	0.015	1281.985	63.0	3	-0.1	-5.0	14.215	955.0	1.2	Outcome2	-9.49	-0.1	0.0	No	n/a	9.38731596828992	n/a	n/a	n/a	ShowResult	Mixed
160.761	5.595	0.017	1283.002	63.0	3	-0.1	-5.0	14.215	955.0	1.2	Outcome2	-9.49	-0.1	0.0	No	n/a	9.38731596828992	n/a	n/a	n/a	ISITrial	Mixed
166.375	3.0	0.019	1288.616	64.0	3	11.5	0.85	15.6525	955.0	2.8	Outcome1	11.5	1.7	0.0	No	2.0	9.80294450736127	1.677	168.052	n/a	GetAnswer	Loss
168.075	4.0	0.023	1290.316	64.0	3	11.5	0.85	15.6525	955.0	2.8	Outcome1	11.5	1.7	0.0	No	n/a	9.80294450736127	n/a	n/a	n/a	ShowChoice	Loss
172.09	1.0	0.015	1294.331	64.0	3	11.5	0.85	15.6525	955.0	2.8	Outcome1	11.5	1.7	0.0	No	n/a	9.80294450736127	n/a	n/a	n/a	ShowResult	Loss
173.106	5.47	0.016	1295.347	64.0	3	11.5	0.85	15.6525	955.0	2.8	Outcome1	11.5	1.7	0.0	No	n/a	9.80294450736127	n/a	n/a	n/a	ISITrial	Loss
178.604	3.0	0.028	1300.845	65.0	3	1.3	-4.0	15.815	955.0	0.66	Outcome2	-8.92	1.3	2.99675	Yes	2.0	10.2185730464326	1.193	179.797	n/a	GetAnswer	Mixed
179.821	4.0	0.024	1302.062	65.0	3	1.3	-4.0	15.815	955.0	0.66	Outcome2	-8.92	1.3	2.99675	Yes	n/a	10.2185730464326	n/a	n/a	n/a	ShowChoice	Mixed
183.836	1.0	0.015	1306.077	65.0	3	1.3	-4.0	15.815	955.0	0.66	Outcome2	-8.92	1.3	2.99675	Yes	n/a	10.2185730464326	n/a	n/a	n/a	ShowResult	Mixed
184.852	3.344	0.016	1307.093	65.0	3	1.3	-4.0	15.815	955.0	0.66	Outcome2	-8.92	1.3	2.99675	Yes	n/a	10.2185730464326	n/a	n/a	n/a	ISITrial	Mixed
188.218	2.997	0.022	1310.459	65.0	3	1.3	-4.0	15.815	955.0	0.66	Outcome2	-8.92	1.3	2.99675	Yes	n/a	10.2185730464326	n/a	n/a	n/a	TrialHappPreview	Mixed
191.233	4.016	0.018	1313.474	65.0	3	1.3	-4.0	15.815	955.0	0.66	Outcome2	-8.92	1.3	2.99675	Yes	n/a	10.2185730464326	n/a	n/a	584.0	TrialHappiness	Mixed
191.234	0.653	n/a	1314.512	65.0	3	1.3	-4.0	15.815	955.0	0.66	Outcome2	-8.92	1.3	2.99675	Yes	n/a	10.2185730464326	n/a	n/a	584.0	TrialHappinessSliderResponse	Mixed
195.249	3.987	4.016	1317.49	65.0	3	1.3	-4.0	15.815	955.0	0.66	Outcome2	-8.92	1.3	2.99675	Yes	n/a	10.2185730464326	n/a	n/a	n/a	ISIRate	Mixed
199.264	3.0	0.028	1321.505	66.0	3	9.03	4.51	16.9438	955.0	2.0	Outcome2	10.9	9.03	0.0	No	2.0	-1.87221593053983	2.165	201.429	n/a	GetAnswer	Loss
201.446	4.0	0.017	1323.687	66.0	3	9.03	4.51	16.9438	955.0	2.0	Outcome2	10.9	9.03	0.0	No	n/a	-1.87221593053983	n/a	n/a	n/a	ShowChoice	Loss
205.462	1.0	0.016	1327.703	66.0	3	9.03	4.51	16.9438	955.0	2.0	Outcome2	10.9	9.03	0.0	No	n/a	-1.87221593053983	n/a	n/a	n/a	ShowResult	Loss
206.478	3.959	0.016	1328.719	66.0	3	9.03	4.51	16.9438	955.0	2.0	Outcome2	10.9	9.03	0.0	No	n/a	-1.87221593053983	n/a	n/a	n/a	ISITrial	Loss
210.46	3.0	0.023	1332.701	67.0	3	-2.21	-1.0	16.6676	955.0	1.0	Outcome1	-2.21	-0.3	2.9185	Yes	2.0	-1.9072291430728603	2.139	212.599	n/a	GetAnswer	Mixed
212.626	4.0	0.027	1334.867	67.0	3	-2.21	-1.0	16.6676	955.0	1.0	Outcome1	-2.21	-0.3	2.9185	Yes	n/a	-1.9072291430728603	n/a	n/a	n/a	ShowChoice	Mixed
216.641	1.0	0.015	1338.882	67.0	3	-2.21	-1.0	16.6676	955.0	1.0	Outcome1	-2.21	-0.3	2.9185	Yes	n/a	-1.9072291430728603	n/a	n/a	n/a	ShowResult	Mixed
217.657	4.199	0.016	1339.898	67.0	3	-2.21	-1.0	16.6676	955.0	1.0	Outcome1	-2.21	-0.3	2.9185	Yes	n/a	-1.9072291430728603	n/a	n/a	n/a	ISITrial	Mixed
221.873	2.918	0.017	1344.114	67.0	3	-2.21	-1.0	16.6676	955.0	1.0	Outcome1	-2.21	-0.3	2.9185	Yes	n/a	-1.9072291430728603	n/a	n/a	n/a	TrialHappPreview	Mixed
224.822	4.015	0.031	1347.063	67.0	3	-2.21	-1.0	16.6676	955.0	1.0	Outcome1	-2.21	-0.3	2.9185	Yes	n/a	-1.9072291430728603	n/a	n/a	552.0	TrialHappiness	Mixed
224.822	0.226	n/a	1347.76	67.0	3	-2.21	-1.0	16.6676	955.0	1.0	Outcome1	-2.21	-0.3	2.9185	Yes	n/a	-1.9072291430728603	n/a	n/a	552.0	TrialHappinessSliderResponse	Mixed
228.837	3.674	4.015	1351.078	67.0	3	-2.21	-1.0	16.6676	955.0	1.0	Outcome1	-2.21	-0.3	2.9185	Yes	n/a	-1.9072291430728603	n/a	n/a	n/a	ISIRate	Mixed
232.536	3.0	0.025	1354.777	68.0	3	2.83	1.42	17.0214	955.0	2.0	Outcome1	2.83	4.9	0.0	No	2.0	-2.0721026802567	1.078	233.614	n/a	GetAnswer	Gain
233.635	4.0	0.02	1355.876	68.0	3	2.83	1.42	17.0214	955.0	2.0	Outcome1	2.83	4.9	0.0	No	n/a	-2.0721026802567	n/a	n/a	n/a	ShowChoice	Gain
237.65	1.0	0.015	1359.891	68.0	3	2.83	1.42	17.0214	955.0	2.0	Outcome1	2.83	4.9	0.0	No	n/a	-2.0721026802567	n/a	n/a	n/a	ShowResult	Gain
238.667	2.185	0.017	1360.908	68.0	3	2.83	1.42	17.0214	955.0	2.0	Outcome1	2.83	4.9	0.0	No	n/a	-2.0721026802567	n/a	n/a	n/a	ISITrial	Gain
240.883	3.0	0.031	1363.124	69.0	3	0.0	0.0	17.0214	955.0	3.6	Certain	-6.64	5.9	0.0	No	4.0	12.5424688561721	1.915	242.798	n/a	GetAnswer	Gain
242.815	4.0	0.017	1365.056	69.0	3	0.0	0.0	17.0214	955.0	3.6	Certain	-6.64	5.9	0.0	No	n/a	12.5424688561721	n/a	n/a	n/a	ShowChoice	Gain
246.831	1.0	0.016	1369.072	69.0	3	0.0	0.0	17.0214	955.0	3.6	Certain	-6.64	5.9	0.0	No	n/a	12.5424688561721	n/a	n/a	n/a	ShowResult	Gain
247.847	2.0	0.016	1370.088	69.0	3	0.0	0.0	17.0214	955.0	3.6	Certain	-6.64	5.9	0.0	No	n/a	12.5424688561721	n/a	n/a	n/a	ISITrial	Gain
249.88	3.0	0.033	1372.121	70.0	3	12.9	-0.05	18.6339	955.0	2.0	Outcome1	12.9	-0.1	3.65125	Yes	2.0	12.998867497168698	2.509	252.389	n/a	GetAnswer	Loss
252.412	4.0	0.023	1374.653	70.0	3	12.9	-0.05	18.6339	955.0	2.0	Outcome1	12.9	-0.1	3.65125	Yes	n/a	12.998867497168698	n/a	n/a	n/a	ShowChoice	Loss
256.427	1.0	0.015	1378.668	70.0	3	12.9	-0.05	18.6339	955.0	2.0	Outcome1	12.9	-0.1	3.65125	Yes	n/a	12.998867497168698	n/a	n/a	n/a	ShowResult	Loss
257.444	2.623	0.017	1379.685	70.0	3	12.9	-0.05	18.6339	955.0	2.0	Outcome1	12.9	-0.1	3.65125	Yes	n/a	12.998867497168698	n/a	n/a	n/a	ISITrial	Loss
260.093	3.651	0.026	1382.334	70.0	3	12.9	-0.05	18.6339	955.0	2.0	Outcome1	12.9	-0.1	3.65125	Yes	n/a	12.998867497168698	n/a	n/a	n/a	TrialHappPreview	Loss
263.775	4.015	0.031	1386.016	70.0	3	12.9	-0.05	18.6339	955.0	2.0	Outcome1	12.9	-0.1	3.65125	Yes	2{-2}	12.998867497168698	1.056	264.831	552.0	TrialHappiness	Loss
263.775	0.236	n/a	1386.836	70.0	3	12.9	-0.05	18.6339	955.0	2.0	Outcome1	12.9	-0.1	3.65125	Yes	n/a	12.998867497168698	n/a	n/a	552.0	TrialHappinessSliderResponse	Loss
267.79	6.605	4.015	1390.031	70.0	3	12.9	-0.05	18.6339	955.0	2.0	Outcome1	12.9	-0.1	3.65125	Yes	n/a	12.998867497168698	n/a	n/a	n/a	ISIRate	Loss
274.421	3.0	0.026	1396.662	71.0	3	4.31	2.15	19.1727	955.0	1.68	Outcome2	6.5	4.31	0.0	No	2.0	-2.18620234050585	0.929	275.35	n/a	GetAnswer	Gain
275.371	4.0	0.021	1397.612	71.0	3	4.31	2.15	19.1727	955.0	1.68	Outcome2	6.5	4.31	0.0	No	n/a	-2.18620234050585	n/a	n/a	n/a	ShowChoice	Gain
279.386	1.0	0.015	1401.627	71.0	3	4.31	2.15	19.1727	955.0	1.68	Outcome2	6.5	4.31	0.0	No	n/a	-2.18620234050585	n/a	n/a	n/a	ShowResult	Gain
280.402	5.499	0.016	1402.643	71.0	3	4.31	2.15	19.1727	955.0	1.68	Outcome2	6.5	4.31	0.0	No	n/a	-2.18620234050585	n/a	n/a	n/a	ISITrial	Gain
285.934	3.0	0.033	1408.175	72.0	3	6.68	3.34	20.0077	955.0	2.0	Outcome1	6.68	8.9	3.0805	Yes	2.0	-2.2242355605889	0.951	286.885	n/a	GetAnswer	Gain
286.917	4.0	0.032	1409.158	72.0	3	6.68	3.34	20.0077	955.0	2.0	Outcome1	6.68	8.9	3.0805	Yes	n/a	-2.2242355605889	n/a	n/a	n/a	ShowChoice	Gain
290.932	1.0	0.015	1413.173	72.0	3	6.68	3.34	20.0077	955.0	2.0	Outcome1	6.68	8.9	3.0805	Yes	n/a	-2.2242355605889	n/a	n/a	n/a	ShowResult	Gain
291.948	5.672	0.016	1414.189	72.0	3	6.68	3.34	20.0077	955.0	2.0	Outcome1	6.68	8.9	3.0805	Yes	n/a	-2.2242355605889	n/a	n/a	n/a	ISITrial	Gain
297.646	3.08	0.026	1419.887	72.0	3	6.68	3.34	20.0077	955.0	2.0	Outcome1	6.68	8.9	3.0805	Yes	n/a	-2.2242355605889	n/a	n/a	n/a	TrialHappPreview	Gain
300.745	4.015	0.019	1422.986	72.0	3	6.68	3.34	20.0077	955.0	2.0	Outcome1	6.68	8.9	3.0805	Yes	n/a	-2.2242355605889	n/a	n/a	528.0	TrialHappiness	Gain
300.746	0.188	n/a	1423.373	72.0	3	6.68	3.34	20.0077	955.0	2.0	Outcome1	6.68	8.9	3.0805	Yes	n/a	-2.2242355605889	n/a	n/a	528.0	TrialHappinessSliderResponse	Gain
304.76	4.322	4.015	1427.001	72.0	3	6.68	3.34	20.0077	955.0	2.0	Outcome1	6.68	8.9	3.0805	Yes	n/a	-2.2242355605889	n/a	n/a	n/a	ISIRate	Gain
309.109	3.0	0.027	1431.35	73.0	3	8.34	4.17	21.0502	955.0	1.82	Outcome1	8.34	10.7	0.0	No	2.0	-2.35966402416006	1.56	310.669	n/a	GetAnswer	Loss
310.692	4.0	0.023	1432.933	73.0	3	8.34	4.17	21.0502	955.0	1.82	Outcome1	8.34	10.7	0.0	No	n/a	-2.35966402416006	n/a	n/a	n/a	ShowChoice	Loss
314.707	1.0	0.015	1436.948	73.0	3	8.34	4.17	21.0502	955.0	1.82	Outcome1	8.34	10.7	0.0	No	n/a	-2.35966402416006	n/a	n/a	n/a	ShowResult	Loss
315.723	4.616	0.016	1437.964	73.0	3	8.34	4.17	21.0502	955.0	1.82	Outcome1	8.34	10.7	0.0	No	n/a	-2.35966402416006	n/a	n/a	n/a	ISITrial	Loss
320.372	3.0	0.033	1442.613	74.0	3	3.3	-4.0	21.4627	955.0	0.66	Outcome1	3.3	-11.96	3.05625	Yes	2.0	15.2593431483579	1.319	321.691	n/a	GetAnswer	Mixed
321.721	4.0	0.03	1443.962	74.0	3	3.3	-4.0	21.4627	955.0	0.66	Outcome1	3.3	-11.96	3.05625	Yes	n/a	15.2593431483579	n/a	n/a	n/a	ShowChoice	Mixed
325.736	1.0	0.015	1447.977	74.0	3	3.3	-4.0	21.4627	955.0	0.66	Outcome1	3.3	-11.96	3.05625	Yes	n/a	15.2593431483579	n/a	n/a	n/a	ShowResult	Mixed
326.753	3.909	0.017	1448.994	74.0	3	3.3	-4.0	21.4627	955.0	0.66	Outcome1	3.3	-11.96	3.05625	Yes	n/a	15.2593431483579	n/a	n/a	n/a	ISITrial	Mixed
330.685	3.056	0.023	1452.926	74.0	3	3.3	-4.0	21.4627	955.0	0.66	Outcome1	3.3	-11.96	3.05625	Yes	n/a	15.2593431483579	n/a	n/a	n/a	TrialHappPreview	Mixed
333.767	4.015	0.026	1456.008	74.0	3	3.3	-4.0	21.4627	955.0	0.66	Outcome1	3.3	-11.96	3.05625	Yes	n/a	15.2593431483579	n/a	n/a	536.0	TrialHappiness	Mixed
333.768	0.2	n/a	1456.582	74.0	3	3.3	-4.0	21.4627	955.0	0.66	Outcome1	3.3	-11.96	3.05625	Yes	n/a	15.2593431483579	n/a	n/a	536.0	TrialHappinessSliderResponse	Mixed
337.782	4.225	4.015	1460.023	74.0	3	3.3	-4.0	21.4627	955.0	0.66	Outcome1	3.3	-11.96	3.05625	Yes	n/a	15.2593431483579	n/a	n/a	n/a	ISIRate	Mixed
342.031	3.0	0.024	1464.272	75.0	3	4.29	2.14	21.9989	955.0	1.82	Outcome2	6.7	4.29	0.0	No	2.0	-2.40779539448849	2.812	344.843	n/a	GetAnswer	Gain
344.863	4.0	0.02	1467.104	75.0	3	4.29	2.14	21.9989	955.0	1.82	Outcome2	6.7	4.29	0.0	No	n/a	-2.40779539448849	n/a	n/a	n/a	ShowChoice	Gain
348.878	1.0	0.015	1471.119	75.0	3	4.29	2.14	21.9989	955.0	1.82	Outcome2	6.7	4.29	0.0	No	n/a	-2.40779539448849	n/a	n/a	n/a	ShowResult	Gain
349.895	4.979	0.017	1472.136	75.0	3	4.29	2.14	21.9989	955.0	1.82	Outcome2	6.7	4.29	0.0	No	n/a	-2.40779539448849	n/a	n/a	n/a	ISITrial	Gain
354.893	3.0	0.019	1477.134	76.0	3	0.0	0.0	21.9989	955.0	0.52	Certain	-1.35	1.1	0.0	No	4.0	-2.4473386183465498	1.174	356.067	n/a	GetAnswer	Mixed
356.093	4.0	0.026	1478.334	76.0	3	0.0	0.0	21.9989	955.0	0.52	Certain	-1.35	1.1	0.0	No	n/a	-2.4473386183465498	n/a	n/a	n/a	ShowChoice	Mixed
360.108	1.0	0.015	1482.349	76.0	3	0.0	0.0	21.9989	955.0	0.52	Certain	-1.35	1.1	0.0	No	n/a	-2.4473386183465498	n/a	n/a	n/a	ShowResult	Mixed
361.124	3.931	0.016	1483.365	76.0	3	0.0	0.0	21.9989	955.0	0.52	Certain	-1.35	1.1	0.0	No	n/a	-2.4473386183465498	n/a	n/a	n/a	ISITrial	Mixed
365.073	3.0	0.018	1487.314	77.0	3	0.5	-8.0	22.0614	955.0	0.2	Outcome1	0.5	-16.06	4.0	Yes	2.0	16.5560588901472	1.148	366.221	n/a	GetAnswer	Mixed
366.239	4.0	0.018	1488.48	77.0	3	0.5	-8.0	22.0614	955.0	0.2	Outcome1	0.5	-16.06	4.0	Yes	n/a	16.5560588901472	n/a	n/a	n/a	ShowChoice	Mixed
370.254	1.0	0.015	1492.495	77.0	3	0.5	-8.0	22.0614	955.0	0.2	Outcome1	0.5	-16.06	4.0	Yes	n/a	16.5560588901472	n/a	n/a	n/a	ShowResult	Mixed
371.271	7.022	0.017	1493.512	77.0	3	0.5	-8.0	22.0614	955.0	0.2	Outcome1	0.5	-16.06	4.0	Yes	n/a	16.5560588901472	n/a	n/a	n/a	ISITrial	Mixed
378.318	4.0	0.025	1500.559	77.0	3	0.5	-8.0	22.0614	955.0	0.2	Outcome1	0.5	-16.06	4.0	Yes	n/a	16.5560588901472	n/a	n/a	n/a	TrialHappPreview	Mixed
382.35	4.015	0.032	1504.591	77.0	3	0.5	-8.0	22.0614	955.0	0.2	Outcome1	0.5	-16.06	4.0	Yes	n/a	16.5560588901472	n/a	n/a	568.0	TrialHappiness	Mixed
382.351	0.264	n/a	1505.583	77.0	3	0.5	-8.0	22.0614	955.0	0.2	Outcome1	0.5	-16.06	4.0	Yes	n/a	16.5560588901472	n/a	n/a	568.0	TrialHappinessSliderResponse	Mixed
386.365	8.0	4.015	1508.606	77.0	3	0.5	-8.0	22.0614	955.0	0.2	Outcome1	0.5	-16.06	4.0	Yes	n/a	16.5560588901472	n/a	n/a	n/a	ISIRate	Mixed
394.396	3.0	0.031	1516.637	78.0	3	11.1	-2.7	23.4489	955.0	2.22	Outcome2	-5.39	11.1	0.0	No	2.0	16.4869762174405	0.994	395.39	n/a	GetAnswer	Loss
395.412	4.0	0.022	1517.653	78.0	3	11.1	-2.7	23.4489	955.0	2.22	Outcome2	-5.39	11.1	0.0	No	n/a	16.4869762174405	n/a	n/a	n/a	ShowChoice	Loss
399.427	1.0	0.015	1521.668	78.0	3	11.1	-2.7	23.4489	955.0	2.22	Outcome2	-5.39	11.1	0.0	No	n/a	16.4869762174405	n/a	n/a	n/a	ShowResult	Loss
400.444	2.078	0.017	1522.685	78.0	3	11.1	-2.7	23.4489	955.0	2.22	Outcome2	-5.39	11.1	0.0	No	n/a	16.4869762174405	n/a	n/a	n/a	ISITrial	Loss
402.543	3.0	0.021	1524.784	79.0	3	-2.53	-1.0	23.1326	955.0	1.2	Outcome2	-0.1	-2.53	2.7295	Yes	2.0	-2.43308795771989	2.625	405.168	n/a	GetAnswer	Mixed
405.192	4.0	0.024	1527.433	79.0	3	-2.53	-1.0	23.1326	955.0	1.2	Outcome2	-0.1	-2.53	2.7295	Yes	n/a	-2.43308795771989	n/a	n/a	n/a	ShowChoice	Mixed
409.207	1.0	0.015	1531.448	79.0	3	-2.53	-1.0	23.1326	955.0	1.2	Outcome2	-0.1	-2.53	2.7295	Yes	n/a	-2.43308795771989	n/a	n/a	n/a	ShowResult	Mixed
410.224	3.829	0.017	1532.465	79.0	3	-2.53	-1.0	23.1326	955.0	1.2	Outcome2	-0.1	-2.53	2.7295	Yes	n/a	-2.43308795771989	n/a	n/a	n/a	ISITrial	Mixed
414.072	2.73	0.019	1536.313	79.0	3	-2.53	-1.0	23.1326	955.0	1.2	Outcome2	-0.1	-2.53	2.7295	Yes	n/a	-2.43308795771989	n/a	n/a	n/a	TrialHappPreview	Mixed
416.821	4.016	0.019	1539.062	79.0	3	-2.53	-1.0	23.1326	955.0	1.2	Outcome2	-0.1	-2.53	2.7295	Yes	n/a	-2.43308795771989	n/a	n/a	512.0	TrialHappiness	Mixed
416.822	0.0	n/a	1539.063	79.0	3	-2.53	-1.0	23.1326	955.0	1.2	Outcome2	-0.1	-2.53	2.7295	Yes	n/a	-2.43308795771989	n/a	n/a	512.0	TrialHappinessSliderResponse	Mixed
420.837	2.918	4.016	1543.078	79.0	3	-2.53	-1.0	23.1326	955.0	1.2	Outcome2	-0.1	-2.53	2.7295	Yes	n/a	-2.43308795771989	n/a	n/a	n/a	ISIRate	Mixed
423.786	3.0	0.031	1546.027	80.0	3	0.0	0.0	23.1326	955.0	1.2	Certain	-0.8	1.9	0.0	No	4.0	-2.69686674216686	1.217	425.003	n/a	GetAnswer	Mixed
425.018	4.0	0.015	1547.259	80.0	3	0.0	0.0	23.1326	955.0	1.2	Certain	-0.8	1.9	0.0	No	n/a	-2.69686674216686	n/a	n/a	n/a	ShowChoice	Mixed
429.034	1.0	0.016	1551.275	80.0	3	0.0	0.0	23.1326	955.0	1.2	Certain	-0.8	1.9	0.0	No	n/a	-2.69686674216686	n/a	n/a	n/a	ShowResult	Mixed
430.05	3.336	0.016	1552.291	80.0	3	0.0	0.0	23.1326	955.0	1.2	Certain	-0.8	1.9	0.0	No	n/a	-2.69686674216686	n/a	n/a	n/a	ISITrial	Mixed
433.416	3.0	0.03	1555.657	81.0	3	5.76	2.88	23.8526	955.0	1.68	Outcome1	5.76	8.5	3.92375	Yes	2.0	-2.73867497168743	1.513	434.929	n/a	GetAnswer	Gain
434.948	4.0	0.018	1557.189	81.0	3	5.76	2.88	23.8526	955.0	1.68	Outcome1	5.76	8.5	3.92375	Yes	n/a	-2.73867497168743	n/a	n/a	n/a	ShowChoice	Gain
438.964	1.0	0.016	1561.205	81.0	3	5.76	2.88	23.8526	955.0	1.68	Outcome1	5.76	8.5	3.92375	Yes	n/a	-2.73867497168743	n/a	n/a	n/a	ShowResult	Gain
439.98	3.919	0.016	1562.221	81.0	3	5.76	2.88	23.8526	955.0	1.68	Outcome1	5.76	8.5	3.92375	Yes	n/a	-2.73867497168743	n/a	n/a	n/a	ISITrial	Gain
443.912	3.924	0.013	1566.153	81.0	3	5.76	2.88	23.8526	955.0	1.68	Outcome1	5.76	8.5	3.92375	Yes	n/a	-2.73867497168743	n/a	n/a	n/a	TrialHappPreview	Gain
447.86	4.016	0.024	1570.101	81.0	3	5.76	2.88	23.8526	955.0	1.68	Outcome1	5.76	8.5	3.92375	Yes	n/a	-2.73867497168743	n/a	n/a	528.0	TrialHappiness	Gain
447.861	2.008	n/a	1570.968	81.0	3	5.76	2.88	23.8526	955.0	1.68	Outcome1	5.76	8.5	3.92375	Yes	n/a	-2.73867497168743	n/a	n/a	528.0	TrialHappinessSliderResponse	Gain
451.876	7.695	4.016	1574.117	81.0	3	5.76	2.88	23.8526	955.0	1.68	Outcome1	5.76	8.5	3.92375	Yes	n/a	-2.73867497168743	n/a	n/a	n/a	ISIRate	Gain
459.59	3.0	0.019	1581.831	n/a	3	n/a	n/a	n/a	n/a	n/a	n/a	n/a	n/a	n/a	n/a	n/a	n/a	n/a	n/a	n/a	CurrentEarnings	n/a
462.605	-0.001	0.015	1584.846	n/a	3	n/a	n/a	n/a	n/a	n/a	n/a	n/a	n/a	n/a	n/a	{SPACE}	n/a	24.95	487.555	n/a	Goodbye	n/a
