onset	duration	onset_delay	onset_unadjusted	trial_number	block	amount_change	certain_amount	current_amount	mood_target	multiplier	outcome	outcome1_amount	outcome2_amount	question_duration	rating	response	rpe	rt	rt_time	slider_response	trial_phase	trial_type
-31.193	-0.001	0.022	11.397	n/a	0	n/a	n/a	n/a	n/a	n/a	n/a	n/a	n/a	n/a	n/a	{SPACE}	n/a	2.467	-28.726	n/a	Welcome	n/a
-28.702	5.0	0.024	13.888	n/a	0	n/a	n/a	n/a	n/a	n/a	n/a	n/a	n/a	n/a	n/a	n/a	n/a	n/a	n/a	n/a	LifeHappyPreview	n/a
-23.671	2.932	0.031	18.919	n/a	0	n/a	n/a	n/a	n/a	n/a	n/a	n/a	n/a	n/a	n/a	n/a	n/a	n/a	n/a	824.0	LifeHappiness	n/a
-23.67	2.057	n/a	19.795	n/a	0	n/a	n/a	n/a	n/a	n/a	n/a	n/a	n/a	n/a	n/a	n/a	n/a	n/a	n/a	824.0	LifeHappinessSliderResponse	n/a
-15.413	4.0	0.024	27.177	n/a	0	n/a	n/a	n/a	n/a	n/a	n/a	n/a	n/a	n/a	n/a	n/a	n/a	n/a	n/a	n/a	BlockHappyPreview	n/a
-11.401	1.863	0.012	31.189	n/a	0	n/a	n/a	n/a	n/a	n/a	n/a	n/a	n/a	n/a	n/a	2{-2}2{-2}2{-2}	n/a	1.863	-9.538	672.0	BlockStartHappiness	n/a
-11.4	1.476	n/a	31.577	n/a	0	n/a	n/a	n/a	n/a	n/a	n/a	n/a	n/a	n/a	n/a	n/a	n/a	n/a	n/a	672.0	BlockStartHappinessSliderResponse	n/a
-0.034	-0.001	0.021	42.556	n/a	0	n/a	n/a	n/a	n/a	n/a	n/a	n/a	n/a	n/a	n/a	5.0	n/a	0.022	-0.012	n/a	ScanWait	n/a
0.0	10.0	0.012	42.59	n/a	1	n/a	n/a	n/a	n/a	n/a	n/a	n/a	n/a	n/a	n/a	n/a	n/a	n/a	n/a	n/a	GetReady	n/a
10.03	3.0	0.03	52.62	1.0	1	-2.0	-2.0	9.75	955.0	1.5	Certain	0.1	-4.71	0.0	No	4.0	4.8074745186863	2.74	12.77	n/a	GetAnswer	Mixed
12.788	4.0	0.018	55.378	1.0	1	-2.0	-2.0	9.75	955.0	1.5	Certain	0.1	-4.71	0.0	No	n/a	4.8074745186863	n/a	n/a	n/a	ShowChoice	Mixed
16.817	1.0	0.029	59.407	1.0	1	-2.0	-2.0	9.75	955.0	1.5	Certain	0.1	-4.71	0.0	No	n/a	4.8074745186863	n/a	n/a	n/a	ShowResult	Mixed
17.837	2.431	0.02	60.427	1.0	1	-2.0	-2.0	9.75	955.0	1.5	Certain	0.1	-4.71	0.0	No	n/a	4.8074745186863	n/a	n/a	n/a	ISITrial	Mixed
20.294	3.0	0.026	62.884	2.0	1	-0.7	-3.0	9.6625	955.0	0.66	Outcome2	-5.83	-0.7	0.0	No	2.0	5.127972819932049	2.595	22.889	n/a	GetAnswer	Mixed
22.918	4.0	0.029	65.508	2.0	1	-0.7	-3.0	9.6625	955.0	0.66	Outcome2	-5.83	-0.7	0.0	No	n/a	5.127972819932049	n/a	n/a	n/a	ShowChoice	Mixed
26.947	1.0	0.029	69.537	2.0	1	-0.7	-3.0	9.6625	955.0	0.66	Outcome2	-5.83	-0.7	0.0	No	n/a	5.127972819932049	n/a	n/a	n/a	ShowResult	Mixed
27.967	4.568	0.02	70.557	2.0	1	-0.7	-3.0	9.6625	955.0	0.66	Outcome2	-5.83	-0.7	0.0	No	n/a	5.127972819932049	n/a	n/a	n/a	ISITrial	Mixed
32.564	3.0	0.029	75.154	3.0	1	12.7	3.62	11.25	955.0	1.82	Outcome2	7.25	12.7	2.868	Yes	2.0	5.4484711211778	1.534	34.098	n/a	GetAnswer	Loss
34.118	4.0	0.02	76.708	3.0	1	12.7	3.62	11.25	955.0	1.82	Outcome2	7.25	12.7	2.868	Yes	n/a	5.4484711211778	n/a	n/a	n/a	ShowChoice	Loss
38.13	1.0	0.012	80.72	3.0	1	12.7	3.62	11.25	955.0	1.82	Outcome2	7.25	12.7	2.868	Yes	n/a	5.4484711211778	n/a	n/a	n/a	ShowResult	Loss
39.15	3.243	0.02	81.74	3.0	1	12.7	3.62	11.25	955.0	1.82	Outcome2	7.25	12.7	2.868	Yes	n/a	5.4484711211778	n/a	n/a	n/a	ISITrial	Loss
42.41	2.868	0.017	85.0	3.0	1	12.7	3.62	11.25	955.0	1.82	Outcome2	7.25	12.7	2.868	Yes	n/a	5.4484711211778	n/a	n/a	n/a	TrialHappPreview	Loss
45.302	4.029	0.024	87.892	3.0	1	12.7	3.62	11.25	955.0	1.82	Outcome2	7.25	12.7	2.868	Yes	n/a	5.4484711211778	n/a	n/a	676.0	TrialHappiness	Loss
45.303	1.497	n/a	88.563	3.0	1	12.7	3.62	11.25	955.0	1.82	Outcome2	7.25	12.7	2.868	Yes	n/a	5.4484711211778	n/a	n/a	676.0	TrialHappinessSliderResponse	Loss
49.331	3.472	4.029	91.921	3.0	1	12.7	3.62	11.25	955.0	1.82	Outcome2	7.25	12.7	2.868	Yes	n/a	5.4484711211778	n/a	n/a	n/a	ISIRate	Loss
52.824	3.0	0.021	95.414	4.0	1	13.3	3.8	12.9125	955.0	2.48	Outcome2	7.6	13.3	0.0	No	2.0	5.70101925254813	1.438	54.262	n/a	GetAnswer	Loss
54.279	4.0	0.017	96.869	4.0	1	13.3	3.8	12.9125	955.0	2.48	Outcome2	7.6	13.3	0.0	No	n/a	5.70101925254813	n/a	n/a	n/a	ShowChoice	Loss
58.307	1.0	0.028	100.897	4.0	1	13.3	3.8	12.9125	955.0	2.48	Outcome2	7.6	13.3	0.0	No	n/a	5.70101925254813	n/a	n/a	n/a	ShowResult	Loss
59.327	2.011	0.02	101.917	4.0	1	13.3	3.8	12.9125	955.0	2.48	Outcome2	7.6	13.3	0.0	No	n/a	5.70101925254813	n/a	n/a	n/a	ISITrial	Loss
61.367	3.0	0.029	103.957	5.0	1	5.66	2.83	13.62	955.0	2.0	Outcome2	6.9	5.66	2.5825	Yes	2.0	-1.23867497168743	2.013	63.38	n/a	GetAnswer	Gain
63.406	4.0	0.026	105.996	5.0	1	5.66	2.83	13.62	955.0	2.0	Outcome2	6.9	5.66	2.5825	Yes	n/a	-1.23867497168743	n/a	n/a	n/a	ShowChoice	Gain
67.435	1.0	0.029	110.025	5.0	1	5.66	2.83	13.62	955.0	2.0	Outcome2	6.9	5.66	2.5825	Yes	n/a	-1.23867497168743	n/a	n/a	n/a	ShowResult	Gain
68.454	5.129	0.019	111.044	5.0	1	5.66	2.83	13.62	955.0	2.0	Outcome2	6.9	5.66	2.5825	Yes	n/a	-1.23867497168743	n/a	n/a	n/a	ISITrial	Gain
73.603	2.582	0.02	116.193	5.0	1	5.66	2.83	13.62	955.0	2.0	Outcome2	6.9	5.66	2.5825	Yes	n/a	-1.23867497168743	n/a	n/a	n/a	TrialHappPreview	Gain
76.211	4.012	0.026	118.801	5.0	1	5.66	2.83	13.62	955.0	2.0	Outcome2	6.9	5.66	2.5825	Yes	n/a	-1.23867497168743	n/a	n/a	672.0	TrialHappiness	Gain
76.211	2.127	n/a	119.489	5.0	1	5.66	2.83	13.62	955.0	2.0	Outcome2	6.9	5.66	2.5825	Yes	n/a	-1.23867497168743	n/a	n/a	672.0	TrialHappinessSliderResponse	Gain
80.223	2.33	4.012	122.813	5.0	1	5.66	2.83	13.62	955.0	2.0	Outcome2	6.9	5.66	2.5825	Yes	n/a	-1.23867497168743	n/a	n/a	n/a	ISIRate	Gain
82.58	3.0	0.027	125.17	6.0	1	2.0	2.0	13.87	955.0	0.3	Certain	2.7	1.42	0.0	No	4.0	-1.28123820309551	2.545	85.125	n/a	GetAnswer	Mixed
85.154	4.0	0.029	127.744	6.0	1	2.0	2.0	13.87	955.0	0.3	Certain	2.7	1.42	0.0	No	n/a	-1.28123820309551	n/a	n/a	n/a	ShowChoice	Mixed
89.166	1.0	0.012	131.756	6.0	1	2.0	2.0	13.87	955.0	0.3	Certain	2.7	1.42	0.0	No	n/a	-1.28123820309551	n/a	n/a	n/a	ShowResult	Mixed
90.186	6.232	0.02	132.776	6.0	1	2.0	2.0	13.87	955.0	0.3	Certain	2.7	1.42	0.0	No	n/a	-1.28123820309551	n/a	n/a	n/a	ISITrial	Mixed
96.438	3.0	0.02	139.028	7.0	1	-3.0	-3.0	13.495	955.0	0.2	Certain	0.5	-6.22	0.0	No	4.0	6.72140430351076	2.687	99.125	n/a	GetAnswer	Mixed
99.146	4.0	0.021	141.736	7.0	1	-3.0	-3.0	13.495	955.0	0.2	Certain	0.5	-6.22	0.0	No	n/a	6.72140430351076	n/a	n/a	n/a	ShowChoice	Mixed
103.158	1.0	0.012	145.748	7.0	1	-3.0	-3.0	13.495	955.0	0.2	Certain	0.5	-6.22	0.0	No	n/a	6.72140430351076	n/a	n/a	n/a	ShowResult	Mixed
104.178	2.305	0.02	146.768	7.0	1	-3.0	-3.0	13.495	955.0	0.2	Certain	0.5	-6.22	0.0	No	n/a	6.72140430351076	n/a	n/a	n/a	ISITrial	Mixed
106.501	3.0	0.018	149.091	8.0	1	6.7	-0.17	14.3325	955.0	1.82	Outcome1	6.7	-0.34	3.1125	Yes	2.0	7.04190260475651	2.319	108.82	n/a	GetAnswer	Gain
108.842	4.0	0.022	151.432	8.0	1	6.7	-0.17	14.3325	955.0	1.82	Outcome1	6.7	-0.34	3.1125	Yes	n/a	7.04190260475651	n/a	n/a	n/a	ShowChoice	Gain
112.854	1.0	0.012	155.444	8.0	1	6.7	-0.17	14.3325	955.0	1.82	Outcome1	6.7	-0.34	3.1125	Yes	n/a	7.04190260475651	n/a	n/a	n/a	ShowResult	Gain
113.873	3.506	0.019	156.463	8.0	1	6.7	-0.17	14.3325	955.0	1.82	Outcome1	6.7	-0.34	3.1125	Yes	n/a	7.04190260475651	n/a	n/a	n/a	ISITrial	Gain
117.401	3.112	0.022	159.991	8.0	1	6.7	-0.17	14.3325	955.0	1.82	Outcome1	6.7	-0.34	3.1125	Yes	n/a	7.04190260475651	n/a	n/a	n/a	TrialHappPreview	Gain
120.543	4.029	0.03	163.133	8.0	1	6.7	-0.17	14.3325	955.0	1.82	Outcome1	6.7	-0.34	3.1125	Yes	n/a	7.04190260475651	n/a	n/a	668.0	TrialHappiness	Gain
120.544	1.915	n/a	163.782	8.0	1	6.7	-0.17	14.3325	955.0	1.82	Outcome1	6.7	-0.34	3.1125	Yes	n/a	7.04190260475651	n/a	n/a	668.0	TrialHappinessSliderResponse	Gain
124.572	4.45	4.029	167.162	8.0	1	6.7	-0.17	14.3325	955.0	1.82	Outcome1	6.7	-0.34	3.1125	Yes	n/a	7.04190260475651	n/a	n/a	n/a	ISIRate	Gain
129.052	3.0	0.03	171.642	9.0	1	2.5	-1.0	14.645	955.0	0.2	Outcome1	2.5	-4.93	0.0	No	2.0	7.430351075877691	2.285	131.337	n/a	GetAnswer	Mixed
131.359	4.0	0.022	173.949	9.0	1	2.5	-1.0	14.645	955.0	0.2	Outcome1	2.5	-4.93	0.0	No	n/a	7.430351075877691	n/a	n/a	n/a	ShowChoice	Mixed
135.388	1.0	0.029	177.978	9.0	1	2.5	-1.0	14.645	955.0	0.2	Outcome1	2.5	-4.93	0.0	No	n/a	7.430351075877691	n/a	n/a	n/a	ShowResult	Mixed
136.407	2.0	0.019	178.997	9.0	1	2.5	-1.0	14.645	955.0	0.2	Outcome1	2.5	-4.93	0.0	No	n/a	7.430351075877691	n/a	n/a	n/a	ISITrial	Mixed
138.43	3.0	0.023	181.02	10.0	1	11.3	1.77	16.0575	955.0	2.48	Outcome2	3.54	11.3	4.0	Yes	2.0	7.755379388448469	1.338	139.768	n/a	GetAnswer	Loss
139.784	4.0	0.016	182.374	10.0	1	11.3	1.77	16.0575	955.0	2.48	Outcome2	3.54	11.3	4.0	Yes	n/a	7.755379388448469	n/a	n/a	n/a	ShowChoice	Loss
143.796	1.0	0.012	186.386	10.0	1	11.3	1.77	16.0575	955.0	2.48	Outcome2	3.54	11.3	4.0	Yes	n/a	7.755379388448469	n/a	n/a	n/a	ShowResult	Loss
144.816	2.0	0.02	187.406	10.0	1	11.3	1.77	16.0575	955.0	2.48	Outcome2	3.54	11.3	4.0	Yes	n/a	7.755379388448469	n/a	n/a	n/a	ISITrial	Loss
146.838	4.0	0.022	189.428	10.0	1	11.3	1.77	16.0575	955.0	2.48	Outcome2	3.54	11.3	4.0	Yes	n/a	7.755379388448469	n/a	n/a	n/a	TrialHappPreview	Loss
150.867	4.029	0.029	193.457	10.0	1	11.3	1.77	16.0575	955.0	2.48	Outcome2	3.54	11.3	4.0	Yes	n/a	7.755379388448469	n/a	n/a	720.0	TrialHappiness	Loss
150.868	1.525	n/a	193.78	10.0	1	11.3	1.77	16.0575	955.0	2.48	Outcome2	3.54	11.3	4.0	Yes	n/a	7.755379388448469	n/a	n/a	720.0	TrialHappinessSliderResponse	Loss
154.896	8.0	4.029	197.486	10.0	1	11.3	1.77	16.0575	955.0	2.48	Outcome2	3.54	11.3	4.0	Yes	n/a	7.755379388448469	n/a	n/a	n/a	ISIRate	Loss
162.92	3.0	0.024	205.51	11.0	1	-4.0	-4.0	15.5575	955.0	1.0	Certain	-0.3	-7.5	0.0	No	4.0	7.197055492638731	2.763	165.683	n/a	GetAnswer	Mixed
165.711	4.0	0.028	208.301	11.0	1	-4.0	-4.0	15.5575	955.0	1.0	Certain	-0.3	-7.5	0.0	No	n/a	7.197055492638731	n/a	n/a	n/a	ShowChoice	Mixed
169.74	1.0	0.029	212.33	11.0	1	-4.0	-4.0	15.5575	955.0	1.0	Certain	-0.3	-7.5	0.0	No	n/a	7.197055492638731	n/a	n/a	n/a	ShowResult	Mixed
170.76	3.324	0.02	213.35	11.0	1	-4.0	-4.0	15.5575	955.0	1.0	Certain	-0.3	-7.5	0.0	No	n/a	7.197055492638731	n/a	n/a	n/a	ISITrial	Mixed
174.103	3.0	0.019	216.693	12.0	1	0.86	1.0	15.665	955.0	1.5	Outcome1	0.86	2.1	2.61875	Yes	2.0	-1.24292185730464	1.953	176.056	n/a	GetAnswer	Mixed
176.076	4.0	0.02	218.666	12.0	1	0.86	1.0	15.665	955.0	1.5	Outcome1	0.86	2.1	2.61875	Yes	n/a	-1.24292185730464	n/a	n/a	n/a	ShowChoice	Mixed
180.104	1.0	0.028	222.694	12.0	1	0.86	1.0	15.665	955.0	1.5	Outcome1	0.86	2.1	2.61875	Yes	n/a	-1.24292185730464	n/a	n/a	n/a	ShowResult	Mixed
181.124	6.642	0.02	223.714	12.0	1	0.86	1.0	15.665	955.0	1.5	Outcome1	0.86	2.1	2.61875	Yes	n/a	-1.24292185730464	n/a	n/a	n/a	ISITrial	Mixed
187.794	2.619	0.028	230.384	12.0	1	0.86	1.0	15.665	955.0	1.5	Outcome1	0.86	2.1	2.61875	Yes	n/a	-1.24292185730464	n/a	n/a	n/a	TrialHappPreview	Mixed
190.435	4.029	0.022	233.025	12.0	1	0.86	1.0	15.665	955.0	1.5	Outcome1	0.86	2.1	2.61875	Yes	n/a	-1.24292185730464	n/a	n/a	732.0	TrialHappiness	Mixed
190.436	2.436	n/a	233.751	12.0	1	0.86	1.0	15.665	955.0	1.5	Outcome1	0.86	2.1	2.61875	Yes	n/a	-1.24292185730464	n/a	n/a	732.0	TrialHappinessSliderResponse	Mixed
194.464	2.475	4.029	237.054	12.0	1	0.86	1.0	15.665	955.0	1.5	Outcome1	0.86	2.1	2.61875	Yes	n/a	-1.24292185730464	n/a	n/a	n/a	ISIRate	Mixed
196.971	3.0	0.032	239.561	13.0	1	11.68	5.84	17.125	955.0	2.0	Outcome2	12.9	11.68	0.0	No	2.0	-1.21640241600604	1.303	198.274	n/a	GetAnswer	Loss
198.292	4.0	0.018	240.882	13.0	1	11.68	5.84	17.125	955.0	2.0	Outcome2	12.9	11.68	0.0	No	n/a	-1.21640241600604	n/a	n/a	n/a	ShowChoice	Loss
202.304	1.0	0.012	244.894	13.0	1	11.68	5.84	17.125	955.0	2.0	Outcome2	12.9	11.68	0.0	No	n/a	-1.21640241600604	n/a	n/a	n/a	ShowResult	Loss
203.324	3.48	0.02	245.914	13.0	1	11.68	5.84	17.125	955.0	2.0	Outcome2	12.9	11.68	0.0	No	n/a	-1.21640241600604	n/a	n/a	n/a	ISITrial	Loss
206.834	3.0	0.03	249.424	14.0	1	12.5	2.36	18.6875	955.0	1.68	Outcome1	12.5	4.72	0.0	No	2.0	7.778029445073611	1.484	208.318	n/a	GetAnswer	Loss
208.339	4.0	0.021	250.929	14.0	1	12.5	2.36	18.6875	955.0	1.68	Outcome1	12.5	4.72	0.0	No	n/a	7.778029445073611	n/a	n/a	n/a	ShowChoice	Loss
212.367	1.0	0.028	254.957	14.0	1	12.5	2.36	18.6875	955.0	1.68	Outcome1	12.5	4.72	0.0	No	n/a	7.778029445073611	n/a	n/a	n/a	ShowResult	Loss
213.387	5.019	0.02	255.977	14.0	1	12.5	2.36	18.6875	955.0	1.68	Outcome1	12.5	4.72	0.0	No	n/a	7.778029445073611	n/a	n/a	n/a	ISITrial	Loss
218.436	3.0	0.03	261.026	15.0	1	5.5	1.0	19.375	955.0	2.8	Outcome1	5.5	-2.53	3.3485	Yes	2.0	8.03057757644394	2.633	221.069	n/a	GetAnswer	Gain
221.094	4.0	0.025	263.684	15.0	1	5.5	1.0	19.375	955.0	2.8	Outcome1	5.5	-2.53	3.3485	Yes	n/a	8.03057757644394	n/a	n/a	n/a	ShowChoice	Gain
225.122	1.0	0.028	267.712	15.0	1	5.5	1.0	19.375	955.0	2.8	Outcome1	5.5	-2.53	3.3485	Yes	n/a	8.03057757644394	n/a	n/a	n/a	ShowResult	Gain
226.142	7.614	0.02	268.732	15.0	1	5.5	1.0	19.375	955.0	2.8	Outcome1	5.5	-2.53	3.3485	Yes	n/a	8.03057757644394	n/a	n/a	n/a	ISITrial	Gain
233.781	3.348	0.025	276.371	15.0	1	5.5	1.0	19.375	955.0	2.8	Outcome1	5.5	-2.53	3.3485	Yes	n/a	8.03057757644394	n/a	n/a	n/a	TrialHappPreview	Gain
237.158	4.029	0.029	279.748	15.0	1	5.5	1.0	19.375	955.0	2.8	Outcome1	5.5	-2.53	3.3485	Yes	n/a	8.03057757644394	n/a	n/a	736.0	TrialHappiness	Gain
237.159	1.69	n/a	280.908	15.0	1	5.5	1.0	19.375	955.0	2.8	Outcome1	5.5	-2.53	3.3485	Yes	n/a	8.03057757644394	n/a	n/a	736.0	TrialHappinessSliderResponse	Gain
241.187	5.394	4.029	283.777	15.0	1	5.5	1.0	19.375	955.0	2.8	Outcome1	5.5	-2.53	3.3485	Yes	n/a	8.03057757644394	n/a	n/a	n/a	ISIRate	Gain
246.603	3.0	0.022	289.193	16.0	1	4.9	1.0	19.9875	955.0	2.0	Outcome2	-3.32	4.9	0.0	No	2.0	8.21517553793884	1.797	248.4	n/a	GetAnswer	Gain
248.425	4.0	0.025	291.015	16.0	1	4.9	1.0	19.9875	955.0	2.0	Outcome2	-3.32	4.9	0.0	No	n/a	8.21517553793884	n/a	n/a	n/a	ShowChoice	Gain
252.437	1.0	0.012	295.027	16.0	1	4.9	1.0	19.9875	955.0	2.0	Outcome2	-3.32	4.9	0.0	No	n/a	8.21517553793884	n/a	n/a	n/a	ShowResult	Gain
253.457	3.008	0.02	296.047	16.0	1	4.9	1.0	19.9875	955.0	2.0	Outcome2	-3.32	4.9	0.0	No	n/a	8.21517553793884	n/a	n/a	n/a	ISITrial	Gain
256.499	3.0	0.034	299.089	17.0	1	13.9	2.72	21.725	955.0	3.6	Outcome1	13.9	5.44	3.0415	Yes	2.0	8.463193657984151	1.362	257.861	n/a	GetAnswer	Loss
257.887	4.0	0.026	300.477	17.0	1	13.9	2.72	21.725	955.0	3.6	Outcome1	13.9	5.44	3.0415	Yes	n/a	8.463193657984151	n/a	n/a	n/a	ShowChoice	Loss
261.915	1.0	0.028	304.505	17.0	1	13.9	2.72	21.725	955.0	3.6	Outcome1	13.9	5.44	3.0415	Yes	n/a	8.463193657984151	n/a	n/a	n/a	ShowResult	Loss
262.935	3.566	0.02	305.525	17.0	1	13.9	2.72	21.725	955.0	3.6	Outcome1	13.9	5.44	3.0415	Yes	n/a	8.463193657984151	n/a	n/a	n/a	ISITrial	Loss
266.529	3.042	0.028	309.119	17.0	1	13.9	2.72	21.725	955.0	3.6	Outcome1	13.9	5.44	3.0415	Yes	n/a	8.463193657984151	n/a	n/a	n/a	TrialHappPreview	Loss
269.588	4.012	0.017	312.178	17.0	1	13.9	2.72	21.725	955.0	3.6	Outcome1	13.9	5.44	3.0415	Yes	n/a	8.463193657984151	n/a	n/a	736.0	TrialHappiness	Loss
269.589	0.613	n/a	313.043	17.0	1	13.9	2.72	21.725	955.0	3.6	Outcome1	13.9	5.44	3.0415	Yes	n/a	8.463193657984151	n/a	n/a	736.0	TrialHappinessSliderResponse	Loss
273.6	4.166	4.012	316.19	17.0	1	13.9	2.72	21.725	955.0	3.6	Outcome1	13.9	5.44	3.0415	Yes	n/a	8.463193657984151	n/a	n/a	n/a	ISIRate	Loss
277.796	3.0	0.03	320.386	18.0	1	-3.0	-3.0	21.35	955.0	0.82	Certain	1.5	-7.21	0.0	No	4.0	8.71121177802944	2.251	280.047	n/a	GetAnswer	Mixed
280.07	4.0	0.023	322.66	18.0	1	-3.0	-3.0	21.35	955.0	0.82	Certain	1.5	-7.21	0.0	No	n/a	8.71121177802944	n/a	n/a	n/a	ShowChoice	Mixed
284.082	1.0	0.012	326.672	18.0	1	-3.0	-3.0	21.35	955.0	0.82	Certain	1.5	-7.21	0.0	No	n/a	8.71121177802944	n/a	n/a	n/a	ShowResult	Mixed
285.101	6.787	0.019	327.691	18.0	1	-3.0	-3.0	21.35	955.0	0.82	Certain	1.5	-7.21	0.0	No	n/a	8.71121177802944	n/a	n/a	n/a	ISITrial	Mixed
291.905	3.0	0.017	334.495	19.0	1	-1.0	-1.0	21.225	955.0	0.52	Certain	-0.9	-2.23	0.0	No	4.0	-1.3253114382786002	2.689	294.594	n/a	GetAnswer	Mixed
294.613	4.0	0.019	337.203	19.0	1	-1.0	-1.0	21.225	955.0	0.52	Certain	-0.9	-2.23	0.0	No	n/a	-1.3253114382786002	n/a	n/a	n/a	ShowChoice	Mixed
298.625	1.0	0.012	341.215	19.0	1	-1.0	-1.0	21.225	955.0	0.52	Certain	-0.9	-2.23	0.0	No	n/a	-1.3253114382786002	n/a	n/a	n/a	ShowResult	Mixed
299.645	2.0	0.02	342.235	19.0	1	-1.0	-1.0	21.225	955.0	0.52	Certain	-0.9	-2.23	0.0	No	n/a	-1.3253114382786002	n/a	n/a	n/a	ISITrial	Mixed
301.668	3.0	0.023	344.258	20.0	1	6.3	1.0	22.0125	955.0	5.0	Outcome2	-2.91	6.3	2.92125	Yes	2.0	9.20724801812004	2.437	304.105	n/a	GetAnswer	Gain
304.125	4.0	0.02	346.715	20.0	1	6.3	1.0	22.0125	955.0	5.0	Outcome2	-2.91	6.3	2.92125	Yes	n/a	9.20724801812004	n/a	n/a	n/a	ShowChoice	Gain
308.137	1.0	0.012	350.727	20.0	1	6.3	1.0	22.0125	955.0	5.0	Outcome2	-2.91	6.3	2.92125	Yes	n/a	9.20724801812004	n/a	n/a	n/a	ShowResult	Gain
309.157	8.0	0.02	351.747	20.0	1	6.3	1.0	22.0125	955.0	5.0	Outcome2	-2.91	6.3	2.92125	Yes	n/a	9.20724801812004	n/a	n/a	n/a	ISITrial	Gain
317.18	2.921	0.023	359.77	20.0	1	6.3	1.0	22.0125	955.0	5.0	Outcome2	-2.91	6.3	2.92125	Yes	n/a	9.20724801812004	n/a	n/a	n/a	TrialHappPreview	Gain
320.123	4.028	0.022	362.713	20.0	1	6.3	1.0	22.0125	955.0	5.0	Outcome2	-2.91	6.3	2.92125	Yes	n/a	9.20724801812004	n/a	n/a	728.0	TrialHappiness	Gain
320.123	1.035	n/a	363.524	20.0	1	6.3	1.0	22.0125	955.0	5.0	Outcome2	-2.91	6.3	2.92125	Yes	n/a	9.20724801812004	n/a	n/a	728.0	TrialHappinessSliderResponse	Gain
324.151	3.685	4.028	366.741	20.0	1	6.3	1.0	22.0125	955.0	5.0	Outcome2	-2.91	6.3	2.92125	Yes	n/a	9.20724801812004	n/a	n/a	n/a	ISIRate	Gain
327.862	3.0	0.026	370.452	21.0	1	7.7	3.85	22.975	955.0	2.22	Outcome2	9.1	7.7	0.0	No	2.0	-1.39911287278218	1.531	329.393	n/a	GetAnswer	Gain
329.417	4.0	0.024	372.007	21.0	1	7.7	3.85	22.975	955.0	2.22	Outcome2	9.1	7.7	0.0	No	n/a	-1.39911287278218	n/a	n/a	n/a	ShowChoice	Gain
333.429	1.0	0.012	376.019	21.0	1	7.7	3.85	22.975	955.0	2.22	Outcome2	9.1	7.7	0.0	No	n/a	-1.39911287278218	n/a	n/a	n/a	ShowResult	Gain
334.449	3.555	0.02	377.039	21.0	1	7.7	3.85	22.975	955.0	2.22	Outcome2	9.1	7.7	0.0	No	n/a	-1.39911287278218	n/a	n/a	n/a	ISITrial	Gain
338.026	3.0	0.022	380.616	22.0	1	13.7	1.92	24.6875	955.0	3.16	Outcome2	3.85	13.7	3.2195	Yes	2.0	9.84824462061155	1.293	339.319	n/a	GetAnswer	Loss
339.347	4.0	0.028	381.937	22.0	1	13.7	1.92	24.6875	955.0	3.16	Outcome2	3.85	13.7	3.2195	Yes	n/a	9.84824462061155	n/a	n/a	n/a	ShowChoice	Loss
343.359	1.0	0.012	385.949	22.0	1	13.7	1.92	24.6875	955.0	3.16	Outcome2	3.85	13.7	3.2195	Yes	n/a	9.84824462061155	n/a	n/a	n/a	ShowResult	Loss
344.378	6.793	0.019	386.968	22.0	1	13.7	1.92	24.6875	955.0	3.16	Outcome2	3.85	13.7	3.2195	Yes	n/a	9.84824462061155	n/a	n/a	n/a	ISITrial	Loss
351.182	3.22	0.011	393.772	22.0	1	13.7	1.92	24.6875	955.0	3.16	Outcome2	3.85	13.7	3.2195	Yes	n/a	9.84824462061155	n/a	n/a	n/a	TrialHappPreview	Loss
354.425	4.012	0.023	397.015	22.0	1	13.7	1.92	24.6875	955.0	3.16	Outcome2	3.85	13.7	3.2195	Yes	2{-2}2{-2}2{-2}4{-4}4{-4}	9.84824462061155	3.367	357.792	712.0	TrialHappiness	Loss
354.426	2.496	n/a	397.887	22.0	1	13.7	1.92	24.6875	955.0	3.16	Outcome2	3.85	13.7	3.2195	Yes	n/a	9.84824462061155	n/a	n/a	712.0	TrialHappinessSliderResponse	Loss
358.437	4.878	4.012	401.027	22.0	1	13.7	1.92	24.6875	955.0	3.16	Outcome2	3.85	13.7	3.2195	Yes	n/a	9.84824462061155	n/a	n/a	n/a	ISIRate	Loss
363.335	3.0	0.02	405.925	23.0	1	-1.5	-6.0	24.5	955.0	0.2	Outcome1	-1.5	-11.88	0.0	No	n/a	10.3771234428086	n/a	n/a	n/a	GetAnswer	Mixed
366.361	4.0	0.026	408.951	23.0	1	-1.5	-6.0	24.5	955.0	0.2	Outcome1	-1.5	-11.88	0.0	No	n/a	10.3771234428086	n/a	n/a	n/a	ShowChoice	Mixed
370.373	1.0	0.012	412.963	23.0	1	-1.5	-6.0	24.5	955.0	0.2	Outcome1	-1.5	-11.88	0.0	No	n/a	10.3771234428086	n/a	n/a	n/a	ShowResult	Mixed
371.392	8.0	0.019	413.982	23.0	1	-1.5	-6.0	24.5	955.0	0.2	Outcome1	-1.5	-11.88	0.0	No	n/a	10.3771234428086	n/a	n/a	n/a	ISITrial	Mixed
379.416	3.0	0.024	422.006	24.0	1	8.9	-0.88	25.6125	955.0	2.0	Outcome2	-1.75	8.9	3.255	Yes	2.0	10.6523216308041	1.65	381.066	n/a	GetAnswer	Gain
381.088	4.0	0.022	423.678	24.0	1	8.9	-0.88	25.6125	955.0	2.0	Outcome2	-1.75	8.9	3.255	Yes	n/a	10.6523216308041	n/a	n/a	n/a	ShowChoice	Gain
385.1	1.0	0.012	427.69	24.0	1	8.9	-0.88	25.6125	955.0	2.0	Outcome2	-1.75	8.9	3.255	Yes	n/a	10.6523216308041	n/a	n/a	n/a	ShowResult	Gain
386.12	2.0	0.02	428.71	24.0	1	8.9	-0.88	25.6125	955.0	2.0	Outcome2	-1.75	8.9	3.255	Yes	n/a	10.6523216308041	n/a	n/a	n/a	ISITrial	Gain
388.142	3.255	0.022	430.732	24.0	1	8.9	-0.88	25.6125	955.0	2.0	Outcome2	-1.75	8.9	3.255	Yes	n/a	10.6523216308041	n/a	n/a	n/a	TrialHappPreview	Gain
391.419	4.012	0.022	434.009	24.0	1	8.9	-0.88	25.6125	955.0	2.0	Outcome2	-1.75	8.9	3.255	Yes	n/a	10.6523216308041	n/a	n/a	704.0	TrialHappiness	Gain
391.42	1.243	n/a	435.349	24.0	1	8.9	-0.88	25.6125	955.0	2.0	Outcome2	-1.75	8.9	3.255	Yes	n/a	10.6523216308041	n/a	n/a	704.0	TrialHappinessSliderResponse	Gain
395.431	5.02	4.012	438.021	24.0	1	8.9	-0.88	25.6125	955.0	2.0	Outcome2	-1.75	8.9	3.255	Yes	n/a	10.6523216308041	n/a	n/a	n/a	ISIRate	Gain
400.479	3.0	0.028	443.069	25.0	1	1.51	2.0	25.8013	955.0	0.52	Outcome2	3.1	1.51	0.0	No	2.0	-1.58522083805209	1.252	401.731	n/a	GetAnswer	Mixed
401.75	4.0	0.019	444.34	25.0	1	1.51	2.0	25.8013	955.0	0.52	Outcome2	3.1	1.51	0.0	No	n/a	-1.58522083805209	n/a	n/a	n/a	ShowChoice	Mixed
405.762	1.0	0.012	448.352	25.0	1	1.51	2.0	25.8013	955.0	0.52	Outcome2	3.1	1.51	0.0	No	n/a	-1.58522083805209	n/a	n/a	n/a	ShowResult	Mixed
406.781	3.749	0.019	449.371	25.0	1	1.51	2.0	25.8013	955.0	0.52	Outcome2	3.1	1.51	0.0	No	n/a	-1.58522083805209	n/a	n/a	n/a	ISITrial	Mixed
410.559	3.0	0.029	453.149	26.0	1	2.49	1.25	26.1126	955.0	1.5	Outcome1	2.49	4.1	0.0	No	2.0	-1.60890902227256	1.741	412.3	n/a	GetAnswer	Mixed
412.315	4.0	0.015	454.905	26.0	1	2.49	1.25	26.1126	955.0	1.5	Outcome1	2.49	4.1	0.0	No	n/a	-1.60890902227256	n/a	n/a	n/a	ShowChoice	Mixed
416.327	1.0	0.012	458.917	26.0	1	2.49	1.25	26.1126	955.0	1.5	Outcome1	2.49	4.1	0.0	No	n/a	-1.60890902227256	n/a	n/a	n/a	ShowResult	Mixed
417.346	7.834	0.019	459.936	26.0	1	2.49	1.25	26.1126	955.0	1.5	Outcome1	2.49	4.1	0.0	No	n/a	-1.60890902227256	n/a	n/a	n/a	ISITrial	Mixed
425.203	3.0	0.023	467.793	27.0	1	10.67	5.34	27.4464	955.0	5.0	Outcome2	12.3	10.67	2.54975	Yes	2.0	-1.63259720649302	1.229	426.432	n/a	GetAnswer	Loss
426.457	4.0	0.025	469.047	27.0	1	10.67	5.34	27.4464	955.0	5.0	Outcome2	12.3	10.67	2.54975	Yes	n/a	-1.63259720649302	n/a	n/a	n/a	ShowChoice	Loss
430.469	1.0	0.012	473.059	27.0	1	10.67	5.34	27.4464	955.0	5.0	Outcome2	12.3	10.67	2.54975	Yes	n/a	-1.63259720649302	n/a	n/a	n/a	ShowResult	Loss
431.489	4.225	0.02	474.079	27.0	1	10.67	5.34	27.4464	955.0	5.0	Outcome2	12.3	10.67	2.54975	Yes	n/a	-1.63259720649302	n/a	n/a	n/a	ISITrial	Loss
435.735	2.55	0.021	478.325	27.0	1	10.67	5.34	27.4464	955.0	5.0	Outcome2	12.3	10.67	2.54975	Yes	n/a	-1.63259720649302	n/a	n/a	n/a	TrialHappPreview	Loss
438.309	4.012	0.024	480.899	27.0	1	10.67	5.34	27.4464	955.0	5.0	Outcome2	12.3	10.67	2.54975	Yes	n/a	-1.63259720649302	n/a	n/a	744.0	TrialHappiness	Loss
438.31	1.394	n/a	481.619	27.0	1	10.67	5.34	27.4464	955.0	5.0	Outcome2	12.3	10.67	2.54975	Yes	n/a	-1.63259720649302	n/a	n/a	744.0	TrialHappinessSliderResponse	Loss
442.321	2.199	4.012	484.911	27.0	1	10.67	5.34	27.4464	955.0	5.0	Outcome2	12.3	10.67	2.54975	Yes	n/a	-1.63259720649302	n/a	n/a	n/a	ISIRate	Loss
466.928	1.276	n/a	510.372	n/a	1	n/a	n/a	n/a	n/a	n/a	n/a	n/a	n/a	n/a	n/a	n/a	n/a	n/a	n/a	704.0	BlockStartHappinessSliderResponse	n/a
-73.403	-0.001	0.024	487.134	n/a	2	n/a	n/a	n/a	n/a	n/a	n/a	n/a	n/a	n/a	n/a	2.0	n/a	18.354	-55.049	n/a	Rest	n/a
-55.031	4.0	0.018	505.506	n/a	2	n/a	n/a	n/a	n/a	n/a	n/a	n/a	n/a	n/a	n/a	n/a	n/a	n/a	n/a	n/a	BlockHappyPreview	n/a
-51.019	2.13	0.012	509.518	n/a	2	n/a	n/a	n/a	n/a	n/a	n/a	n/a	n/a	n/a	n/a	n/a	n/a	n/a	n/a	704.0	BlockStartHappiness	n/a
-0.034	-0.001	0.014	560.503	n/a	2	n/a	n/a	n/a	n/a	n/a	n/a	n/a	n/a	n/a	n/a	5.0	n/a	0.009	-0.025	n/a	ScanWait	n/a
0.0	10.0	0.025	560.537	n/a	2	n/a	n/a	n/a	n/a	n/a	n/a	n/a	n/a	n/a	n/a	n/a	n/a	n/a	n/a	n/a	GetReady	n/a
10.013	3.0	0.013	570.55	28.0	2	-4.68	0.0	26.8614	70.0	4.2	Outcome2	6.1	-4.68	0.0	No	2.0	-10.7823129251701	1.642	11.655	n/a	GetAnswer	Gain
11.668	4.0	0.013	572.205	28.0	2	-4.68	0.0	26.8614	70.0	4.2	Outcome2	6.1	-4.68	0.0	No	n/a	-10.7823129251701	n/a	n/a	n/a	ShowChoice	Gain
15.68	1.0	0.012	576.217	28.0	2	-4.68	0.0	26.8614	70.0	4.2	Outcome2	6.1	-4.68	0.0	No	n/a	-10.7823129251701	n/a	n/a	n/a	ShowResult	Gain
16.7	3.575	0.02	577.237	28.0	2	-4.68	0.0	26.8614	70.0	4.2	Outcome2	6.1	-4.68	0.0	No	n/a	-10.7823129251701	n/a	n/a	n/a	ISITrial	Gain
20.294	3.0	0.019	580.831	29.0	2	-4.0	-4.0	26.3614	70.0	0.52	Certain	1.1	-10.4	3.529	Yes	4.0	-11.5011337868481	2.149	22.443	n/a	GetAnswer	Mixed
22.467	4.0	0.024	583.004	29.0	2	-4.0	-4.0	26.3614	70.0	0.52	Certain	1.1	-10.4	3.529	Yes	n/a	-11.5011337868481	n/a	n/a	n/a	ShowChoice	Mixed
26.479	1.0	0.012	587.016	29.0	2	-4.0	-4.0	26.3614	70.0	0.52	Certain	1.1	-10.4	3.529	Yes	n/a	-11.5011337868481	n/a	n/a	n/a	ShowResult	Mixed
27.499	3.955	0.02	588.036	29.0	2	-4.0	-4.0	26.3614	70.0	0.52	Certain	1.1	-10.4	3.529	Yes	n/a	-11.5011337868481	n/a	n/a	n/a	ISITrial	Mixed
31.477	3.529	0.023	592.014	29.0	2	-4.0	-4.0	26.3614	70.0	0.52	Certain	1.1	-10.4	3.529	Yes	n/a	-11.5011337868481	n/a	n/a	n/a	TrialHappPreview	Mixed
35.021	4.012	0.015	595.558	29.0	2	-4.0	-4.0	26.3614	70.0	0.52	Certain	1.1	-10.4	3.529	Yes	n/a	-11.5011337868481	n/a	n/a	664.0	TrialHappiness	Mixed
35.022	0.459	n/a	596.176	29.0	2	-4.0	-4.0	26.3614	70.0	0.52	Certain	1.1	-10.4	3.529	Yes	n/a	-11.5011337868481	n/a	n/a	664.0	TrialHappinessSliderResponse	Mixed
39.033	6.116	4.012	599.57	29.0	2	-4.0	-4.0	26.3614	70.0	0.52	Certain	1.1	-10.4	3.529	Yes	n/a	-11.5011337868481	n/a	n/a	n/a	ISIRate	Mixed
45.168	3.0	0.019	605.705	30.0	2	0.56	0.28	26.4314	70.0	4.2	Outcome2	12.1	0.56	0.0	No	2.0	-11.5396825396825	1.751	46.919	n/a	GetAnswer	Loss
46.94	4.0	0.021	607.477	30.0	2	0.56	0.28	26.4314	70.0	4.2	Outcome2	12.1	0.56	0.0	No	n/a	-11.5396825396825	n/a	n/a	n/a	ShowChoice	Loss
50.952	1.0	0.012	611.489	30.0	2	0.56	0.28	26.4314	70.0	4.2	Outcome2	12.1	0.56	0.0	No	n/a	-11.5396825396825	n/a	n/a	n/a	ShowResult	Loss
51.972	4.453	0.02	612.509	30.0	2	0.56	0.28	26.4314	70.0	4.2	Outcome2	12.1	0.56	0.0	No	n/a	-11.5396825396825	n/a	n/a	n/a	ISITrial	Loss
56.452	3.0	0.027	616.989	31.0	2	0.0	0.0	26.4314	70.0	2.48	Certain	-1.27	1.32	2.50325	Yes	4.0	2.5891912320483703	2.084	58.536	n/a	GetAnswer	Gain
58.558	4.0	0.022	619.095	31.0	2	0.0	0.0	26.4314	70.0	2.48	Certain	-1.27	1.32	2.50325	Yes	n/a	2.5891912320483703	n/a	n/a	n/a	ShowChoice	Gain
62.57	1.0	0.012	623.107	31.0	2	0.0	0.0	26.4314	70.0	2.48	Certain	-1.27	1.32	2.50325	Yes	n/a	2.5891912320483703	n/a	n/a	n/a	ShowResult	Gain
63.59	4.786	0.02	624.127	31.0	2	0.0	0.0	26.4314	70.0	2.48	Certain	-1.27	1.32	2.50325	Yes	n/a	2.5891912320483703	n/a	n/a	n/a	ISITrial	Gain
68.387	2.503	0.011	628.924	31.0	2	0.0	0.0	26.4314	70.0	2.48	Certain	-1.27	1.32	2.50325	Yes	n/a	2.5891912320483703	n/a	n/a	n/a	TrialHappPreview	Gain
70.912	4.012	0.022	631.449	31.0	2	0.0	0.0	26.4314	70.0	2.48	Certain	-1.27	1.32	2.50325	Yes	n/a	2.5891912320483703	n/a	n/a	664.0	TrialHappiness	Gain
70.912	1.033	n/a	632.278	31.0	2	0.0	0.0	26.4314	70.0	2.48	Certain	-1.27	1.32	2.50325	Yes	n/a	2.5891912320483703	n/a	n/a	664.0	TrialHappinessSliderResponse	Gain
74.924	2.013	4.012	635.461	31.0	2	0.0	0.0	26.4314	70.0	2.48	Certain	-1.27	1.32	2.50325	Yes	n/a	2.5891912320483703	n/a	n/a	n/a	ISIRate	Gain
76.963	3.0	0.026	637.5	32.0	2	2.38	1.0	26.7289	70.0	2.8	Outcome2	-0.27	2.38	0.0	No	2.0	2.6453136810279703	1.491	78.454	n/a	GetAnswer	Gain
78.467	4.0	0.013	639.004	32.0	2	2.38	1.0	26.7289	70.0	2.8	Outcome2	-0.27	2.38	0.0	No	n/a	2.6453136810279703	n/a	n/a	n/a	ShowChoice	Gain
82.479	1.0	0.012	643.016	32.0	2	2.38	1.0	26.7289	70.0	2.8	Outcome2	-0.27	2.38	0.0	No	n/a	2.6453136810279703	n/a	n/a	n/a	ShowResult	Gain
83.499	2.0	0.02	644.036	32.0	2	2.38	1.0	26.7289	70.0	2.8	Outcome2	-0.27	2.38	0.0	No	n/a	2.6453136810279703	n/a	n/a	n/a	ISITrial	Gain
85.522	3.0	0.023	646.059	33.0	2	-9.86	-3.0	25.4964	70.0	1.0	Outcome1	-9.86	3.7	0.0	No	2.0	-13.5600907029478	1.719	87.241	n/a	GetAnswer	Mixed
87.26	4.0	0.019	647.797	33.0	2	-9.86	-3.0	25.4964	70.0	1.0	Outcome1	-9.86	3.7	0.0	No	n/a	-13.5600907029478	n/a	n/a	n/a	ShowChoice	Mixed
91.272	1.0	0.012	651.809	33.0	2	-9.86	-3.0	25.4964	70.0	1.0	Outcome1	-9.86	3.7	0.0	No	n/a	-13.5600907029478	n/a	n/a	n/a	ShowResult	Mixed
92.292	5.099	0.02	652.829	33.0	2	-9.86	-3.0	25.4964	70.0	1.0	Outcome1	-9.86	3.7	0.0	No	n/a	-13.5600907029478	n/a	n/a	n/a	ISITrial	Mixed
97.407	3.0	0.016	657.944	34.0	2	-3.93	-1.96	25.0052	70.0	5.0	Outcome1	-3.93	10.3	3.2315	Yes	2.0	-14.2335600907029	2.82	100.227	n/a	GetAnswer	Gain
100.249	4.0	0.022	660.786	34.0	2	-3.93	-1.96	25.0052	70.0	5.0	Outcome1	-3.93	10.3	3.2315	Yes	n/a	-14.2335600907029	n/a	n/a	n/a	ShowChoice	Gain
104.261	1.0	0.012	664.798	34.0	2	-3.93	-1.96	25.0052	70.0	5.0	Outcome1	-3.93	10.3	3.2315	Yes	n/a	-14.2335600907029	n/a	n/a	n/a	ShowResult	Gain
105.281	4.784	0.02	665.818	34.0	2	-3.93	-1.96	25.0052	70.0	5.0	Outcome1	-3.93	10.3	3.2315	Yes	n/a	-14.2335600907029	n/a	n/a	n/a	ISITrial	Gain
110.078	3.232	0.013	670.615	34.0	2	-3.93	-1.96	25.0052	70.0	5.0	Outcome1	-3.93	10.3	3.2315	Yes	n/a	-14.2335600907029	n/a	n/a	n/a	TrialHappPreview	Gain
113.338	4.012	0.028	673.875	34.0	2	-3.93	-1.96	25.0052	70.0	5.0	Outcome1	-3.93	10.3	3.2315	Yes	n/a	-14.2335600907029	n/a	n/a	608.0	TrialHappiness	Gain
113.339	1.417	n/a	674.506	34.0	2	-3.93	-1.96	25.0052	70.0	5.0	Outcome1	-3.93	10.3	3.2315	Yes	n/a	-14.2335600907029	n/a	n/a	608.0	TrialHappinessSliderResponse	Gain
117.35	4.926	4.012	677.887	34.0	2	-3.93	-1.96	25.0052	70.0	5.0	Outcome1	-3.93	10.3	3.2315	Yes	n/a	-14.2335600907029	n/a	n/a	n/a	ISIRate	Gain
122.298	3.0	0.022	682.835	35.0	2	-3.25	-1.62	24.599	70.0	1.82	Outcome1	-3.25	10.7	0.0	No	2.0	-13.9546485260771	2.003	124.301	n/a	GetAnswer	Loss
124.321	4.0	0.02	684.858	35.0	2	-3.25	-1.62	24.599	70.0	1.82	Outcome1	-3.25	10.7	0.0	No	n/a	-13.9546485260771	n/a	n/a	n/a	ShowChoice	Loss
128.333	1.0	0.012	688.87	35.0	2	-3.25	-1.62	24.599	70.0	1.82	Outcome1	-3.25	10.7	0.0	No	n/a	-13.9546485260771	n/a	n/a	n/a	ShowResult	Loss
129.353	2.098	0.02	689.89	35.0	2	-3.25	-1.62	24.599	70.0	1.82	Outcome1	-3.25	10.7	0.0	No	n/a	-13.9546485260771	n/a	n/a	n/a	ISITrial	Loss
131.476	3.0	0.025	692.013	36.0	2	-8.66	-1.0	23.5165	70.0	3.6	Outcome2	5.9	-8.66	3.33575	Yes	2.0	-14.5646258503401	1.681	133.157	n/a	GetAnswer	Gain
133.181	4.0	0.024	693.718	36.0	2	-8.66	-1.0	23.5165	70.0	3.6	Outcome2	5.9	-8.66	3.33575	Yes	n/a	-14.5646258503401	n/a	n/a	n/a	ShowChoice	Gain
137.193	1.0	0.012	697.73	36.0	2	-8.66	-1.0	23.5165	70.0	3.6	Outcome2	5.9	-8.66	3.33575	Yes	n/a	-14.5646258503401	n/a	n/a	n/a	ShowResult	Gain
138.213	5.156	0.02	698.75	36.0	2	-8.66	-1.0	23.5165	70.0	3.6	Outcome2	5.9	-8.66	3.33575	Yes	n/a	-14.5646258503401	n/a	n/a	n/a	ISITrial	Gain
143.395	3.336	0.026	703.932	36.0	2	-8.66	-1.0	23.5165	70.0	3.6	Outcome2	5.9	-8.66	3.33575	Yes	n/a	-14.5646258503401	n/a	n/a	n/a	TrialHappPreview	Gain
146.755	4.012	0.024	707.292	36.0	2	-8.66	-1.0	23.5165	70.0	3.6	Outcome2	5.9	-8.66	3.33575	Yes	n/a	-14.5646258503401	n/a	n/a	576.0	TrialHappiness	Gain
146.755	1.134	n/a	707.735	36.0	2	-8.66	-1.0	23.5165	70.0	3.6	Outcome2	5.9	-8.66	3.33575	Yes	n/a	-14.5646258503401	n/a	n/a	576.0	TrialHappinessSliderResponse	Gain
150.767	5.343	4.012	711.304	36.0	2	-8.66	-1.0	23.5165	70.0	3.6	Outcome2	5.9	-8.66	3.33575	Yes	n/a	-14.5646258503401	n/a	n/a	n/a	ISIRate	Gain
156.133	3.0	0.023	716.67	37.0	2	-11.33	-4.0	22.1003	70.0	0.66	Outcome1	-11.33	3.3	0.0	No	2.0	-14.6303854875283	2.568	158.701	n/a	GetAnswer	Mixed
158.724	4.0	0.023	719.261	37.0	2	-11.33	-4.0	22.1003	70.0	0.66	Outcome1	-11.33	3.3	0.0	No	n/a	-14.6303854875283	n/a	n/a	n/a	ShowChoice	Mixed
162.736	1.0	0.012	723.273	37.0	2	-11.33	-4.0	22.1003	70.0	0.66	Outcome1	-11.33	3.3	0.0	No	n/a	-14.6303854875283	n/a	n/a	n/a	ShowResult	Mixed
163.755	3.598	0.019	724.292	37.0	2	-11.33	-4.0	22.1003	70.0	0.66	Outcome1	-11.33	3.3	0.0	No	n/a	-14.6303854875283	n/a	n/a	n/a	ISITrial	Mixed
167.383	3.0	0.03	727.92	38.0	2	-8.1	0.0	21.0878	70.0	2.22	Outcome1	-8.1	7.1	0.0	No	2.0	-15.2040816326531	1.344	168.727	n/a	GetAnswer	Gain
168.754	4.0	0.027	729.291	38.0	2	-8.1	0.0	21.0878	70.0	2.22	Outcome1	-8.1	7.1	0.0	No	n/a	-15.2040816326531	n/a	n/a	n/a	ShowChoice	Gain
172.766	1.0	0.012	733.303	38.0	2	-8.1	0.0	21.0878	70.0	2.22	Outcome1	-8.1	7.1	0.0	No	n/a	-15.2040816326531	n/a	n/a	n/a	ShowResult	Gain
173.785	4.787	0.019	734.322	38.0	2	-8.1	0.0	21.0878	70.0	2.22	Outcome1	-8.1	7.1	0.0	No	n/a	-15.2040816326531	n/a	n/a	n/a	ISITrial	Gain
178.6	3.0	0.028	739.137	39.0	2	-13.48	-5.0	19.4028	70.0	2.0	Outcome1	-13.48	2.3	2.86425	Yes	2.0	-15.7777777777778	1.724	180.324	n/a	GetAnswer	Mixed
180.338	4.0	0.014	740.875	39.0	2	-13.48	-5.0	19.4028	70.0	2.0	Outcome1	-13.48	2.3	2.86425	Yes	n/a	-15.7777777777778	n/a	n/a	n/a	ShowChoice	Mixed
184.35	1.0	0.012	744.887	39.0	2	-13.48	-5.0	19.4028	70.0	2.0	Outcome1	-13.48	2.3	2.86425	Yes	n/a	-15.7777777777778	n/a	n/a	n/a	ShowResult	Mixed
185.37	2.348	0.02	745.907	39.0	2	-13.48	-5.0	19.4028	70.0	2.0	Outcome1	-13.48	2.3	2.86425	Yes	n/a	-15.7777777777778	n/a	n/a	n/a	ISITrial	Mixed
187.744	2.864	0.026	748.281	39.0	2	-13.48	-5.0	19.4028	70.0	2.0	Outcome1	-13.48	2.3	2.86425	Yes	n/a	-15.7777777777778	n/a	n/a	n/a	TrialHappPreview	Mixed
190.636	4.012	0.028	751.173	39.0	2	-13.48	-5.0	19.4028	70.0	2.0	Outcome1	-13.48	2.3	2.86425	Yes	n/a	-15.7777777777778	n/a	n/a	552.0	TrialHappiness	Mixed
190.636	0.983	n/a	751.77	39.0	2	-13.48	-5.0	19.4028	70.0	2.0	Outcome1	-13.48	2.3	2.86425	Yes	n/a	-15.7777777777778	n/a	n/a	552.0	TrialHappinessSliderResponse	Mixed
194.648	3.457	4.012	755.185	39.0	2	-13.48	-5.0	19.4028	70.0	2.0	Outcome1	-13.48	2.3	2.86425	Yes	n/a	-15.7777777777778	n/a	n/a	n/a	ISIRate	Mixed
198.125	3.0	0.02	758.662	40.0	2	-10.84	-3.0	18.0478	70.0	2.22	Outcome2	5.1	-10.84	0.0	No	2.0	-15.9433106575964	2.049	200.174	n/a	GetAnswer	Gain
200.198	4.0	0.024	760.735	40.0	2	-10.84	-3.0	18.0478	70.0	2.22	Outcome2	5.1	-10.84	0.0	No	n/a	-15.9433106575964	n/a	n/a	n/a	ShowChoice	Gain
204.21	1.0	0.012	764.747	40.0	2	-10.84	-3.0	18.0478	70.0	2.22	Outcome2	5.1	-10.84	0.0	No	n/a	-15.9433106575964	n/a	n/a	n/a	ShowResult	Gain
205.229	3.158	0.019	765.766	40.0	2	-10.84	-3.0	18.0478	70.0	2.22	Outcome2	5.1	-10.84	0.0	No	n/a	-15.9433106575964	n/a	n/a	n/a	ISITrial	Gain
208.405	3.0	0.018	768.942	41.0	2	-7.0	-7.0	17.1728	70.0	0.66	Certain	1.3	-15.19	4.0	Yes	4.0	-16.4897959183673	2.34	210.745	n/a	GetAnswer	Mixed
210.763	4.0	0.018	771.3	41.0	2	-7.0	-7.0	17.1728	70.0	0.66	Certain	1.3	-15.19	4.0	Yes	n/a	-16.4897959183673	n/a	n/a	n/a	ShowChoice	Mixed
214.775	1.0	0.012	775.312	41.0	2	-7.0	-7.0	17.1728	70.0	0.66	Certain	1.3	-15.19	4.0	Yes	n/a	-16.4897959183673	n/a	n/a	n/a	ShowResult	Mixed
215.794	4.506	0.019	776.331	41.0	2	-7.0	-7.0	17.1728	70.0	0.66	Certain	1.3	-15.19	4.0	Yes	n/a	-16.4897959183673	n/a	n/a	n/a	ISITrial	Mixed
220.324	4.0	0.024	780.861	41.0	2	-7.0	-7.0	17.1728	70.0	0.66	Certain	1.3	-15.19	4.0	Yes	n/a	-16.4897959183673	n/a	n/a	n/a	TrialHappPreview	Mixed
224.353	4.012	0.029	784.89	41.0	2	-7.0	-7.0	17.1728	70.0	0.66	Certain	1.3	-15.19	4.0	Yes	n/a	-16.4897959183673	n/a	n/a	536.0	TrialHappiness	Mixed
224.354	0.595	n/a	785.633	41.0	2	-7.0	-7.0	17.1728	70.0	0.66	Certain	1.3	-15.19	4.0	Yes	n/a	-16.4897959183673	n/a	n/a	536.0	TrialHappinessSliderResponse	Mixed
228.365	8.0	4.012	788.902	41.0	2	-7.0	-7.0	17.1728	70.0	0.66	Certain	1.3	-15.19	4.0	Yes	n/a	-16.4897959183673	n/a	n/a	n/a	ISIRate	Mixed
236.389	3.0	0.024	796.926	42.0	2	-12.06	-3.0	15.6653	70.0	1.82	Outcome2	4.7	-12.06	0.0	No	2.0	-16.7641723356009	1.57	237.959	n/a	GetAnswer	Gain
237.977	4.0	0.018	798.514	42.0	2	-12.06	-3.0	15.6653	70.0	1.82	Outcome2	4.7	-12.06	0.0	No	n/a	-16.7641723356009	n/a	n/a	n/a	ShowChoice	Gain
241.989	1.0	0.012	802.526	42.0	2	-12.06	-3.0	15.6653	70.0	1.82	Outcome2	4.7	-12.06	0.0	No	n/a	-16.7641723356009	n/a	n/a	n/a	ShowResult	Gain
243.009	6.248	0.02	803.546	42.0	2	-12.06	-3.0	15.6653	70.0	1.82	Outcome2	4.7	-12.06	0.0	No	n/a	-16.7641723356009	n/a	n/a	n/a	ISITrial	Gain
249.278	3.0	0.021	809.815	43.0	2	-13.79	-5.0	13.9415	70.0	0.82	Outcome2	3.5	-13.79	2.77575	Yes	2.0	-17.2925170068027	1.378	250.656	n/a	GetAnswer	Mixed
250.682	4.0	0.026	811.219	43.0	2	-13.79	-5.0	13.9415	70.0	0.82	Outcome2	3.5	-13.79	2.77575	Yes	n/a	-17.2925170068027	n/a	n/a	n/a	ShowChoice	Mixed
254.694	1.0	0.012	815.231	43.0	2	-13.79	-5.0	13.9415	70.0	0.82	Outcome2	3.5	-13.79	2.77575	Yes	n/a	-17.2925170068027	n/a	n/a	n/a	ShowResult	Mixed
255.713	4.596	0.019	816.25	43.0	2	-13.79	-5.0	13.9415	70.0	0.82	Outcome2	3.5	-13.79	2.77575	Yes	n/a	-17.2925170068027	n/a	n/a	n/a	ISITrial	Mixed
260.327	2.776	0.018	820.864	43.0	2	-13.79	-5.0	13.9415	70.0	0.82	Outcome2	3.5	-13.79	2.77575	Yes	n/a	-17.2925170068027	n/a	n/a	n/a	TrialHappPreview	Mixed
263.119	4.012	0.016	823.656	43.0	2	-13.79	-5.0	13.9415	70.0	0.82	Outcome2	3.5	-13.79	2.77575	Yes	n/a	-17.2925170068027	n/a	n/a	568.0	TrialHappiness	Mixed
263.12	0.264	n/a	827.146	43.0	2	-13.79	-5.0	13.9415	70.0	0.82	Outcome2	3.5	-13.79	2.77575	Yes	n/a	-17.2925170068027	n/a	n/a	568.0	TrialHappinessSliderResponse	Mixed
267.131	3.103	4.012	827.668	43.0	2	-13.79	-5.0	13.9415	70.0	0.82	Outcome2	3.5	-13.79	2.77575	Yes	n/a	-17.2925170068027	n/a	n/a	n/a	ISIRate	Mixed
270.257	3.0	0.023	830.794	44.0	2	0.0	0.0	13.9415	70.0	1.68	Certain	1.12	-1.73	0.0	No	4.0	2.8478835978836	2.212	272.469	n/a	GetAnswer	Gain
272.48	4.0	0.011	833.017	44.0	2	0.0	0.0	13.9415	70.0	1.68	Certain	1.12	-1.73	0.0	No	n/a	2.8478835978836	n/a	n/a	n/a	ShowChoice	Gain
276.492	1.0	0.012	837.029	44.0	2	0.0	0.0	13.9415	70.0	1.68	Certain	1.12	-1.73	0.0	No	n/a	2.8478835978836	n/a	n/a	n/a	ShowResult	Gain
277.512	2.42	0.02	838.049	44.0	2	0.0	0.0	13.9415	70.0	1.68	Certain	1.12	-1.73	0.0	No	n/a	2.8478835978836	n/a	n/a	n/a	ISITrial	Gain
279.952	3.0	0.02	840.489	45.0	2	-12.43	-3.0	12.3877	70.0	1.68	Outcome2	6.5	-12.43	0.0	No	2.0	-18.9297052154195	2.793	282.745	n/a	GetAnswer	Gain
282.761	4.0	0.016	843.298	45.0	2	-12.43	-3.0	12.3877	70.0	1.68	Outcome2	6.5	-12.43	0.0	No	n/a	-18.9297052154195	n/a	n/a	n/a	ShowChoice	Gain
286.773	1.0	0.012	847.31	45.0	2	-12.43	-3.0	12.3877	70.0	1.68	Outcome2	6.5	-12.43	0.0	No	n/a	-18.9297052154195	n/a	n/a	n/a	ShowResult	Gain
287.793	3.144	0.02	848.33	45.0	2	-12.43	-3.0	12.3877	70.0	1.68	Outcome2	6.5	-12.43	0.0	No	n/a	-18.9297052154195	n/a	n/a	n/a	ISITrial	Gain
290.969	3.0	0.032	851.506	46.0	2	-8.99	1.0	11.2639	70.0	1.68	Outcome1	-8.99	10.5	3.84125	Yes	2.0	-19.494331065759603	1.875	292.844	n/a	GetAnswer	Loss
292.858	4.0	0.014	853.395	46.0	2	-8.99	1.0	11.2639	70.0	1.68	Outcome1	-8.99	10.5	3.84125	Yes	n/a	-19.494331065759603	n/a	n/a	n/a	ShowChoice	Loss
296.87	1.0	0.012	857.407	46.0	2	-8.99	1.0	11.2639	70.0	1.68	Outcome1	-8.99	10.5	3.84125	Yes	n/a	-19.494331065759603	n/a	n/a	n/a	ShowResult	Loss
297.889	2.246	0.019	858.426	46.0	2	-8.99	1.0	11.2639	70.0	1.68	Outcome1	-8.99	10.5	3.84125	Yes	n/a	-19.494331065759603	n/a	n/a	n/a	ISITrial	Loss
300.146	3.841	0.011	860.683	46.0	2	-8.99	1.0	11.2639	70.0	1.68	Outcome1	-8.99	10.5	3.84125	Yes	n/a	-19.494331065759603	n/a	n/a	n/a	TrialHappPreview	Loss
304.008	4.012	0.021	864.545	46.0	2	-8.99	1.0	11.2639	70.0	1.68	Outcome1	-8.99	10.5	3.84125	Yes	n/a	-19.494331065759603	n/a	n/a	512.0	TrialHappiness	Loss
304.008	0.0	n/a	864.545	46.0	2	-8.99	1.0	11.2639	70.0	1.68	Outcome1	-8.99	10.5	3.84125	Yes	n/a	-19.494331065759603	n/a	n/a	512.0	TrialHappinessSliderResponse	Loss
308.02	7.365	4.012	868.557	46.0	2	-8.99	1.0	11.2639	70.0	1.68	Outcome1	-8.99	10.5	3.84125	Yes	n/a	-19.494331065759603	n/a	n/a	n/a	ISIRate	Loss
315.408	3.0	0.023	875.945	47.0	2	-9.01	0.0	10.1377	70.0	4.2	Outcome2	10.1	-9.01	0.0	No	2.0	-19.1065759637188	1.296	316.704	n/a	GetAnswer	Gain
316.729	4.0	0.025	877.266	47.0	2	-9.01	0.0	10.1377	70.0	4.2	Outcome2	10.1	-9.01	0.0	No	n/a	-19.1065759637188	n/a	n/a	n/a	ShowChoice	Gain
320.741	1.0	0.012	881.278	47.0	2	-9.01	0.0	10.1377	70.0	4.2	Outcome2	10.1	-9.01	0.0	No	n/a	-19.1065759637188	n/a	n/a	n/a	ShowResult	Gain
321.761	2.0	0.02	882.298	47.0	2	-9.01	0.0	10.1377	70.0	4.2	Outcome2	10.1	-9.01	0.0	No	n/a	-19.1065759637188	n/a	n/a	n/a	ISITrial	Gain
323.783	3.0	0.022	884.32	48.0	2	-10.91	-1.0	8.7739	70.0	1.82	Outcome1	-10.91	8.7	2.83175	Yes	n/a	-19.607709750566897	n/a	n/a	n/a	GetAnswer	Gain
326.809	4.0	0.026	887.346	48.0	2	-10.91	-1.0	8.7739	70.0	1.82	Outcome1	-10.91	8.7	2.83175	Yes	n/a	-19.607709750566897	n/a	n/a	n/a	ShowChoice	Gain
330.821	1.0	0.012	891.358	48.0	2	-10.91	-1.0	8.7739	70.0	1.82	Outcome1	-10.91	8.7	2.83175	Yes	n/a	-19.607709750566897	n/a	n/a	n/a	ShowResult	Gain
331.841	3.692	0.02	892.378	48.0	2	-10.91	-1.0	8.7739	70.0	1.82	Outcome1	-10.91	8.7	2.83175	Yes	n/a	-19.607709750566897	n/a	n/a	n/a	ISITrial	Gain
335.552	2.832	0.019	896.089	48.0	2	-10.91	-1.0	8.7739	70.0	1.82	Outcome1	-10.91	8.7	2.83175	Yes	n/a	-19.607709750566897	n/a	n/a	n/a	TrialHappPreview	Gain
338.41	4.012	0.026	898.947	48.0	2	-10.91	-1.0	8.7739	70.0	1.82	Outcome1	-10.91	8.7	2.83175	Yes	n/a	-19.607709750566897	n/a	n/a	468.0	TrialHappiness	Gain
338.411	0.793	n/a	899.607	48.0	2	-10.91	-1.0	8.7739	70.0	1.82	Outcome1	-10.91	8.7	2.83175	Yes	n/a	-19.607709750566897	n/a	n/a	468.0	TrialHappinessSliderResponse	Gain
342.422	3.327	4.012	902.959	48.0	2	-10.91	-1.0	8.7739	70.0	1.82	Outcome1	-10.91	8.7	2.83175	Yes	n/a	-19.607709750566897	n/a	n/a	n/a	ISIRate	Gain
345.766	3.0	0.017	906.303	49.0	2	-1.0	-1.0	8.6489	70.0	0.4	Certain	-0.28	-2.95	0.0	No	4.0	2.66628873771731	1.951	347.717	n/a	GetAnswer	Mixed
347.738	4.0	0.021	908.275	49.0	2	-1.0	-1.0	8.6489	70.0	0.4	Certain	-0.28	-2.95	0.0	No	n/a	2.66628873771731	n/a	n/a	n/a	ShowChoice	Mixed
351.75	1.0	0.012	912.287	49.0	2	-1.0	-1.0	8.6489	70.0	0.4	Certain	-0.28	-2.95	0.0	No	n/a	2.66628873771731	n/a	n/a	n/a	ShowResult	Mixed
352.77	8.0	0.02	913.307	49.0	2	-1.0	-1.0	8.6489	70.0	0.4	Certain	-0.28	-2.95	0.0	No	n/a	2.66628873771731	n/a	n/a	n/a	ISITrial	Mixed
360.794	3.0	0.024	921.331	50.0	2	-9.91	0.0	7.4101	70.0	3.6	Outcome2	9.9	-9.91	3.54725	Yes	2.0	-19.81179138322	1.638	362.432	n/a	GetAnswer	Gain
362.449	4.0	0.017	922.986	50.0	2	-9.91	0.0	7.4101	70.0	3.6	Outcome2	9.9	-9.91	3.54725	Yes	n/a	-19.81179138322	n/a	n/a	n/a	ShowChoice	Gain
366.461	1.0	0.012	926.998	50.0	2	-9.91	0.0	7.4101	70.0	3.6	Outcome2	9.9	-9.91	3.54725	Yes	n/a	-19.81179138322	n/a	n/a	n/a	ShowResult	Gain
367.481	7.537	0.02	928.018	50.0	2	-9.91	0.0	7.4101	70.0	3.6	Outcome2	9.9	-9.91	3.54725	Yes	n/a	-19.81179138322	n/a	n/a	n/a	ISITrial	Gain
375.036	3.547	0.018	935.573	50.0	2	-9.91	0.0	7.4101	70.0	3.6	Outcome2	9.9	-9.91	3.54725	Yes	n/a	-19.81179138322	n/a	n/a	n/a	TrialHappPreview	Gain
378.614	4.012	0.031	939.151	50.0	2	-9.91	0.0	7.4101	70.0	3.6	Outcome2	9.9	-9.91	3.54725	Yes	n/a	-19.81179138322	n/a	n/a	496.0	TrialHappiness	Gain
378.614	1.917	n/a	939.765	50.0	2	-9.91	0.0	7.4101	70.0	3.6	Outcome2	9.9	-9.91	3.54725	Yes	n/a	-19.81179138322	n/a	n/a	496.0	TrialHappinessSliderResponse	Gain
382.626	6.189	4.012	943.163	50.0	2	-9.91	0.0	7.4101	70.0	3.6	Outcome2	9.9	-9.91	3.54725	Yes	n/a	-19.81179138322	n/a	n/a	n/a	ISIRate	Gain
388.844	3.0	0.029	949.381	51.0	2	-10.0	-10.0	6.1601	70.0	2.0	Certain	0.3	-20.44	0.0	No	4.0	-20.739229024943302	1.766	390.61	n/a	GetAnswer	Mixed
390.633	4.0	0.023	951.17	51.0	2	-10.0	-10.0	6.1601	70.0	2.0	Certain	0.3	-20.44	0.0	No	n/a	-20.739229024943302	n/a	n/a	n/a	ShowChoice	Mixed
394.645	1.0	0.012	955.182	51.0	2	-10.0	-10.0	6.1601	70.0	2.0	Certain	0.3	-20.44	0.0	No	n/a	-20.739229024943302	n/a	n/a	n/a	ShowResult	Mixed
395.665	5.508	0.02	956.202	51.0	2	-10.0	-10.0	6.1601	70.0	2.0	Certain	0.3	-20.44	0.0	No	n/a	-20.739229024943302	n/a	n/a	n/a	ISITrial	Mixed
401.198	3.0	0.025	961.735	52.0	2	-12.0	-12.0	4.6601	70.0	0.3	Certain	-22.52	-1.3	0.0	No	4.0	-21.2222222222222	2.042	403.24	n/a	GetAnswer	Mixed
403.254	4.0	0.014	963.791	52.0	2	-12.0	-12.0	4.6601	70.0	0.3	Certain	-22.52	-1.3	0.0	No	n/a	-21.2222222222222	n/a	n/a	n/a	ShowChoice	Mixed
407.266	1.0	0.012	967.803	52.0	2	-12.0	-12.0	4.6601	70.0	0.3	Certain	-22.52	-1.3	0.0	No	n/a	-21.2222222222222	n/a	n/a	n/a	ShowResult	Mixed
408.286	5.913	0.02	968.823	52.0	2	-12.0	-12.0	4.6601	70.0	0.3	Certain	-22.52	-1.3	0.0	No	n/a	-21.2222222222222	n/a	n/a	n/a	ISITrial	Mixed
414.22	3.0	0.021	974.757	53.0	2	1.0	1.0	4.7851	70.0	2.48	Certain	-0.61	2.33	2.99675	Yes	4.0	2.9357520786092204	2.648	416.868	n/a	GetAnswer	Gain
416.895	4.0	0.027	977.432	53.0	2	1.0	1.0	4.7851	70.0	2.48	Certain	-0.61	2.33	2.99675	Yes	n/a	2.9357520786092204	n/a	n/a	n/a	ShowChoice	Gain
420.907	1.0	0.012	981.444	53.0	2	1.0	1.0	4.7851	70.0	2.48	Certain	-0.61	2.33	2.99675	Yes	n/a	2.9357520786092204	n/a	n/a	n/a	ShowResult	Gain
421.927	3.66	0.02	982.464	53.0	2	1.0	1.0	4.7851	70.0	2.48	Certain	-0.61	2.33	2.99675	Yes	n/a	2.9357520786092204	n/a	n/a	n/a	ISITrial	Gain
425.604	2.997	0.017	986.141	53.0	2	1.0	1.0	4.7851	70.0	2.48	Certain	-0.61	2.33	2.99675	Yes	n/a	2.9357520786092204	n/a	n/a	n/a	TrialHappPreview	Gain
428.63	4.012	0.029	989.167	53.0	2	1.0	1.0	4.7851	70.0	2.48	Certain	-0.61	2.33	2.99675	Yes	n/a	2.9357520786092204	n/a	n/a	476.0	TrialHappiness	Gain
428.63	0.672	n/a	989.759	53.0	2	1.0	1.0	4.7851	70.0	2.48	Certain	-0.61	2.33	2.99675	Yes	n/a	2.9357520786092204	n/a	n/a	476.0	TrialHappinessSliderResponse	Gain
432.642	3.987	4.012	993.179	53.0	2	1.0	1.0	4.7851	70.0	2.48	Certain	-0.61	2.33	2.99675	Yes	n/a	2.9357520786092204	n/a	n/a	n/a	ISIRate	Gain
436.654	3.0	0.025	997.191	54.0	2	-13.35	-2.0	3.1163	70.0	1.68	Outcome2	8.5	-13.35	0.0	No	2.0	-21.848072562358304	1.825	438.479	n/a	GetAnswer	Gain
438.493	4.0	0.014	999.03	54.0	2	-13.35	-2.0	3.1163	70.0	1.68	Outcome2	8.5	-13.35	0.0	No	n/a	-21.848072562358304	n/a	n/a	n/a	ShowChoice	Gain
442.505	1.0	0.012	1003.042	54.0	2	-13.35	-2.0	3.1163	70.0	1.68	Outcome2	8.5	-13.35	0.0	No	n/a	-21.848072562358304	n/a	n/a	n/a	ShowResult	Gain
443.524	8.0	0.019	1004.061	54.0	2	-13.35	-2.0	3.1163	70.0	1.68	Outcome2	8.5	-13.35	0.0	No	n/a	-21.848072562358304	n/a	n/a	n/a	ISITrial	Gain
461.328	0.71	n/a	1022.344	n/a	2	n/a	n/a	n/a	n/a	n/a	n/a	n/a	n/a	n/a	n/a	n/a	n/a	n/a	n/a	436.0	BlockStartHappinessSliderResponse	n/a
-59.378	-0.001	0.024	1012.085	n/a	3	n/a	n/a	n/a	n/a	n/a	n/a	n/a	n/a	n/a	n/a	2.0	n/a	5.75	-53.628	n/a	Rest	n/a
-53.61	4.0	0.018	1017.853	n/a	3	n/a	n/a	n/a	n/a	n/a	n/a	n/a	n/a	n/a	n/a	n/a	n/a	n/a	n/a	n/a	BlockHappyPreview	n/a
-49.599	1.189	0.011	1021.864	n/a	3	n/a	n/a	n/a	n/a	n/a	n/a	n/a	n/a	n/a	n/a	n/a	n/a	n/a	n/a	436.0	BlockStartHappiness	n/a
-1.171	-0.001	0.024	1070.292	n/a	3	n/a	n/a	n/a	n/a	n/a	n/a	n/a	n/a	n/a	n/a	5.0	n/a	1.145	-0.026	n/a	ScanWait	n/a
0.0	10.0	0.026	1071.463	n/a	3	n/a	n/a	n/a	n/a	n/a	n/a	n/a	n/a	n/a	n/a	n/a	n/a	n/a	n/a	n/a	GetReady	n/a
10.03	3.0	0.03	1081.493	55.0	3	-1.0	-1.0	2.9913	955.0	0.82	Certain	-2.61	-0.5	2.53325	Yes	4.0	-2.10617214043035	1.744	11.774	n/a	GetAnswer	Mixed
11.802	4.0	0.028	1083.265	55.0	3	-1.0	-1.0	2.9913	955.0	0.82	Certain	-2.61	-0.5	2.53325	Yes	n/a	-2.10617214043035	n/a	n/a	n/a	ShowChoice	Mixed
15.814	1.0	0.012	1087.277	55.0	3	-1.0	-1.0	2.9913	955.0	0.82	Certain	-2.61	-0.5	2.53325	Yes	n/a	-2.10617214043035	n/a	n/a	n/a	ShowResult	Mixed
16.833	7.709	0.019	1088.296	55.0	3	-1.0	-1.0	2.9913	955.0	0.82	Certain	-2.61	-0.5	2.53325	Yes	n/a	-2.10617214043035	n/a	n/a	n/a	ISITrial	Mixed
24.556	2.533	0.014	1096.019	55.0	3	-1.0	-1.0	2.9913	955.0	0.82	Certain	-2.61	-0.5	2.53325	Yes	n/a	-2.10617214043035	n/a	n/a	n/a	TrialHappPreview	Mixed
27.114	4.029	0.025	1098.577	55.0	3	-1.0	-1.0	2.9913	955.0	0.82	Certain	-2.61	-0.5	2.53325	Yes	n/a	-2.10617214043035	n/a	n/a	460.0	TrialHappiness	Mixed
27.115	1.978	n/a	1099.23	55.0	3	-1.0	-1.0	2.9913	955.0	0.82	Certain	-2.61	-0.5	2.53325	Yes	n/a	-2.10617214043035	n/a	n/a	460.0	TrialHappinessSliderResponse	Mixed
31.143	2.133	4.029	1102.606	55.0	3	-1.0	-1.0	2.9913	955.0	0.82	Certain	-2.61	-0.5	2.53325	Yes	n/a	-2.10617214043035	n/a	n/a	n/a	ISIRate	Mixed
33.299	3.0	0.023	1104.762	56.0	3	5.7	1.0	3.7038	955.0	3.16	Outcome2	-3.3	5.7	0.0	No	2.0	8.99660249150623	1.7	34.999	n/a	GetAnswer	Gain
35.021	4.0	0.022	1106.484	56.0	3	5.7	1.0	3.7038	955.0	3.16	Outcome2	-3.3	5.7	0.0	No	n/a	8.99660249150623	n/a	n/a	n/a	ShowChoice	Gain
39.05	1.0	0.029	1110.513	56.0	3	5.7	1.0	3.7038	955.0	3.16	Outcome2	-3.3	5.7	0.0	No	n/a	8.99660249150623	n/a	n/a	n/a	ShowResult	Gain
40.069	4.697	0.019	1111.532	56.0	3	5.7	1.0	3.7038	955.0	3.16	Outcome2	-3.3	5.7	0.0	No	n/a	8.99660249150623	n/a	n/a	n/a	ISITrial	Gain
44.8	3.0	0.034	1116.263	57.0	3	8.1	-0.73	4.7163	955.0	4.2	Outcome1	8.1	-1.46	0.0	No	2.0	9.55719139297848	1.823	46.623	n/a	GetAnswer	Gain
46.639	4.0	0.016	1118.102	57.0	3	8.1	-0.73	4.7163	955.0	4.2	Outcome1	8.1	-1.46	0.0	No	n/a	9.55719139297848	n/a	n/a	n/a	ShowChoice	Gain
50.668	1.0	0.029	1122.131	57.0	3	8.1	-0.73	4.7163	955.0	4.2	Outcome1	8.1	-1.46	0.0	No	n/a	9.55719139297848	n/a	n/a	n/a	ShowResult	Gain
51.687	4.291	0.019	1123.15	57.0	3	8.1	-0.73	4.7163	955.0	4.2	Outcome1	8.1	-1.46	0.0	No	n/a	9.55719139297848	n/a	n/a	n/a	ISITrial	Gain
56.0	3.0	0.022	1127.463	58.0	3	1.7	-3.0	4.9288	955.0	1.0	Outcome1	1.7	-8.42	3.04575	Yes	2.0	10.117780294450698	2.315	58.315	n/a	GetAnswer	Mixed
58.341	4.0	0.026	1129.804	58.0	3	1.7	-3.0	4.9288	955.0	1.0	Outcome1	1.7	-8.42	3.04575	Yes	n/a	10.117780294450698	n/a	n/a	n/a	ShowChoice	Mixed
62.369	1.0	0.028	1133.832	58.0	3	1.7	-3.0	4.9288	955.0	1.0	Outcome1	1.7	-8.42	3.04575	Yes	n/a	10.117780294450698	n/a	n/a	n/a	ShowResult	Mixed
63.389	2.037	0.02	1134.852	58.0	3	1.7	-3.0	4.9288	955.0	1.0	Outcome1	1.7	-8.42	3.04575	Yes	n/a	10.117780294450698	n/a	n/a	n/a	ISITrial	Mixed
65.445	3.046	0.019	1136.908	58.0	3	1.7	-3.0	4.9288	955.0	1.0	Outcome1	1.7	-8.42	3.04575	Yes	n/a	10.117780294450698	n/a	n/a	n/a	TrialHappPreview	Mixed
68.521	4.029	0.03	1139.984	58.0	3	1.7	-3.0	4.9288	955.0	1.0	Outcome1	1.7	-8.42	3.04575	Yes	n/a	10.117780294450698	n/a	n/a	484.0	TrialHappiness	Mixed
68.522	1.662	n/a	1140.432	58.0	3	1.7	-3.0	4.9288	955.0	1.0	Outcome1	1.7	-8.42	3.04575	Yes	n/a	10.117780294450698	n/a	n/a	484.0	TrialHappinessSliderResponse	Mixed
72.55	4.183	4.029	1144.013	58.0	3	1.7	-3.0	4.9288	955.0	1.0	Outcome1	1.7	-8.42	3.04575	Yes	n/a	10.117780294450698	n/a	n/a	n/a	ISIRate	Mixed
76.762	3.0	0.029	1148.225	59.0	3	11.1	0.42	6.3163	955.0	2.22	Outcome2	0.83	11.1	0.0	No	2.0	10.2706681766704	1.825	78.587	n/a	GetAnswer	Loss
78.618	4.0	0.031	1150.081	59.0	3	11.1	0.42	6.3163	955.0	2.22	Outcome2	0.83	11.1	0.0	No	n/a	10.2706681766704	n/a	n/a	n/a	ShowChoice	Loss
82.646	1.0	0.028	1154.109	59.0	3	11.1	0.42	6.3163	955.0	2.22	Outcome2	0.83	11.1	0.0	No	n/a	10.2706681766704	n/a	n/a	n/a	ShowResult	Loss
83.666	5.064	0.02	1155.129	59.0	3	11.1	0.42	6.3163	955.0	2.22	Outcome2	0.83	11.1	0.0	No	n/a	10.2706681766704	n/a	n/a	n/a	ISITrial	Loss
88.748	3.0	0.018	1160.211	60.0	3	9.76	4.88	7.5363	955.0	3.6	Outcome1	9.76	11.9	3.5625	Yes	2.0	-2.14496036240091	1.73	90.478	n/a	GetAnswer	Loss
90.503	4.0	0.025	1161.966	60.0	3	9.76	4.88	7.5363	955.0	3.6	Outcome1	9.76	11.9	3.5625	Yes	n/a	-2.14496036240091	n/a	n/a	n/a	ShowChoice	Loss
94.515	1.0	0.012	1165.978	60.0	3	9.76	4.88	7.5363	955.0	3.6	Outcome1	9.76	11.9	3.5625	Yes	n/a	-2.14496036240091	n/a	n/a	n/a	ShowResult	Loss
95.535	8.0	0.02	1166.998	60.0	3	9.76	4.88	7.5363	955.0	3.6	Outcome1	9.76	11.9	3.5625	Yes	n/a	-2.14496036240091	n/a	n/a	n/a	ISITrial	Loss
103.559	3.562	0.024	1175.022	60.0	3	9.76	4.88	7.5363	955.0	3.6	Outcome1	9.76	11.9	3.5625	Yes	n/a	-2.14496036240091	n/a	n/a	n/a	TrialHappPreview	Loss
107.136	4.012	0.015	1178.599	60.0	3	9.76	4.88	7.5363	955.0	3.6	Outcome1	9.76	11.9	3.5625	Yes	n/a	-2.14496036240091	n/a	n/a	492.0	TrialHappiness	Loss
107.137	0.049	n/a	1179.202	60.0	3	9.76	4.88	7.5363	955.0	3.6	Outcome1	9.76	11.9	3.5625	Yes	n/a	-2.14496036240091	n/a	n/a	492.0	TrialHappinessSliderResponse	Loss
111.148	6.25	4.012	1182.611	60.0	3	9.76	4.88	7.5363	955.0	3.6	Outcome1	9.76	11.9	3.5625	Yes	n/a	-2.14496036240091	n/a	n/a	n/a	ISIRate	Loss
117.417	3.0	0.019	1188.88	61.0	3	-2.0	-2.0	7.2863	955.0	0.4	Certain	2.9	-8.3	0.0	No	4.0	11.201585503963802	1.924	119.341	n/a	GetAnswer	Mixed
119.356	4.0	0.015	1190.819	61.0	3	-2.0	-2.0	7.2863	955.0	0.4	Certain	2.9	-8.3	0.0	No	n/a	11.201585503963802	n/a	n/a	n/a	ShowChoice	Mixed
123.368	1.0	0.012	1194.831	61.0	3	-2.0	-2.0	7.2863	955.0	0.4	Certain	2.9	-8.3	0.0	No	n/a	11.201585503963802	n/a	n/a	n/a	ShowResult	Mixed
124.388	4.586	0.02	1195.851	61.0	3	-2.0	-2.0	7.2863	955.0	0.4	Certain	2.9	-8.3	0.0	No	n/a	11.201585503963802	n/a	n/a	n/a	ISITrial	Mixed
129.002	3.0	0.028	1200.465	62.0	3	11.7	-0.02	8.7488	955.0	3.16	Outcome2	-0.03	11.7	3.74875	Yes	2.0	11.7259343148358	2.022	131.024	n/a	GetAnswer	Loss
131.041	4.0	0.017	1202.504	62.0	3	11.7	-0.02	8.7488	955.0	3.16	Outcome2	-0.03	11.7	3.74875	Yes	n/a	11.7259343148358	n/a	n/a	n/a	ShowChoice	Loss
135.053	1.0	0.012	1206.516	62.0	3	11.7	-0.02	8.7488	955.0	3.16	Outcome2	-0.03	11.7	3.74875	Yes	n/a	11.7259343148358	n/a	n/a	n/a	ShowResult	Loss
136.073	5.212	0.02	1207.536	62.0	3	11.7	-0.02	8.7488	955.0	3.16	Outcome2	-0.03	11.7	3.74875	Yes	n/a	11.7259343148358	n/a	n/a	n/a	ISITrial	Loss
141.305	3.749	0.02	1212.768	62.0	3	11.7	-0.02	8.7488	955.0	3.16	Outcome2	-0.03	11.7	3.74875	Yes	n/a	11.7259343148358	n/a	n/a	n/a	TrialHappPreview	Loss
145.083	4.012	0.029	1216.546	62.0	3	11.7	-0.02	8.7488	955.0	3.16	Outcome2	-0.03	11.7	3.74875	Yes	n/a	11.7259343148358	n/a	n/a	552.0	TrialHappiness	Loss
145.084	2.698	n/a	1217.224	62.0	3	11.7	-0.02	8.7488	955.0	3.16	Outcome2	-0.03	11.7	3.74875	Yes	n/a	11.7259343148358	n/a	n/a	552.0	TrialHappinessSliderResponse	Loss
149.095	6.995	4.012	1220.558	62.0	3	11.7	-0.02	8.7488	955.0	3.16	Outcome2	-0.03	11.7	3.74875	Yes	n/a	11.7259343148358	n/a	n/a	n/a	ISIRate	Loss
156.116	3.0	0.026	1227.579	63.0	3	9.7	-0.76	9.9613	955.0	3.16	Outcome2	-1.53	9.7	0.0	No	2.0	11.2310305775764	1.672	157.788	n/a	GetAnswer	Gain
157.804	4.0	0.016	1229.267	63.0	3	9.7	-0.76	9.9613	955.0	3.16	Outcome2	-1.53	9.7	0.0	No	n/a	11.2310305775764	n/a	n/a	n/a	ShowChoice	Gain
161.816	1.0	0.012	1233.279	63.0	3	9.7	-0.76	9.9613	955.0	3.16	Outcome2	-1.53	9.7	0.0	No	n/a	11.2310305775764	n/a	n/a	n/a	ShowResult	Gain
162.836	5.595	0.02	1234.299	63.0	3	9.7	-0.76	9.9613	955.0	3.16	Outcome2	-1.53	9.7	0.0	No	n/a	11.2310305775764	n/a	n/a	n/a	ISITrial	Gain
168.453	3.0	0.022	1239.916	64.0	3	-1.0	-1.0	9.8363	955.0	2.0	Certain	-7.39	4.3	0.0	No	4.0	11.687429218573	2.324	170.777	n/a	GetAnswer	Mixed
170.793	4.0	0.016	1242.256	64.0	3	-1.0	-1.0	9.8363	955.0	2.0	Certain	-7.39	4.3	0.0	No	n/a	11.687429218573	n/a	n/a	n/a	ShowChoice	Mixed
174.805	1.0	0.012	1246.268	64.0	3	-1.0	-1.0	9.8363	955.0	2.0	Certain	-7.39	4.3	0.0	No	n/a	11.687429218573	n/a	n/a	n/a	ShowResult	Mixed
175.825	5.47	0.02	1247.288	64.0	3	-1.0	-1.0	9.8363	955.0	2.0	Certain	-7.39	4.3	0.0	No	n/a	11.687429218573	n/a	n/a	n/a	ISITrial	Mixed
181.324	3.0	0.029	1252.787	65.0	3	3.9	-2.0	10.3238	955.0	1.2	Outcome2	-8.24	3.9	2.99675	Yes	2.0	12.1438278595696	1.18	182.504	n/a	GetAnswer	Mixed
182.528	4.0	0.024	1253.991	65.0	3	3.9	-2.0	10.3238	955.0	1.2	Outcome2	-8.24	3.9	2.99675	Yes	n/a	12.1438278595696	n/a	n/a	n/a	ShowChoice	Mixed
186.54	1.0	0.012	1258.003	65.0	3	3.9	-2.0	10.3238	955.0	1.2	Outcome2	-8.24	3.9	2.99675	Yes	n/a	12.1438278595696	n/a	n/a	n/a	ShowResult	Mixed
187.56	3.344	0.02	1259.023	65.0	3	3.9	-2.0	10.3238	955.0	1.2	Outcome2	-8.24	3.9	2.99675	Yes	n/a	12.1438278595696	n/a	n/a	n/a	ISITrial	Mixed
190.92	2.997	0.016	1262.383	65.0	3	3.9	-2.0	10.3238	955.0	1.2	Outcome2	-8.24	3.9	2.99675	Yes	n/a	12.1438278595696	n/a	n/a	n/a	TrialHappPreview	Mixed
193.946	4.011	0.029	1265.409	65.0	3	3.9	-2.0	10.3238	955.0	1.2	Outcome2	-8.24	3.9	2.99675	Yes	n/a	12.1438278595696	n/a	n/a	568.0	TrialHappiness	Mixed
193.946	1.147	n/a	1266.554	65.0	3	3.9	-2.0	10.3238	955.0	1.2	Outcome2	-8.24	3.9	2.99675	Yes	n/a	12.1438278595696	n/a	n/a	568.0	TrialHappinessSliderResponse	Mixed
197.957	3.987	4.011	1269.42	65.0	3	3.9	-2.0	10.3238	955.0	1.2	Outcome2	-8.24	3.9	2.99675	Yes	n/a	12.1438278595696	n/a	n/a	n/a	ISIRate	Mixed
201.969	3.0	0.025	1273.432	66.0	3	7.5	1.0	11.2613	955.0	2.8	Outcome2	-4.83	7.5	0.0	No	2.0	12.3284258210646	1.565	203.534	n/a	GetAnswer	Gain
203.558	4.0	0.024	1275.021	66.0	3	7.5	1.0	11.2613	955.0	2.8	Outcome2	-4.83	7.5	0.0	No	n/a	12.3284258210646	n/a	n/a	n/a	ShowChoice	Gain
207.57	1.0	0.012	1279.033	66.0	3	7.5	1.0	11.2613	955.0	2.8	Outcome2	-4.83	7.5	0.0	No	n/a	12.3284258210646	n/a	n/a	n/a	ShowResult	Gain
208.589	3.959	0.019	1280.052	66.0	3	7.5	1.0	11.2613	955.0	2.8	Outcome2	-4.83	7.5	0.0	No	n/a	12.3284258210646	n/a	n/a	n/a	ISITrial	Gain
212.568	3.0	0.02	1284.031	67.0	3	7.3	1.0	12.1738	955.0	2.48	Outcome2	-5.47	7.3	2.9185	Yes	2.0	12.766704416761	1.655	214.223	n/a	GetAnswer	Gain
214.239	4.0	0.016	1285.702	67.0	3	7.3	1.0	12.1738	955.0	2.48	Outcome2	-5.47	7.3	2.9185	Yes	n/a	12.766704416761	n/a	n/a	n/a	ShowChoice	Gain
218.251	1.0	0.012	1289.714	67.0	3	7.3	1.0	12.1738	955.0	2.48	Outcome2	-5.47	7.3	2.9185	Yes	n/a	12.766704416761	n/a	n/a	n/a	ShowResult	Gain
219.271	4.199	0.02	1290.734	67.0	3	7.3	1.0	12.1738	955.0	2.48	Outcome2	-5.47	7.3	2.9185	Yes	n/a	12.766704416761	n/a	n/a	n/a	ISITrial	Gain
223.484	2.918	0.014	1294.947	67.0	3	7.3	1.0	12.1738	955.0	2.48	Outcome2	-5.47	7.3	2.9185	Yes	n/a	12.766704416761	n/a	n/a	n/a	TrialHappPreview	Gain
226.426	4.012	0.024	1297.889	67.0	3	7.3	1.0	12.1738	955.0	2.48	Outcome2	-5.47	7.3	2.9185	Yes	n/a	12.766704416761	n/a	n/a	588.0	TrialHappiness	Gain
226.426	1.405	n/a	1299.27	67.0	3	7.3	1.0	12.1738	955.0	2.48	Outcome2	-5.47	7.3	2.9185	Yes	n/a	12.766704416761	n/a	n/a	588.0	TrialHappinessSliderResponse	Gain
230.438	3.674	4.012	1301.901	67.0	3	7.3	1.0	12.1738	955.0	2.48	Outcome2	-5.47	7.3	2.9185	Yes	n/a	12.766704416761	n/a	n/a	n/a	ISIRate	Gain
234.132	3.0	0.02	1305.595	68.0	3	1.9	-4.0	12.4113	955.0	1.2	Outcome2	-10.97	1.9	0.0	No	2.0	12.8652321630804	2.349	236.481	n/a	GetAnswer	Mixed
236.506	4.0	0.025	1307.969	68.0	3	1.9	-4.0	12.4113	955.0	1.2	Outcome2	-10.97	1.9	0.0	No	n/a	12.8652321630804	n/a	n/a	n/a	ShowChoice	Mixed
240.518	1.0	0.012	1311.981	68.0	3	1.9	-4.0	12.4113	955.0	1.2	Outcome2	-10.97	1.9	0.0	No	n/a	12.8652321630804	n/a	n/a	n/a	ShowResult	Mixed
241.538	2.185	0.02	1313.001	68.0	3	1.9	-4.0	12.4113	955.0	1.2	Outcome2	-10.97	1.9	0.0	No	n/a	12.8652321630804	n/a	n/a	n/a	ISITrial	Mixed
243.744	3.0	0.021	1315.207	69.0	3	13.5	0.11	14.0988	955.0	2.8	Outcome2	0.22	13.5	0.0	No	2.0	13.280860702151802	1.368	245.112	n/a	GetAnswer	Loss
245.132	4.0	0.02	1316.595	69.0	3	13.5	0.11	14.0988	955.0	2.8	Outcome2	0.22	13.5	0.0	No	n/a	13.280860702151802	n/a	n/a	n/a	ShowChoice	Loss
249.144	1.0	0.012	1320.607	69.0	3	13.5	0.11	14.0988	955.0	2.8	Outcome2	0.22	13.5	0.0	No	n/a	13.280860702151802	n/a	n/a	n/a	ShowResult	Loss
250.163	2.0	0.019	1321.626	69.0	3	13.5	0.11	14.0988	955.0	2.8	Outcome2	0.22	13.5	0.0	No	n/a	13.280860702151802	n/a	n/a	n/a	ISITrial	Loss
252.186	3.0	0.023	1323.649	70.0	3	0.9	-6.0	14.2113	955.0	0.4	Outcome2	-12.8	0.9	3.65125	Yes	2.0	13.6964892412231	1.522	253.708	n/a	GetAnswer	Mixed
253.724	4.0	0.016	1325.187	70.0	3	0.9	-6.0	14.2113	955.0	0.4	Outcome2	-12.8	0.9	3.65125	Yes	n/a	13.6964892412231	n/a	n/a	n/a	ShowChoice	Mixed
257.736	1.0	0.012	1329.199	70.0	3	0.9	-6.0	14.2113	955.0	0.4	Outcome2	-12.8	0.9	3.65125	Yes	n/a	13.6964892412231	n/a	n/a	n/a	ShowResult	Mixed
258.756	2.623	0.02	1330.219	70.0	3	0.9	-6.0	14.2113	955.0	0.4	Outcome2	-12.8	0.9	3.65125	Yes	n/a	13.6964892412231	n/a	n/a	n/a	ISITrial	Mixed
261.397	3.651	0.018	1332.86	70.0	3	0.9	-6.0	14.2113	955.0	0.4	Outcome2	-12.8	0.9	3.65125	Yes	n/a	13.6964892412231	n/a	n/a	n/a	TrialHappPreview	Mixed
265.075	4.012	0.027	1336.538	70.0	3	0.9	-6.0	14.2113	955.0	0.4	Outcome2	-12.8	0.9	3.65125	Yes	2{-2}2{-2}2{-2}2{-2}2{-2}2{-2}2{-2}	13.6964892412231	2.089	267.164	644.0	TrialHappiness	Mixed
265.075	1.835	n/a	1336.792	70.0	3	0.9	-6.0	14.2113	955.0	0.4	Outcome2	-12.8	0.9	3.65125	Yes	n/a	13.6964892412231	n/a	n/a	644.0	TrialHappinessSliderResponse	Mixed
269.087	6.605	4.012	1340.55	70.0	3	0.9	-6.0	14.2113	955.0	0.4	Outcome2	-12.8	0.9	3.65125	Yes	n/a	13.6964892412231	n/a	n/a	n/a	ISIRate	Mixed
275.723	3.0	0.031	1347.186	71.0	3	-6.0	-6.0	13.4613	955.0	1.2	Certain	-0.1	-13.26	0.0	No	4.0	13.1608154020385	1.735	277.458	n/a	GetAnswer	Mixed
277.478	4.0	0.02	1348.941	71.0	3	-6.0	-6.0	13.4613	955.0	1.2	Certain	-0.1	-13.26	0.0	No	n/a	13.1608154020385	n/a	n/a	n/a	ShowChoice	Mixed
281.49	1.0	0.012	1352.953	71.0	3	-6.0	-6.0	13.4613	955.0	1.2	Certain	-0.1	-13.26	0.0	No	n/a	13.1608154020385	n/a	n/a	n/a	ShowResult	Mixed
282.51	5.499	0.02	1353.973	71.0	3	-6.0	-6.0	13.4613	955.0	1.2	Certain	-0.1	-13.26	0.0	No	n/a	13.1608154020385	n/a	n/a	n/a	ISITrial	Mixed
288.026	3.0	0.017	1359.489	72.0	3	8.3	1.0	14.4988	955.0	5.0	Outcome2	-5.21	8.3	3.0805	Yes	2.0	13.5130237825595	1.712	289.738	n/a	GetAnswer	Gain
289.765	4.0	0.027	1361.228	72.0	3	8.3	1.0	14.4988	955.0	5.0	Outcome2	-5.21	8.3	3.0805	Yes	n/a	13.5130237825595	n/a	n/a	n/a	ShowChoice	Gain
293.777	1.0	0.012	1365.24	72.0	3	8.3	1.0	14.4988	955.0	5.0	Outcome2	-5.21	8.3	3.0805	Yes	n/a	13.5130237825595	n/a	n/a	n/a	ShowResult	Gain
294.797	5.672	0.02	1366.26	72.0	3	8.3	1.0	14.4988	955.0	5.0	Outcome2	-5.21	8.3	3.0805	Yes	n/a	13.5130237825595	n/a	n/a	n/a	ISITrial	Gain
300.48	3.08	0.011	1371.943	72.0	3	8.3	1.0	14.4988	955.0	5.0	Outcome2	-5.21	8.3	3.0805	Yes	n/a	13.5130237825595	n/a	n/a	n/a	TrialHappPreview	Gain
303.59	4.012	0.03	1375.053	72.0	3	8.3	1.0	14.4988	955.0	5.0	Outcome2	-5.21	8.3	3.0805	Yes	n/a	13.5130237825595	n/a	n/a	648.0	TrialHappiness	Gain
303.59	0.425	n/a	1375.552	72.0	3	8.3	1.0	14.4988	955.0	5.0	Outcome2	-5.21	8.3	3.0805	Yes	n/a	13.5130237825595	n/a	n/a	648.0	TrialHappinessSliderResponse	Gain
307.602	4.322	4.012	1379.065	72.0	3	8.3	1.0	14.4988	955.0	5.0	Outcome2	-5.21	8.3	3.0805	Yes	n/a	13.5130237825595	n/a	n/a	n/a	ISIRate	Gain
311.948	3.0	0.024	1383.411	73.0	3	13.1	-0.35	16.1363	955.0	2.22	Outcome2	-0.7	13.1	0.0	No	2.0	13.797281993205	1.57	313.518	n/a	GetAnswer	Loss
313.536	4.0	0.018	1384.999	73.0	3	13.1	-0.35	16.1363	955.0	2.22	Outcome2	-0.7	13.1	0.0	No	n/a	13.797281993205	n/a	n/a	n/a	ShowChoice	Loss
317.548	1.0	0.012	1389.011	73.0	3	13.1	-0.35	16.1363	955.0	2.22	Outcome2	-0.7	13.1	0.0	No	n/a	13.797281993205	n/a	n/a	n/a	ShowResult	Loss
318.568	4.616	0.02	1390.031	73.0	3	13.1	-0.35	16.1363	955.0	2.22	Outcome2	-0.7	13.1	0.0	No	n/a	13.797281993205	n/a	n/a	n/a	ISITrial	Loss
323.215	3.0	0.031	1394.678	74.0	3	11.5	-1.32	17.5738	955.0	2.8	Outcome2	-2.64	11.5	3.05625	Yes	2.0	14.1449603624009	1.729	324.944	n/a	GetAnswer	Loss
324.97	4.0	0.026	1396.433	74.0	3	11.5	-1.32	17.5738	955.0	2.8	Outcome2	-2.64	11.5	3.05625	Yes	n/a	14.1449603624009	n/a	n/a	n/a	ShowChoice	Loss
328.982	1.0	0.012	1400.445	74.0	3	11.5	-1.32	17.5738	955.0	2.8	Outcome2	-2.64	11.5	3.05625	Yes	n/a	14.1449603624009	n/a	n/a	n/a	ShowResult	Loss
330.002	3.909	0.02	1401.465	74.0	3	11.5	-1.32	17.5738	955.0	2.8	Outcome2	-2.64	11.5	3.05625	Yes	n/a	14.1449603624009	n/a	n/a	n/a	ISITrial	Loss
333.93	3.056	0.019	1405.393	74.0	3	11.5	-1.32	17.5738	955.0	2.8	Outcome2	-2.64	11.5	3.05625	Yes	n/a	14.1449603624009	n/a	n/a	n/a	TrialHappPreview	Loss
337.006	4.012	0.02	1408.469	74.0	3	11.5	-1.32	17.5738	955.0	2.8	Outcome2	-2.64	11.5	3.05625	Yes	n/a	14.1449603624009	n/a	n/a	652.0	TrialHappiness	Loss
337.007	2.107	n/a	1408.921	74.0	3	11.5	-1.32	17.5738	955.0	2.8	Outcome2	-2.64	11.5	3.05625	Yes	n/a	14.1449603624009	n/a	n/a	652.0	TrialHappinessSliderResponse	Loss
341.018	4.225	4.012	1412.481	74.0	3	11.5	-1.32	17.5738	955.0	2.8	Outcome2	-2.64	11.5	3.05625	Yes	n/a	14.1449603624009	n/a	n/a	n/a	ISIRate	Loss
345.264	3.0	0.021	1416.727	75.0	3	10.9	-1.76	18.9363	955.0	2.0	Outcome2	-3.52	10.9	0.0	No	2.0	14.424688561721402	1.968	347.232	n/a	GetAnswer	Loss
347.253	4.0	0.021	1418.716	75.0	3	10.9	-1.76	18.9363	955.0	2.0	Outcome2	-3.52	10.9	0.0	No	n/a	14.424688561721402	n/a	n/a	n/a	ShowChoice	Loss
351.265	1.0	0.012	1422.728	75.0	3	10.9	-1.76	18.9363	955.0	2.0	Outcome2	-3.52	10.9	0.0	No	n/a	14.424688561721402	n/a	n/a	n/a	ShowResult	Loss
352.285	4.979	0.02	1423.748	75.0	3	10.9	-1.76	18.9363	955.0	2.0	Outcome2	-3.52	10.9	0.0	No	n/a	14.424688561721402	n/a	n/a	n/a	ISITrial	Loss
357.283	3.0	0.019	1428.746	76.0	3	5.67	2.84	19.6451	955.0	3.16	Outcome2	7.7	5.67	0.0	No	2.0	-2.0313325783314498	1.673	358.956	n/a	GetAnswer	Gain
358.972	4.0	0.016	1430.435	76.0	3	5.67	2.84	19.6451	955.0	3.16	Outcome2	7.7	5.67	0.0	No	n/a	-2.0313325783314498	n/a	n/a	n/a	ShowChoice	Gain
362.984	1.0	0.012	1434.447	76.0	3	5.67	2.84	19.6451	955.0	3.16	Outcome2	7.7	5.67	0.0	No	n/a	-2.0313325783314498	n/a	n/a	n/a	ShowResult	Gain
364.003	3.931	0.019	1435.466	76.0	3	5.67	2.84	19.6451	955.0	3.16	Outcome2	7.7	5.67	0.0	No	n/a	-2.0313325783314498	n/a	n/a	n/a	ISITrial	Gain
367.965	3.0	0.031	1439.428	77.0	3	5.84	2.92	20.3751	955.0	3.6	Outcome1	5.84	7.9	4.0	Yes	2.0	-2.05992827482069	1.587	369.552	n/a	GetAnswer	Gain
369.57	4.0	0.018	1441.033	77.0	3	5.84	2.92	20.3751	955.0	3.6	Outcome1	5.84	7.9	4.0	Yes	n/a	-2.05992827482069	n/a	n/a	n/a	ShowChoice	Gain
373.582	1.0	0.012	1445.045	77.0	3	5.84	2.92	20.3751	955.0	3.6	Outcome1	5.84	7.9	4.0	Yes	n/a	-2.05992827482069	n/a	n/a	n/a	ShowResult	Gain
374.602	7.022	0.02	1446.065	77.0	3	5.84	2.92	20.3751	955.0	3.6	Outcome1	5.84	7.9	4.0	Yes	n/a	-2.05992827482069	n/a	n/a	n/a	ISITrial	Gain
381.639	4.0	0.015	1453.102	77.0	3	5.84	2.92	20.3751	955.0	3.6	Outcome1	5.84	7.9	4.0	Yes	n/a	-2.05992827482069	n/a	n/a	n/a	TrialHappPreview	Gain
385.668	4.012	0.029	1457.131	77.0	3	5.84	2.92	20.3751	955.0	3.6	Outcome1	5.84	7.9	4.0	Yes	n/a	-2.05992827482069	n/a	n/a	664.0	TrialHappiness	Gain
385.669	1.794	n/a	1458.066	77.0	3	5.84	2.92	20.3751	955.0	3.6	Outcome1	5.84	7.9	4.0	Yes	n/a	-2.05992827482069	n/a	n/a	664.0	TrialHappinessSliderResponse	Gain
389.68	8.0	4.012	1461.143	77.0	3	5.84	2.92	20.3751	955.0	3.6	Outcome1	5.84	7.9	4.0	Yes	n/a	-2.05992827482069	n/a	n/a	n/a	ISIRate	Gain
397.704	3.0	0.024	1469.167	78.0	3	0.0	0.0	20.3751	955.0	0.3	Certain	-1.34	0.7	0.0	No	4.0	-2.03982634956587	2.58	400.284	n/a	GetAnswer	Mixed
400.295	4.0	0.011	1471.758	78.0	3	0.0	0.0	20.3751	955.0	0.3	Certain	-1.34	0.7	0.0	No	n/a	-2.03982634956587	n/a	n/a	n/a	ShowChoice	Mixed
404.307	1.0	0.012	1475.77	78.0	3	0.0	0.0	20.3751	955.0	0.3	Certain	-1.34	0.7	0.0	No	n/a	-2.03982634956587	n/a	n/a	n/a	ShowResult	Mixed
405.327	2.078	0.02	1476.79	78.0	3	0.0	0.0	20.3751	955.0	0.3	Certain	-1.34	0.7	0.0	No	n/a	-2.03982634956587	n/a	n/a	n/a	ISITrial	Mixed
407.433	3.0	0.028	1478.896	79.0	3	10.5	2.0	21.6876	955.0	1.68	Outcome2	-5.08	10.5	2.7295	Yes	2.0	15.5798414496036	1.391	408.824	n/a	GetAnswer	Loss
408.837	4.0	0.013	1480.3	79.0	3	10.5	2.0	21.6876	955.0	1.68	Outcome2	-5.08	10.5	2.7295	Yes	n/a	15.5798414496036	n/a	n/a	n/a	ShowChoice	Loss
412.849	1.0	0.012	1484.312	79.0	3	10.5	2.0	21.6876	955.0	1.68	Outcome2	-5.08	10.5	2.7295	Yes	n/a	15.5798414496036	n/a	n/a	n/a	ShowResult	Loss
413.869	3.829	0.02	1485.332	79.0	3	10.5	2.0	21.6876	955.0	1.68	Outcome2	-5.08	10.5	2.7295	Yes	n/a	15.5798414496036	n/a	n/a	n/a	ISITrial	Loss
417.714	2.73	0.016	1489.177	79.0	3	10.5	2.0	21.6876	955.0	1.68	Outcome2	-5.08	10.5	2.7295	Yes	n/a	15.5798414496036	n/a	n/a	n/a	TrialHappPreview	Loss
420.472	4.012	0.028	1491.935	79.0	3	10.5	2.0	21.6876	955.0	1.68	Outcome2	-5.08	10.5	2.7295	Yes	n/a	15.5798414496036	n/a	n/a	688.0	TrialHappiness	Loss
420.473	1.42	n/a	1494.266	79.0	3	10.5	2.0	21.6876	955.0	1.68	Outcome2	-5.08	10.5	2.7295	Yes	n/a	15.5798414496036	n/a	n/a	688.0	TrialHappinessSliderResponse	Loss
424.484	2.918	4.012	1495.947	79.0	3	10.5	2.0	21.6876	955.0	1.68	Outcome2	-5.08	10.5	2.7295	Yes	n/a	15.5798414496036	n/a	n/a	n/a	ISIRate	Loss
427.426	3.0	0.024	1498.889	80.0	3	-8.0	-8.0	20.6876	955.0	1.2	Certain	-15.6	-0.1	0.0	No	4.0	15.5016987542469	1.81	429.236	n/a	GetAnswer	Mixed
429.248	4.0	0.012	1500.711	80.0	3	-8.0	-8.0	20.6876	955.0	1.2	Certain	-15.6	-0.1	0.0	No	n/a	15.5016987542469	n/a	n/a	n/a	ShowChoice	Mixed
433.26	1.0	0.012	1504.723	80.0	3	-8.0	-8.0	20.6876	955.0	1.2	Certain	-15.6	-0.1	0.0	No	n/a	15.5016987542469	n/a	n/a	n/a	ShowResult	Mixed
434.28	3.336	0.02	1505.743	80.0	3	-8.0	-8.0	20.6876	955.0	1.2	Certain	-15.6	-0.1	0.0	No	n/a	15.5016987542469	n/a	n/a	n/a	ISITrial	Mixed
437.64	3.0	0.024	1509.103	81.0	3	3.9	-4.0	21.1751	955.0	1.2	Outcome1	3.9	-11.9	3.92375	Yes	2.0	15.8040770101925	2.136	439.776	n/a	GetAnswer	Mixed
439.796	4.0	0.02	1511.259	81.0	3	3.9	-4.0	21.1751	955.0	1.2	Outcome1	3.9	-11.9	3.92375	Yes	n/a	15.8040770101925	n/a	n/a	n/a	ShowChoice	Mixed
443.808	1.0	0.012	1515.271	81.0	3	3.9	-4.0	21.1751	955.0	1.2	Outcome1	3.9	-11.9	3.92375	Yes	n/a	15.8040770101925	n/a	n/a	n/a	ShowResult	Mixed
444.828	3.919	0.02	1516.291	81.0	3	3.9	-4.0	21.1751	955.0	1.2	Outcome1	3.9	-11.9	3.92375	Yes	n/a	15.8040770101925	n/a	n/a	n/a	ISITrial	Mixed
448.773	3.924	0.026	1520.236	81.0	3	3.9	-4.0	21.1751	955.0	1.2	Outcome1	3.9	-11.9	3.92375	Yes	n/a	15.8040770101925	n/a	n/a	n/a	TrialHappPreview	Mixed
452.718	4.012	0.021	1524.181	81.0	3	3.9	-4.0	21.1751	955.0	1.2	Outcome1	3.9	-11.9	3.92375	Yes	n/a	15.8040770101925	n/a	n/a	680.0	TrialHappiness	Mixed
452.719	1.953	n/a	1524.852	81.0	3	3.9	-4.0	21.1751	955.0	1.2	Outcome1	3.9	-11.9	3.92375	Yes	n/a	15.8040770101925	n/a	n/a	680.0	TrialHappinessSliderResponse	Mixed
456.73	7.695	4.012	1528.193	81.0	3	3.9	-4.0	21.1751	955.0	1.2	Outcome1	3.9	-11.9	3.92375	Yes	n/a	15.8040770101925	n/a	n/a	n/a	ISIRate	Mixed
464.453	3.0	0.028	1535.916	n/a	3	n/a	n/a	n/a	n/a	n/a	n/a	n/a	n/a	n/a	n/a	n/a	n/a	n/a	n/a	n/a	CurrentEarnings	n/a
467.479	-0.001	0.026	1538.942	n/a	3	n/a	n/a	n/a	n/a	n/a	n/a	n/a	n/a	n/a	n/a	2.0	n/a	7.281	474.76	n/a	Goodbye	n/a
