onset	duration	onset_delay	onset_unadjusted	trial_number	block	amount_change	certain_amount	current_amount	mood_target	multiplier	outcome	outcome1_amount	outcome2_amount	question_duration	rating	response	rpe	rt	rt_time	slider_response	trial_phase	trial_type
-34.555	-0.001	0.021	18.721	n/a	0	n/a	n/a	n/a	n/a	n/a	n/a	n/a	n/a	n/a	n/a	{SPACE}	n/a	2.484	-32.071	n/a	Welcome	n/a
-32.039	5.0	0.032	21.237	n/a	0	n/a	n/a	n/a	n/a	n/a	n/a	n/a	n/a	n/a	n/a	n/a	n/a	n/a	n/a	n/a	LifeHappyPreview	n/a
-27.007	1.156	0.032	26.269	n/a	0	n/a	n/a	n/a	n/a	n/a	n/a	n/a	n/a	n/a	n/a	n/a	n/a	n/a	n/a	360.0	LifeHappiness	n/a
-27.007	0.456	n/a	26.969	n/a	0	n/a	n/a	n/a	n/a	n/a	n/a	n/a	n/a	n/a	n/a	n/a	n/a	n/a	n/a	360.0	LifeHappinessSliderResponse	n/a
-11.579	4.0	0.029	41.697	n/a	0	n/a	n/a	n/a	n/a	n/a	n/a	n/a	n/a	n/a	n/a	n/a	n/a	n/a	n/a	n/a	BlockHappyPreview	n/a
-7.564	1.754	0.015	45.712	n/a	0	n/a	n/a	n/a	n/a	n/a	n/a	n/a	n/a	n/a	n/a	n/a	n/a	n/a	n/a	368.0	BlockStartHappiness	n/a
-7.564	0.452	n/a	47.014	n/a	0	n/a	n/a	n/a	n/a	n/a	n/a	n/a	n/a	n/a	n/a	n/a	n/a	n/a	n/a	368.0	BlockStartHappinessSliderResponse	n/a
-1.616	-0.001	0.024	51.66	n/a	0	n/a	n/a	n/a	n/a	n/a	n/a	n/a	n/a	n/a	n/a	5.0	n/a	1.596	-0.02	n/a	ScanWait	n/a
0.0	10.0	0.02	53.276	n/a	1	n/a	n/a	n/a	n/a	n/a	n/a	n/a	n/a	n/a	n/a	n/a	n/a	n/a	n/a	n/a	GetReady	n/a
10.03	3.0	0.03	63.306	1.0	1	-3.88	-2.0	9.515	955.0	0.2	Outcome2	-1.5	-3.88	0.0	No	2.0	-2.38212533031333	1.214	11.244	n/a	GetAnswer	Mixed
11.263	4.0	0.019	64.539	1.0	1	-3.88	-2.0	9.515	955.0	0.2	Outcome2	-1.5	-3.88	0.0	No	n/a	-2.38212533031333	n/a	n/a	n/a	ShowChoice	Mixed
15.278	1.0	0.015	68.554	1.0	1	-3.88	-2.0	9.515	955.0	0.2	Outcome2	-1.5	-3.88	0.0	No	n/a	-2.38212533031333	n/a	n/a	n/a	ShowResult	Mixed
16.294	2.431	0.016	69.57	1.0	1	-3.88	-2.0	9.515	955.0	0.2	Outcome2	-1.5	-3.88	0.0	No	n/a	-2.38212533031333	n/a	n/a	n/a	ISITrial	Mixed
18.743	3.0	0.018	72.019	2.0	1	-1.0	-1.0	9.39	955.0	2.0	Certain	-6.34	4.3	0.0	No	4.0	10.6364665911665	1.671	20.414	n/a	GetAnswer	Mixed
20.443	4.0	0.029	73.719	2.0	1	-1.0	-1.0	9.39	955.0	2.0	Certain	-6.34	4.3	0.0	No	n/a	10.6364665911665	n/a	n/a	n/a	ShowChoice	Mixed
24.458	1.0	0.015	77.734	2.0	1	-1.0	-1.0	9.39	955.0	2.0	Certain	-6.34	4.3	0.0	No	n/a	10.6364665911665	n/a	n/a	n/a	ShowResult	Mixed
25.474	4.568	0.016	78.75	2.0	1	-1.0	-1.0	9.39	955.0	2.0	Certain	-6.34	4.3	0.0	No	n/a	10.6364665911665	n/a	n/a	n/a	ISITrial	Mixed
30.073	3.0	0.031	83.349	3.0	1	-3.0	-3.0	9.015	955.0	0.3	Certain	2.7	-8.6	2.868	Yes	4.0	11.3012457531144	1.802	31.875	n/a	GetAnswer	Mixed
31.905	4.0	0.03	85.181	3.0	1	-3.0	-3.0	9.015	955.0	0.3	Certain	2.7	-8.6	2.868	Yes	n/a	11.3012457531144	n/a	n/a	n/a	ShowChoice	Mixed
35.921	1.0	0.016	89.197	3.0	1	-3.0	-3.0	9.015	955.0	0.3	Certain	2.7	-8.6	2.868	Yes	n/a	11.3012457531144	n/a	n/a	n/a	ShowResult	Mixed
36.937	3.243	0.016	90.213	3.0	1	-3.0	-3.0	9.015	955.0	0.3	Certain	2.7	-8.6	2.868	Yes	n/a	11.3012457531144	n/a	n/a	n/a	ISITrial	Mixed
40.202	2.868	0.022	93.478	3.0	1	-3.0	-3.0	9.015	955.0	0.3	Certain	2.7	-8.6	2.868	Yes	n/a	11.3012457531144	n/a	n/a	n/a	TrialHappPreview	Mixed
43.101	4.016	0.031	96.377	3.0	1	-3.0	-3.0	9.015	955.0	0.3	Certain	2.7	-8.6	2.868	Yes	n/a	11.3012457531144	n/a	n/a	360.0	TrialHappiness	Mixed
43.102	0.467	n/a	96.783	3.0	1	-3.0	-3.0	9.015	955.0	0.3	Certain	2.7	-8.6	2.868	Yes	n/a	11.3012457531144	n/a	n/a	360.0	TrialHappinessSliderResponse	Mixed
47.117	3.472	4.016	100.393	3.0	1	-3.0	-3.0	9.015	955.0	0.3	Certain	2.7	-8.6	2.868	Yes	n/a	11.3012457531144	n/a	n/a	n/a	ISIRate	Mixed
50.615	3.0	0.026	103.891	4.0	1	2.0	2.0	9.265	955.0	3.6	Certain	7.9	-4.2	0.0	No	4.0	12.101925254813098	1.365	51.98	n/a	GetAnswer	Gain
51.998	4.0	0.018	105.274	4.0	1	2.0	2.0	9.265	955.0	3.6	Certain	7.9	-4.2	0.0	No	n/a	12.101925254813098	n/a	n/a	n/a	ShowChoice	Gain
56.014	1.0	0.016	109.29	4.0	1	2.0	2.0	9.265	955.0	3.6	Certain	7.9	-4.2	0.0	No	n/a	12.101925254813098	n/a	n/a	n/a	ShowResult	Gain
57.03	2.011	0.016	110.306	4.0	1	2.0	2.0	9.265	955.0	3.6	Certain	7.9	-4.2	0.0	No	n/a	12.101925254813098	n/a	n/a	n/a	ISITrial	Gain
59.063	3.0	0.022	112.339	5.0	1	6.7	0.0	10.1025	955.0	1.82	Outcome2	-6.08	6.7	2.5825	Yes	2.0	12.775764439411098	1.1	60.163	n/a	GetAnswer	Gain
60.179	4.0	0.016	113.455	5.0	1	6.7	0.0	10.1025	955.0	1.82	Outcome2	-6.08	6.7	2.5825	Yes	n/a	12.775764439411098	n/a	n/a	n/a	ShowChoice	Gain
64.194	1.0	0.015	117.47	5.0	1	6.7	0.0	10.1025	955.0	1.82	Outcome2	-6.08	6.7	2.5825	Yes	n/a	12.775764439411098	n/a	n/a	n/a	ShowResult	Gain
65.21	5.129	0.016	118.486	5.0	1	6.7	0.0	10.1025	955.0	1.82	Outcome2	-6.08	6.7	2.5825	Yes	n/a	12.775764439411098	n/a	n/a	n/a	ISITrial	Gain
70.359	2.582	0.02	123.635	5.0	1	6.7	0.0	10.1025	955.0	1.82	Outcome2	-6.08	6.7	2.5825	Yes	n/a	12.775764439411098	n/a	n/a	n/a	TrialHappPreview	Gain
72.974	4.016	0.033	126.25	5.0	1	6.7	0.0	10.1025	955.0	1.82	Outcome2	-6.08	6.7	2.5825	Yes	n/a	12.775764439411098	n/a	n/a	456.0	TrialHappiness	Gain
72.975	0.261	n/a	126.747	5.0	1	6.7	0.0	10.1025	955.0	1.82	Outcome2	-6.08	6.7	2.5825	Yes	n/a	12.775764439411098	n/a	n/a	456.0	TrialHappinessSliderResponse	Gain
76.99	2.33	4.016	130.266	5.0	1	6.7	0.0	10.1025	955.0	1.82	Outcome2	-6.08	6.7	2.5825	Yes	n/a	12.775764439411098	n/a	n/a	n/a	ISIRate	Gain
79.339	3.0	0.019	132.615	6.0	1	9.9	-0.96	11.34	955.0	3.6	Outcome1	9.9	-1.92	0.0	No	2.0	11.818799546998902	1.294	80.633	n/a	GetAnswer	Gain
80.655	4.0	0.022	133.931	6.0	1	9.9	-0.96	11.34	955.0	3.6	Outcome1	9.9	-1.92	0.0	No	n/a	11.818799546998902	n/a	n/a	n/a	ShowChoice	Gain
84.67	1.0	0.015	137.946	6.0	1	9.9	-0.96	11.34	955.0	3.6	Outcome1	9.9	-1.92	0.0	No	n/a	11.818799546998902	n/a	n/a	n/a	ShowResult	Gain
85.687	6.232	0.017	138.963	6.0	1	9.9	-0.96	11.34	955.0	3.6	Outcome1	9.9	-1.92	0.0	No	n/a	11.818799546998902	n/a	n/a	n/a	ISITrial	Gain
91.951	3.0	0.032	145.227	7.0	1	13.5	0.56	13.0275	955.0	2.8	Outcome2	1.12	13.5	0.0	No	2.0	12.3839184597961	1.425	93.376	n/a	GetAnswer	Loss
93.401	4.0	0.025	146.677	7.0	1	13.5	0.56	13.0275	955.0	2.8	Outcome2	1.12	13.5	0.0	No	n/a	12.3839184597961	n/a	n/a	n/a	ShowChoice	Loss
97.416	1.0	0.015	150.692	7.0	1	13.5	0.56	13.0275	955.0	2.8	Outcome2	1.12	13.5	0.0	No	n/a	12.3839184597961	n/a	n/a	n/a	ShowResult	Loss
98.432	2.305	0.016	151.708	7.0	1	13.5	0.56	13.0275	955.0	2.8	Outcome2	1.12	13.5	0.0	No	n/a	12.3839184597961	n/a	n/a	n/a	ISITrial	Loss
100.765	3.0	0.028	154.041	8.0	1	-3.0	-3.0	12.6525	955.0	0.4	Certain	-10.05	2.9	3.1125	Yes	4.0	12.9490373725934	1.574	102.339	n/a	GetAnswer	Mixed
102.364	4.0	0.025	155.64	8.0	1	-3.0	-3.0	12.6525	955.0	0.4	Certain	-10.05	2.9	3.1125	Yes	n/a	12.9490373725934	n/a	n/a	n/a	ShowChoice	Mixed
106.379	1.0	0.015	159.655	8.0	1	-3.0	-3.0	12.6525	955.0	0.4	Certain	-10.05	2.9	3.1125	Yes	n/a	12.9490373725934	n/a	n/a	n/a	ShowResult	Mixed
107.396	3.506	0.017	160.672	8.0	1	-3.0	-3.0	12.6525	955.0	0.4	Certain	-10.05	2.9	3.1125	Yes	n/a	12.9490373725934	n/a	n/a	n/a	ISITrial	Mixed
110.928	3.112	0.026	164.204	8.0	1	-3.0	-3.0	12.6525	955.0	0.4	Certain	-10.05	2.9	3.1125	Yes	n/a	12.9490373725934	n/a	n/a	n/a	TrialHappPreview	Mixed
114.06	4.015	0.02	167.336	8.0	1	-3.0	-3.0	12.6525	955.0	0.4	Certain	-10.05	2.9	3.1125	Yes	n/a	12.9490373725934	n/a	n/a	496.0	TrialHappiness	Mixed
114.061	0.178	n/a	168.335	8.0	1	-3.0	-3.0	12.6525	955.0	0.4	Certain	-10.05	2.9	3.1125	Yes	n/a	12.9490373725934	n/a	n/a	496.0	TrialHappinessSliderResponse	Mixed
118.075	4.45	4.015	171.351	8.0	1	-3.0	-3.0	12.6525	955.0	0.4	Certain	-10.05	2.9	3.1125	Yes	n/a	12.9490373725934	n/a	n/a	n/a	ISIRate	Mixed
122.557	3.0	0.032	175.833	9.0	1	5.02	2.51	13.28	955.0	2.48	Outcome2	7.3	5.02	0.0	No	2.0	-2.2824650811627	1.021	123.578	n/a	GetAnswer	Gain
123.607	4.0	0.029	176.883	9.0	1	5.02	2.51	13.28	955.0	2.48	Outcome2	7.3	5.02	0.0	No	n/a	-2.2824650811627	n/a	n/a	n/a	ShowChoice	Gain
127.622	1.0	0.015	180.898	9.0	1	5.02	2.51	13.28	955.0	2.48	Outcome2	7.3	5.02	0.0	No	n/a	-2.2824650811627	n/a	n/a	n/a	ShowResult	Gain
128.638	2.0	0.016	181.914	9.0	1	5.02	2.51	13.28	955.0	2.48	Outcome2	7.3	5.02	0.0	No	n/a	-2.2824650811627	n/a	n/a	n/a	ISITrial	Gain
130.671	3.0	0.033	183.947	10.0	1	-6.0	-6.0	12.53	955.0	2.0	Certain	-13.05	0.3	4.0	Yes	4.0	13.3544733861835	1.424	132.095	n/a	GetAnswer	Mixed
132.12	4.0	0.025	185.396	10.0	1	-6.0	-6.0	12.53	955.0	2.0	Certain	-13.05	0.3	4.0	Yes	n/a	13.3544733861835	n/a	n/a	n/a	ShowChoice	Mixed
136.136	1.0	0.016	189.412	10.0	1	-6.0	-6.0	12.53	955.0	2.0	Certain	-13.05	0.3	4.0	Yes	n/a	13.3544733861835	n/a	n/a	n/a	ShowResult	Mixed
137.152	2.0	0.016	190.428	10.0	1	-6.0	-6.0	12.53	955.0	2.0	Certain	-13.05	0.3	4.0	Yes	n/a	13.3544733861835	n/a	n/a	n/a	ISITrial	Mixed
139.168	4.0	0.016	192.444	10.0	1	-6.0	-6.0	12.53	955.0	2.0	Certain	-13.05	0.3	4.0	Yes	n/a	13.3544733861835	n/a	n/a	n/a	TrialHappPreview	Mixed
143.2	4.015	0.032	196.476	10.0	1	-6.0	-6.0	12.53	955.0	2.0	Certain	-13.05	0.3	4.0	Yes	n/a	13.3544733861835	n/a	n/a	464.0	TrialHappiness	Mixed
143.2	0.251	n/a	196.947	10.0	1	-6.0	-6.0	12.53	955.0	2.0	Certain	-13.05	0.3	4.0	Yes	n/a	13.3544733861835	n/a	n/a	464.0	TrialHappinessSliderResponse	Mixed
147.215	8.0	4.015	200.491	10.0	1	-6.0	-6.0	12.53	955.0	2.0	Certain	-13.05	0.3	4.0	Yes	n/a	13.3544733861835	n/a	n/a	n/a	ISIRate	Mixed
155.246	3.0	0.031	208.522	11.0	1	1.2	2.0	12.68	955.0	1.0	Outcome1	1.2	3.7	0.0	No	2.0	-2.49896187240468	1.474	156.72	n/a	GetAnswer	Mixed
156.745	4.0	0.025	210.021	11.0	1	1.2	2.0	12.68	955.0	1.0	Outcome1	1.2	3.7	0.0	No	n/a	-2.49896187240468	n/a	n/a	n/a	ShowChoice	Mixed
160.76	1.0	0.015	214.036	11.0	1	1.2	2.0	12.68	955.0	1.0	Outcome1	1.2	3.7	0.0	No	n/a	-2.49896187240468	n/a	n/a	n/a	ShowResult	Mixed
161.777	3.324	0.017	215.053	11.0	1	1.2	2.0	12.68	955.0	1.0	Outcome1	1.2	3.7	0.0	No	n/a	-2.49896187240468	n/a	n/a	n/a	ISITrial	Mixed
165.126	3.0	0.025	218.402	12.0	1	5.75	2.88	13.3988	955.0	5.0	Outcome2	8.3	5.75	2.61875	Yes	2.0	-2.54530011325028	0.968	166.094	n/a	GetAnswer	Gain
166.109	4.0	0.015	219.385	12.0	1	5.75	2.88	13.3988	955.0	5.0	Outcome2	8.3	5.75	2.61875	Yes	n/a	-2.54530011325028	n/a	n/a	n/a	ShowChoice	Gain
170.124	1.0	0.015	223.4	12.0	1	5.75	2.88	13.3988	955.0	5.0	Outcome2	8.3	5.75	2.61875	Yes	n/a	-2.54530011325028	n/a	n/a	n/a	ShowResult	Gain
171.14	6.642	0.016	224.416	12.0	1	5.75	2.88	13.3988	955.0	5.0	Outcome2	8.3	5.75	2.61875	Yes	n/a	-2.54530011325028	n/a	n/a	n/a	ISITrial	Gain
177.804	2.619	0.022	231.08	12.0	1	5.75	2.88	13.3988	955.0	5.0	Outcome2	8.3	5.75	2.61875	Yes	n/a	-2.54530011325028	n/a	n/a	n/a	TrialHappPreview	Gain
180.454	4.015	0.031	233.73	12.0	1	5.75	2.88	13.3988	955.0	5.0	Outcome2	8.3	5.75	2.61875	Yes	n/a	-2.54530011325028	n/a	n/a	448.0	TrialHappiness	Gain
180.454	0.276	n/a	235.16	12.0	1	5.75	2.88	13.3988	955.0	5.0	Outcome2	8.3	5.75	2.61875	Yes	n/a	-2.54530011325028	n/a	n/a	448.0	TrialHappinessSliderResponse	Gain
184.469	2.475	4.015	237.745	12.0	1	5.75	2.88	13.3988	955.0	5.0	Outcome2	8.3	5.75	2.61875	Yes	n/a	-2.54530011325028	n/a	n/a	n/a	ISIRate	Gain
186.968	3.0	0.024	240.244	13.0	1	3.1	-5.0	13.7863	955.0	0.52	Outcome1	3.1	-12.7	0.0	No	2.0	15.801812004529998	1.235	188.203	n/a	GetAnswer	Mixed
188.217	4.0	0.014	241.493	13.0	1	3.1	-5.0	13.7863	955.0	0.52	Outcome1	3.1	-12.7	0.0	No	n/a	15.801812004529998	n/a	n/a	n/a	ShowChoice	Mixed
192.233	1.0	0.016	245.509	13.0	1	3.1	-5.0	13.7863	955.0	0.52	Outcome1	3.1	-12.7	0.0	No	n/a	15.801812004529998	n/a	n/a	n/a	ShowResult	Mixed
193.249	3.48	0.016	246.525	13.0	1	3.1	-5.0	13.7863	955.0	0.52	Outcome1	3.1	-12.7	0.0	No	n/a	15.801812004529998	n/a	n/a	n/a	ISITrial	Mixed
196.748	3.0	0.019	250.024	14.0	1	1.2	2.0	13.9363	955.0	1.2	Outcome1	1.2	3.9	0.0	No	2.0	-2.7044167610419	1.164	197.912	n/a	GetAnswer	Mixed
197.931	4.0	0.019	251.207	14.0	1	1.2	2.0	13.9363	955.0	1.2	Outcome1	1.2	3.9	0.0	No	n/a	-2.7044167610419	n/a	n/a	n/a	ShowChoice	Mixed
201.946	1.0	0.015	255.222	14.0	1	1.2	2.0	13.9363	955.0	1.2	Outcome1	1.2	3.9	0.0	No	n/a	-2.7044167610419	n/a	n/a	n/a	ShowResult	Mixed
202.962	5.019	0.016	256.238	14.0	1	1.2	2.0	13.9363	955.0	1.2	Outcome1	1.2	3.9	0.0	No	n/a	-2.7044167610419	n/a	n/a	n/a	ISITrial	Mixed
208.011	3.0	0.03	261.287	15.0	1	-3.0	-3.0	13.5613	955.0	2.8	Certain	-11.45	5.5	3.3485	Yes	4.0	16.9501698754247	1.851	209.862	n/a	GetAnswer	Gain
209.877	4.0	0.015	263.153	15.0	1	-3.0	-3.0	13.5613	955.0	2.8	Certain	-11.45	5.5	3.3485	Yes	n/a	16.9501698754247	n/a	n/a	n/a	ShowChoice	Gain
213.892	1.0	0.015	267.168	15.0	1	-3.0	-3.0	13.5613	955.0	2.8	Certain	-11.45	5.5	3.3485	Yes	n/a	16.9501698754247	n/a	n/a	n/a	ShowResult	Gain
214.908	7.614	0.016	268.184	15.0	1	-3.0	-3.0	13.5613	955.0	2.8	Certain	-11.45	5.5	3.3485	Yes	n/a	16.9501698754247	n/a	n/a	n/a	ISITrial	Gain
222.539	3.348	0.017	275.815	15.0	1	-3.0	-3.0	13.5613	955.0	2.8	Certain	-11.45	5.5	3.3485	Yes	n/a	16.9501698754247	n/a	n/a	n/a	TrialHappPreview	Gain
225.904	4.016	0.017	279.18	15.0	1	-3.0	-3.0	13.5613	955.0	2.8	Certain	-11.45	5.5	3.3485	Yes	n/a	16.9501698754247	n/a	n/a	464.0	TrialHappiness	Gain
225.905	0.252	n/a	279.903	15.0	1	-3.0	-3.0	13.5613	955.0	2.8	Certain	-11.45	5.5	3.3485	Yes	n/a	16.9501698754247	n/a	n/a	464.0	TrialHappinessSliderResponse	Gain
229.92	5.394	4.016	283.196	15.0	1	-3.0	-3.0	13.5613	955.0	2.8	Certain	-11.45	5.5	3.3485	Yes	n/a	16.9501698754247	n/a	n/a	n/a	ISIRate	Gain
235.334	3.0	0.02	288.61	16.0	1	13.7	-1.78	15.2738	955.0	3.16	Outcome2	-3.55	13.7	0.0	No	2.0	17.2525481313703	1.017	236.351	n/a	GetAnswer	Loss
236.367	4.0	0.016	289.643	16.0	1	13.7	-1.78	15.2738	955.0	3.16	Outcome2	-3.55	13.7	0.0	No	n/a	17.2525481313703	n/a	n/a	n/a	ShowChoice	Loss
240.383	1.0	0.016	293.659	16.0	1	13.7	-1.78	15.2738	955.0	3.16	Outcome2	-3.55	13.7	0.0	No	n/a	17.2525481313703	n/a	n/a	n/a	ShowResult	Loss
241.399	3.008	0.016	294.675	16.0	1	13.7	-1.78	15.2738	955.0	3.16	Outcome2	-3.55	13.7	0.0	No	n/a	17.2525481313703	n/a	n/a	n/a	ISITrial	Loss
244.431	3.0	0.024	297.707	17.0	1	-7.0	-7.0	14.3988	955.0	0.82	Certain	1.5	-16.31	3.0415	Yes	4.0	17.808607021517602	1.399	245.83	n/a	GetAnswer	Mixed
245.847	4.0	0.017	299.123	17.0	1	-7.0	-7.0	14.3988	955.0	0.82	Certain	1.5	-16.31	3.0415	Yes	n/a	17.808607021517602	n/a	n/a	n/a	ShowChoice	Mixed
249.863	1.0	0.016	303.139	17.0	1	-7.0	-7.0	14.3988	955.0	0.82	Certain	1.5	-16.31	3.0415	Yes	n/a	17.808607021517602	n/a	n/a	n/a	ShowResult	Mixed
250.879	3.566	0.016	304.155	17.0	1	-7.0	-7.0	14.3988	955.0	0.82	Certain	1.5	-16.31	3.0415	Yes	n/a	17.808607021517602	n/a	n/a	n/a	ISITrial	Mixed
254.461	3.042	0.016	307.737	17.0	1	-7.0	-7.0	14.3988	955.0	0.82	Certain	1.5	-16.31	3.0415	Yes	n/a	17.808607021517602	n/a	n/a	n/a	TrialHappPreview	Mixed
257.527	4.015	0.024	310.803	17.0	1	-7.0	-7.0	14.3988	955.0	0.82	Certain	1.5	-16.31	3.0415	Yes	n/a	17.808607021517602	n/a	n/a	480.0	TrialHappiness	Mixed
257.527	0.207	n/a	314.352	17.0	1	-7.0	-7.0	14.3988	955.0	0.82	Certain	1.5	-16.31	3.0415	Yes	n/a	17.808607021517602	n/a	n/a	480.0	TrialHappinessSliderResponse	Mixed
261.542	4.166	4.015	314.818	17.0	1	-7.0	-7.0	14.3988	955.0	0.82	Certain	1.5	-16.31	3.0415	Yes	n/a	17.808607021517602	n/a	n/a	n/a	ISIRate	Mixed
265.74	3.0	0.032	319.016	18.0	1	-10.0	-10.0	13.1488	955.0	0.52	Certain	-18.99	-0.9	0.0	No	4.0	18.092865232163103	1.867	267.607	n/a	GetAnswer	Mixed
267.623	4.0	0.016	320.899	18.0	1	-10.0	-10.0	13.1488	955.0	0.52	Certain	-18.99	-0.9	0.0	No	n/a	18.092865232163103	n/a	n/a	n/a	ShowChoice	Mixed
271.638	1.0	0.015	324.914	18.0	1	-10.0	-10.0	13.1488	955.0	0.52	Certain	-18.99	-0.9	0.0	No	n/a	18.092865232163103	n/a	n/a	n/a	ShowResult	Mixed
272.655	6.787	0.017	325.931	18.0	1	-10.0	-10.0	13.1488	955.0	0.52	Certain	-18.99	-0.9	0.0	No	n/a	18.092865232163103	n/a	n/a	n/a	ISITrial	Mixed
279.469	3.0	0.027	332.745	19.0	1	3.29	1.64	13.56	955.0	4.2	Outcome2	6.1	3.29	0.0	No	2.0	-2.8077576443941097	1.218	280.687	n/a	GetAnswer	Gain
280.702	4.0	0.015	333.978	19.0	1	3.29	1.64	13.56	955.0	4.2	Outcome2	6.1	3.29	0.0	No	n/a	-2.8077576443941097	n/a	n/a	n/a	ShowChoice	Gain
284.717	1.0	0.015	337.993	19.0	1	3.29	1.64	13.56	955.0	4.2	Outcome2	6.1	3.29	0.0	No	n/a	-2.8077576443941097	n/a	n/a	n/a	ShowResult	Gain
285.733	2.0	0.016	339.009	19.0	1	3.29	1.64	13.56	955.0	4.2	Outcome2	6.1	3.29	0.0	No	n/a	-2.8077576443941097	n/a	n/a	n/a	ISITrial	Gain
287.766	3.0	0.033	341.042	20.0	1	-3.0	-3.0	13.185	955.0	5.0	Certain	6.3	-12.87	2.92125	Yes	4.0	19.1687429218573	1.544	289.31	n/a	GetAnswer	Gain
289.332	4.0	0.022	342.608	20.0	1	-3.0	-3.0	13.185	955.0	5.0	Certain	6.3	-12.87	2.92125	Yes	n/a	19.1687429218573	n/a	n/a	n/a	ShowChoice	Gain
293.347	1.0	0.015	346.623	20.0	1	-3.0	-3.0	13.185	955.0	5.0	Certain	6.3	-12.87	2.92125	Yes	n/a	19.1687429218573	n/a	n/a	n/a	ShowResult	Gain
294.364	8.0	0.017	347.64	20.0	1	-3.0	-3.0	13.185	955.0	5.0	Certain	6.3	-12.87	2.92125	Yes	n/a	19.1687429218573	n/a	n/a	n/a	ISITrial	Gain
302.378	2.921	0.014	355.654	20.0	1	-3.0	-3.0	13.185	955.0	5.0	Certain	6.3	-12.87	2.92125	Yes	n/a	19.1687429218573	n/a	n/a	n/a	TrialHappPreview	Gain
305.327	4.015	0.028	358.603	20.0	1	-3.0	-3.0	13.185	955.0	5.0	Certain	6.3	-12.87	2.92125	Yes	n/a	19.1687429218573	n/a	n/a	480.0	TrialHappiness	Gain
305.327	0.22	n/a	359.24	20.0	1	-3.0	-3.0	13.185	955.0	5.0	Certain	6.3	-12.87	2.92125	Yes	n/a	19.1687429218573	n/a	n/a	480.0	TrialHappinessSliderResponse	Gain
309.342	3.685	4.015	362.618	20.0	1	-3.0	-3.0	13.185	955.0	5.0	Certain	6.3	-12.87	2.92125	Yes	n/a	19.1687429218573	n/a	n/a	n/a	ISIRate	Gain
313.057	3.0	0.03	366.333	21.0	1	5.7	-4.0	13.8975	955.0	3.16	Outcome1	5.7	-14.01	0.0	No	2.0	19.7066817667044	1.323	314.38	n/a	GetAnswer	Gain
314.407	4.0	0.027	367.683	21.0	1	5.7	-4.0	13.8975	955.0	3.16	Outcome1	5.7	-14.01	0.0	No	n/a	19.7066817667044	n/a	n/a	n/a	ShowChoice	Gain
318.422	1.0	0.015	371.698	21.0	1	5.7	-4.0	13.8975	955.0	3.16	Outcome1	5.7	-14.01	0.0	No	n/a	19.7066817667044	n/a	n/a	n/a	ShowResult	Gain
319.438	3.555	0.016	372.714	21.0	1	5.7	-4.0	13.8975	955.0	3.16	Outcome1	5.7	-14.01	0.0	No	n/a	19.7066817667044	n/a	n/a	n/a	ISITrial	Gain
323.02	3.0	0.027	376.296	22.0	1	-3.57	-3.57	13.4513	955.0	2.22	Certain	13.1	-7.14	3.2195	Yes	4.0	20.2446206115515	1.422	324.442	n/a	GetAnswer	Loss
324.47	4.0	0.027	377.746	22.0	1	-3.57	-3.57	13.4513	955.0	2.22	Certain	13.1	-7.14	3.2195	Yes	n/a	20.2446206115515	n/a	n/a	n/a	ShowChoice	Loss
328.485	1.0	0.015	381.761	22.0	1	-3.57	-3.57	13.4513	955.0	2.22	Certain	13.1	-7.14	3.2195	Yes	n/a	20.2446206115515	n/a	n/a	n/a	ShowResult	Loss
329.502	6.793	0.017	382.778	22.0	1	-3.57	-3.57	13.4513	955.0	2.22	Certain	13.1	-7.14	3.2195	Yes	n/a	20.2446206115515	n/a	n/a	n/a	ISITrial	Loss
336.316	3.22	0.021	389.592	22.0	1	-3.57	-3.57	13.4513	955.0	2.22	Certain	13.1	-7.14	3.2195	Yes	n/a	20.2446206115515	n/a	n/a	n/a	TrialHappPreview	Loss
339.565	4.015	0.029	392.841	22.0	1	-3.57	-3.57	13.4513	955.0	2.22	Certain	13.1	-7.14	3.2195	Yes	n/a	20.2446206115515	n/a	n/a	448.0	TrialHappiness	Loss
339.565	0.276	n/a	395.587	22.0	1	-3.57	-3.57	13.4513	955.0	2.22	Certain	13.1	-7.14	3.2195	Yes	n/a	20.2446206115515	n/a	n/a	448.0	TrialHappinessSliderResponse	Loss
343.58	4.878	4.015	396.856	22.0	1	-3.57	-3.57	13.4513	955.0	2.22	Certain	13.1	-7.14	3.2195	Yes	n/a	20.2446206115515	n/a	n/a	n/a	ISIRate	Loss
348.478	3.0	0.02	401.754	23.0	1	-7.0	-7.0	12.5763	955.0	0.82	Certain	-17.83	3.5	0.0	No	4.0	21.326160815402	2.163	350.641	n/a	GetAnswer	Mixed
350.661	4.0	0.02	403.937	23.0	1	-7.0	-7.0	12.5763	955.0	0.82	Certain	-17.83	3.5	0.0	No	n/a	21.326160815402	n/a	n/a	n/a	ShowChoice	Mixed
354.676	1.0	0.015	407.952	23.0	1	-7.0	-7.0	12.5763	955.0	0.82	Certain	-17.83	3.5	0.0	No	n/a	21.326160815402	n/a	n/a	n/a	ShowResult	Mixed
355.692	8.0	0.016	408.968	23.0	1	-7.0	-7.0	12.5763	955.0	0.82	Certain	-17.83	3.5	0.0	No	n/a	21.326160815402	n/a	n/a	n/a	ISITrial	Mixed
363.723	3.0	0.031	416.999	24.0	1	-7.0	-7.0	11.7013	955.0	0.66	Certain	-18.6	3.3	3.255	Yes	4.0	21.9003397508494	1.927	365.65	n/a	GetAnswer	Mixed
365.672	4.0	0.022	418.948	24.0	1	-7.0	-7.0	11.7013	955.0	0.66	Certain	-18.6	3.3	3.255	Yes	n/a	21.9003397508494	n/a	n/a	n/a	ShowChoice	Mixed
369.688	1.0	0.016	422.964	24.0	1	-7.0	-7.0	11.7013	955.0	0.66	Certain	-18.6	3.3	3.255	Yes	n/a	21.9003397508494	n/a	n/a	n/a	ShowResult	Mixed
370.704	2.0	0.016	423.98	24.0	1	-7.0	-7.0	11.7013	955.0	0.66	Certain	-18.6	3.3	3.255	Yes	n/a	21.9003397508494	n/a	n/a	n/a	ISITrial	Mixed
372.72	3.255	0.016	425.996	24.0	1	-7.0	-7.0	11.7013	955.0	0.66	Certain	-18.6	3.3	3.255	Yes	n/a	21.9003397508494	n/a	n/a	n/a	TrialHappPreview	Mixed
376.002	4.015	0.027	429.278	24.0	1	-7.0	-7.0	11.7013	955.0	0.66	Certain	-18.6	3.3	3.255	Yes	n/a	21.9003397508494	n/a	n/a	472.0	TrialHappiness	Mixed
376.003	0.228	n/a	430.541	24.0	1	-7.0	-7.0	11.7013	955.0	0.66	Certain	-18.6	3.3	3.255	Yes	n/a	21.9003397508494	n/a	n/a	472.0	TrialHappinessSliderResponse	Mixed
380.017	5.02	4.015	433.293	24.0	1	-7.0	-7.0	11.7013	955.0	0.66	Certain	-18.6	3.3	3.255	Yes	n/a	21.9003397508494	n/a	n/a	n/a	ISIRate	Mixed
385.065	3.0	0.028	438.341	25.0	1	10.9	0.0	13.0638	955.0	2.0	Outcome1	10.9	-11.17	0.0	No	2.0	22.0668176670442	2.05	387.115	n/a	GetAnswer	Loss
387.131	4.0	0.016	440.407	25.0	1	10.9	0.0	13.0638	955.0	2.0	Outcome1	10.9	-11.17	0.0	No	n/a	22.0668176670442	n/a	n/a	n/a	ShowChoice	Loss
391.147	1.0	0.016	444.423	25.0	1	10.9	0.0	13.0638	955.0	2.0	Outcome1	10.9	-11.17	0.0	No	n/a	22.0668176670442	n/a	n/a	n/a	ShowResult	Loss
392.163	3.749	0.016	445.439	25.0	1	10.9	0.0	13.0638	955.0	2.0	Outcome1	10.9	-11.17	0.0	No	n/a	22.0668176670442	n/a	n/a	n/a	ISITrial	Loss
395.945	3.0	0.033	449.221	26.0	1	0.0	0.0	13.0638	955.0	2.48	Certain	11.3	-11.31	0.0	No	4.0	22.6138165345413	1.806	397.751	n/a	GetAnswer	Loss
397.778	4.0	0.027	451.054	26.0	1	0.0	0.0	13.0638	955.0	2.48	Certain	11.3	-11.31	0.0	No	n/a	22.6138165345413	n/a	n/a	n/a	ShowChoice	Loss
401.793	1.0	0.015	455.069	26.0	1	0.0	0.0	13.0638	955.0	2.48	Certain	11.3	-11.31	0.0	No	n/a	22.6138165345413	n/a	n/a	n/a	ShowResult	Loss
402.809	7.834	0.016	456.085	26.0	1	0.0	0.0	13.0638	955.0	2.48	Certain	11.3	-11.31	0.0	No	n/a	22.6138165345413	n/a	n/a	n/a	ISITrial	Loss
410.673	3.0	0.03	463.949	27.0	1	-1.1	-12.0	12.9263	955.0	0.4	Outcome1	-1.1	-24.26	2.54975	Yes	n/a	23.160815402038494	n/a	n/a	n/a	GetAnswer	Mixed
413.689	4.0	0.016	466.965	27.0	1	-1.1	-12.0	12.9263	955.0	0.4	Outcome1	-1.1	-24.26	2.54975	Yes	n/a	23.160815402038494	n/a	n/a	n/a	ShowChoice	Mixed
417.704	1.0	0.015	470.98	27.0	1	-1.1	-12.0	12.9263	955.0	0.4	Outcome1	-1.1	-24.26	2.54975	Yes	n/a	23.160815402038494	n/a	n/a	n/a	ShowResult	Mixed
418.72	4.225	0.016	471.996	27.0	1	-1.1	-12.0	12.9263	955.0	0.4	Outcome1	-1.1	-24.26	2.54975	Yes	n/a	23.160815402038494	n/a	n/a	n/a	ISITrial	Mixed
422.969	2.55	0.024	476.245	27.0	1	-1.1	-12.0	12.9263	955.0	0.4	Outcome1	-1.1	-24.26	2.54975	Yes	n/a	23.160815402038494	n/a	n/a	n/a	TrialHappPreview	Mixed
425.551	4.016	0.032	478.827	27.0	1	-1.1	-12.0	12.9263	955.0	0.4	Outcome1	-1.1	-24.26	2.54975	Yes	n/a	23.160815402038494	n/a	n/a	448.0	TrialHappiness	Mixed
425.552	0.274	n/a	479.511	27.0	1	-1.1	-12.0	12.9263	955.0	0.4	Outcome1	-1.1	-24.26	2.54975	Yes	n/a	23.160815402038494	n/a	n/a	448.0	TrialHappinessSliderResponse	Mixed
429.567	2.199	4.016	482.843	27.0	1	-1.1	-12.0	12.9263	955.0	0.4	Outcome1	-1.1	-24.26	2.54975	Yes	n/a	23.160815402038494	n/a	n/a	n/a	ISIRate	Mixed
464.655	1.379	n/a	518.742	n/a	1	n/a	n/a	n/a	n/a	n/a	n/a	n/a	n/a	n/a	n/a	n/a	n/a	n/a	n/a	432.0	BlockStartHappinessSliderResponse	n/a
-40.719	-0.001	0.017	485.059	n/a	2	n/a	n/a	n/a	n/a	n/a	n/a	n/a	n/a	n/a	n/a	{SPACE}	n/a	28.84	-11.879	n/a	Rest	n/a
-11.863	4.0	0.016	513.915	n/a	2	n/a	n/a	n/a	n/a	n/a	n/a	n/a	n/a	n/a	n/a	n/a	n/a	n/a	n/a	n/a	BlockHappyPreview	n/a
-7.848	2.19	0.015	517.93	n/a	2	n/a	n/a	n/a	n/a	n/a	n/a	n/a	n/a	n/a	n/a	4{-4}4{-4}	n/a	2.19	-5.658	432.0	BlockStartHappiness	n/a
-1.45	-0.001	0.013	524.328	n/a	2	n/a	n/a	n/a	n/a	n/a	n/a	n/a	n/a	n/a	n/a	5.0	n/a	1.439	-0.011	n/a	ScanWait	n/a
0.0	10.0	0.011	525.778	n/a	2	n/a	n/a	n/a	n/a	n/a	n/a	n/a	n/a	n/a	n/a	n/a	n/a	n/a	n/a	n/a	GetReady	n/a
10.013	3.0	0.013	535.791	28.0	2	-1.26	2.0	12.7688	70.0	2.0	Outcome2	4.9	-1.26	0.0	No	2.0	-6.156462585034009	1.796	11.809	n/a	GetAnswer	Gain
11.829	4.0	0.02	537.607	28.0	2	-1.26	2.0	12.7688	70.0	2.0	Outcome2	4.9	-1.26	0.0	No	n/a	-6.156462585034009	n/a	n/a	n/a	ShowChoice	Gain
15.844	1.0	0.015	541.622	28.0	2	-1.26	2.0	12.7688	70.0	2.0	Outcome2	4.9	-1.26	0.0	No	n/a	-6.156462585034009	n/a	n/a	n/a	ShowResult	Gain
16.86	3.575	0.016	542.638	28.0	2	-1.26	2.0	12.7688	70.0	2.0	Outcome2	4.9	-1.26	0.0	No	n/a	-6.156462585034009	n/a	n/a	n/a	ISITrial	Gain
20.459	3.0	0.024	546.237	29.0	2	1.13	0.56	12.9101	70.0	3.16	Outcome1	1.13	7.7	3.529	Yes	2.0	-6.56689342403628	1.316	21.775	n/a	GetAnswer	Gain
21.792	4.0	0.017	547.57	29.0	2	1.13	0.56	12.9101	70.0	3.16	Outcome1	1.13	7.7	3.529	Yes	n/a	-6.56689342403628	n/a	n/a	n/a	ShowChoice	Gain
25.807	1.0	0.015	551.585	29.0	2	1.13	0.56	12.9101	70.0	3.16	Outcome1	1.13	7.7	3.529	Yes	n/a	-6.56689342403628	n/a	n/a	n/a	ShowResult	Gain
26.824	3.955	0.017	552.602	29.0	2	1.13	0.56	12.9101	70.0	3.16	Outcome1	1.13	7.7	3.529	Yes	n/a	-6.56689342403628	n/a	n/a	n/a	ISITrial	Gain
30.806	3.529	0.027	556.584	29.0	2	1.13	0.56	12.9101	70.0	3.16	Outcome1	1.13	7.7	3.529	Yes	n/a	-6.56689342403628	n/a	n/a	n/a	TrialHappPreview	Gain
34.354	4.016	0.019	560.132	29.0	2	1.13	0.56	12.9101	70.0	3.16	Outcome1	1.13	7.7	3.529	Yes	n/a	-6.56689342403628	n/a	n/a	488.0	TrialHappiness	Gain
34.355	0.996	n/a	560.577	29.0	2	1.13	0.56	12.9101	70.0	3.16	Outcome1	1.13	7.7	3.529	Yes	n/a	-6.56689342403628	n/a	n/a	488.0	TrialHappinessSliderResponse	Gain
38.37	6.116	4.016	564.148	29.0	2	1.13	0.56	12.9101	70.0	3.16	Outcome1	1.13	7.7	3.529	Yes	n/a	-6.56689342403628	n/a	n/a	n/a	ISIRate	Gain
44.517	3.0	0.031	570.295	30.0	2	3.22	2.0	13.3126	70.0	2.0	Outcome1	3.22	1.45	0.0	No	2.0	1.7666288737717302	1.146	45.663	n/a	GetAnswer	Loss
45.684	4.0	0.021	571.462	30.0	2	3.22	2.0	13.3126	70.0	2.0	Outcome1	3.22	1.45	0.0	No	n/a	1.7666288737717302	n/a	n/a	n/a	ShowChoice	Loss
49.699	1.0	0.015	575.477	30.0	2	3.22	2.0	13.3126	70.0	2.0	Outcome1	3.22	1.45	0.0	No	n/a	1.7666288737717302	n/a	n/a	n/a	ShowResult	Loss
50.715	4.453	0.016	576.493	30.0	2	3.22	2.0	13.3126	70.0	2.0	Outcome1	3.22	1.45	0.0	No	n/a	1.7666288737717302	n/a	n/a	n/a	ISITrial	Loss
55.197	3.0	0.029	580.975	31.0	2	0.52	0.0	13.3776	70.0	1.5	Outcome1	0.52	-1.29	2.50325	Yes	2.0	1.80612244897959	2.721	57.918	n/a	GetAnswer	Mixed
57.946	4.0	0.028	583.724	31.0	2	0.52	0.0	13.3776	70.0	1.5	Outcome1	0.52	-1.29	2.50325	Yes	n/a	1.80612244897959	n/a	n/a	n/a	ShowChoice	Mixed
61.961	1.0	0.015	587.739	31.0	2	0.52	0.0	13.3776	70.0	1.5	Outcome1	0.52	-1.29	2.50325	Yes	n/a	1.80612244897959	n/a	n/a	n/a	ShowResult	Mixed
62.978	4.786	0.017	588.756	31.0	2	0.52	0.0	13.3776	70.0	1.5	Outcome1	0.52	-1.29	2.50325	Yes	n/a	1.80612244897959	n/a	n/a	n/a	ISITrial	Mixed
67.776	2.503	0.012	593.554	31.0	2	0.52	0.0	13.3776	70.0	1.5	Outcome1	0.52	-1.29	2.50325	Yes	n/a	1.80612244897959	n/a	n/a	n/a	TrialHappPreview	Mixed
70.308	4.016	0.029	596.086	31.0	2	0.52	0.0	13.3776	70.0	1.5	Outcome1	0.52	-1.29	2.50325	Yes	n/a	1.80612244897959	n/a	n/a	440.0	TrialHappiness	Mixed
70.309	0.299	n/a	597.379	31.0	2	0.52	0.0	13.3776	70.0	1.5	Outcome1	0.52	-1.29	2.50325	Yes	n/a	1.80612244897959	n/a	n/a	440.0	TrialHappinessSliderResponse	Mixed
74.324	2.013	4.016	600.102	31.0	2	0.52	0.0	13.3776	70.0	1.5	Outcome1	0.52	-1.29	2.50325	Yes	n/a	1.80612244897959	n/a	n/a	n/a	ISIRate	Mixed
76.356	3.0	0.019	602.134	32.0	2	4.04	2.02	13.8826	70.0	4.2	Outcome2	12.1	4.04	0.0	No	2.0	-8.06122448979592	1.505	77.861	n/a	GetAnswer	Loss
77.889	4.0	0.028	603.667	32.0	2	4.04	2.02	13.8826	70.0	4.2	Outcome2	12.1	4.04	0.0	No	n/a	-8.06122448979592	n/a	n/a	n/a	ShowChoice	Loss
81.904	1.0	0.015	607.682	32.0	2	4.04	2.02	13.8826	70.0	4.2	Outcome2	12.1	4.04	0.0	No	n/a	-8.06122448979592	n/a	n/a	n/a	ShowResult	Loss
82.921	2.0	0.017	608.699	32.0	2	4.04	2.02	13.8826	70.0	4.2	Outcome2	12.1	4.04	0.0	No	n/a	-8.06122448979592	n/a	n/a	n/a	ISITrial	Loss
84.937	3.0	0.016	610.715	33.0	2	1.62	0.81	14.0851	70.0	4.2	Outcome1	1.62	10.1	0.0	No	2.0	-8.480725623582769	1.557	86.494	n/a	GetAnswer	Gain
86.519	4.0	0.025	612.297	33.0	2	1.62	0.81	14.0851	70.0	4.2	Outcome1	1.62	10.1	0.0	No	n/a	-8.480725623582769	n/a	n/a	n/a	ShowChoice	Gain
90.535	1.0	0.016	616.313	33.0	2	1.62	0.81	14.0851	70.0	4.2	Outcome1	1.62	10.1	0.0	No	n/a	-8.480725623582769	n/a	n/a	n/a	ShowResult	Gain
91.551	5.099	0.016	617.329	33.0	2	1.62	0.81	14.0851	70.0	4.2	Outcome1	1.62	10.1	0.0	No	n/a	-8.480725623582769	n/a	n/a	n/a	ISITrial	Gain
96.666	3.0	0.016	622.444	34.0	2	0.0	0.0	14.0851	70.0	0.52	Certain	0.28	-1.44	3.2315	Yes	4.0	1.72052154195011	2.061	98.727	n/a	GetAnswer	Mixed
98.749	4.0	0.022	624.527	34.0	2	0.0	0.0	14.0851	70.0	0.52	Certain	0.28	-1.44	3.2315	Yes	n/a	1.72052154195011	n/a	n/a	n/a	ShowChoice	Mixed
102.764	1.0	0.015	628.542	34.0	2	0.0	0.0	14.0851	70.0	0.52	Certain	0.28	-1.44	3.2315	Yes	n/a	1.72052154195011	n/a	n/a	n/a	ShowResult	Mixed
103.78	4.784	0.016	629.558	34.0	2	0.0	0.0	14.0851	70.0	0.52	Certain	0.28	-1.44	3.2315	Yes	n/a	1.72052154195011	n/a	n/a	n/a	ISITrial	Mixed
108.578	3.232	0.014	634.356	34.0	2	0.0	0.0	14.0851	70.0	0.52	Certain	0.28	-1.44	3.2315	Yes	n/a	1.72052154195011	n/a	n/a	n/a	TrialHappPreview	Mixed
111.827	4.016	0.017	637.605	34.0	2	0.0	0.0	14.0851	70.0	0.52	Certain	0.28	-1.44	3.2315	Yes	n/a	1.72052154195011	n/a	n/a	464.0	TrialHappiness	Mixed
111.828	0.243	n/a	638.97	34.0	2	0.0	0.0	14.0851	70.0	0.52	Certain	0.28	-1.44	3.2315	Yes	n/a	1.72052154195011	n/a	n/a	464.0	TrialHappinessSliderResponse	Mixed
115.843	4.926	4.016	641.621	34.0	2	0.0	0.0	14.0851	70.0	0.52	Certain	0.28	-1.44	3.2315	Yes	n/a	1.72052154195011	n/a	n/a	n/a	ISIRate	Mixed
120.791	3.0	0.022	646.569	35.0	2	1.78	1.0	14.3076	70.0	2.22	Outcome1	1.78	-0.07	0.0	No	2.0	1.85298563869992	1.648	122.439	n/a	GetAnswer	Gain
122.457	4.0	0.018	648.235	35.0	2	1.78	1.0	14.3076	70.0	2.22	Outcome1	1.78	-0.07	0.0	No	n/a	1.85298563869992	n/a	n/a	n/a	ShowChoice	Gain
126.472	1.0	0.015	652.25	35.0	2	1.78	1.0	14.3076	70.0	2.22	Outcome1	1.78	-0.07	0.0	No	n/a	1.85298563869992	n/a	n/a	n/a	ShowResult	Gain
127.488	2.098	0.016	653.266	35.0	2	1.78	1.0	14.3076	70.0	2.22	Outcome1	1.78	-0.07	0.0	No	n/a	1.85298563869992	n/a	n/a	n/a	ISITrial	Gain
129.604	3.0	0.018	655.382	36.0	2	-3.0	-3.0	13.9326	70.0	1.2	Certain	-8.27	1.9	3.33575	Yes	4.0	-10.1746031746032	2.241	131.845	n/a	GetAnswer	Mixed
131.87	4.0	0.025	657.648	36.0	2	-3.0	-3.0	13.9326	70.0	1.2	Certain	-8.27	1.9	3.33575	Yes	n/a	-10.1746031746032	n/a	n/a	n/a	ShowChoice	Mixed
135.886	1.0	0.016	661.664	36.0	2	-3.0	-3.0	13.9326	70.0	1.2	Certain	-8.27	1.9	3.33575	Yes	n/a	-10.1746031746032	n/a	n/a	n/a	ShowResult	Mixed
136.902	5.156	0.016	662.68	36.0	2	-3.0	-3.0	13.9326	70.0	1.2	Certain	-8.27	1.9	3.33575	Yes	n/a	-10.1746031746032	n/a	n/a	n/a	ISITrial	Mixed
142.083	3.336	0.025	667.861	36.0	2	-3.0	-3.0	13.9326	70.0	1.2	Certain	-8.27	1.9	3.33575	Yes	n/a	-10.1746031746032	n/a	n/a	n/a	TrialHappPreview	Mixed
145.449	4.015	0.03	671.227	36.0	2	-3.0	-3.0	13.9326	70.0	1.2	Certain	-8.27	1.9	3.33575	Yes	n/a	-10.1746031746032	n/a	n/a	432.0	TrialHappiness	Mixed
145.45	0.308	n/a	671.993	36.0	2	-3.0	-3.0	13.9326	70.0	1.2	Certain	-8.27	1.9	3.33575	Yes	n/a	-10.1746031746032	n/a	n/a	432.0	TrialHappinessSliderResponse	Mixed
149.464	5.343	4.015	675.242	36.0	2	-3.0	-3.0	13.9326	70.0	1.2	Certain	-8.27	1.9	3.33575	Yes	n/a	-10.1746031746032	n/a	n/a	n/a	ISIRate	Mixed
154.829	3.0	0.022	680.607	37.0	2	-1.58	-0.79	13.7351	70.0	1.68	Outcome1	-1.58	8.5	0.0	No	n/a	-10.0770975056689	n/a	n/a	n/a	GetAnswer	Gain
157.845	4.0	0.016	683.623	37.0	2	-1.58	-0.79	13.7351	70.0	1.68	Outcome1	-1.58	8.5	0.0	No	n/a	-10.0770975056689	n/a	n/a	n/a	ShowChoice	Gain
161.86	1.0	0.015	687.638	37.0	2	-1.58	-0.79	13.7351	70.0	1.68	Outcome1	-1.58	8.5	0.0	No	n/a	-10.0770975056689	n/a	n/a	n/a	ShowResult	Gain
162.876	3.598	0.016	688.654	37.0	2	-1.58	-0.79	13.7351	70.0	1.68	Outcome1	-1.58	8.5	0.0	No	n/a	-10.0770975056689	n/a	n/a	n/a	ISITrial	Gain
166.492	3.0	0.018	692.27	38.0	2	-10.59	-5.0	12.4113	70.0	1.2	Outcome2	-0.1	-10.59	0.0	No	n/a	-10.4875283446712	n/a	n/a	n/a	GetAnswer	Mixed
169.507	4.0	0.015	695.285	38.0	2	-10.59	-5.0	12.4113	70.0	1.2	Outcome2	-0.1	-10.59	0.0	No	n/a	-10.4875283446712	n/a	n/a	n/a	ShowChoice	Mixed
173.522	1.0	0.015	699.3	38.0	2	-10.59	-5.0	12.4113	70.0	1.2	Outcome2	-0.1	-10.59	0.0	No	n/a	-10.4875283446712	n/a	n/a	n/a	ShowResult	Mixed
174.539	4.787	0.017	700.317	38.0	2	-10.59	-5.0	12.4113	70.0	1.2	Outcome2	-0.1	-10.59	0.0	No	n/a	-10.4875283446712	n/a	n/a	n/a	ISITrial	Mixed
179.354	3.0	0.028	705.132	39.0	2	0.0	0.0	12.4113	70.0	1.5	Certain	-0.85	1.02	2.86425	Yes	4.0	1.86583522297808	0.885	180.239	n/a	GetAnswer	Mixed
180.253	4.0	0.014	706.031	39.0	2	0.0	0.0	12.4113	70.0	1.5	Certain	-0.85	1.02	2.86425	Yes	n/a	1.86583522297808	n/a	n/a	n/a	ShowChoice	Mixed
184.269	1.0	0.016	710.047	39.0	2	0.0	0.0	12.4113	70.0	1.5	Certain	-0.85	1.02	2.86425	Yes	n/a	1.86583522297808	n/a	n/a	n/a	ShowResult	Mixed
185.285	2.348	0.016	711.063	39.0	2	0.0	0.0	12.4113	70.0	1.5	Certain	-0.85	1.02	2.86425	Yes	n/a	1.86583522297808	n/a	n/a	n/a	ISITrial	Mixed
187.651	2.864	0.018	713.429	39.0	2	0.0	0.0	12.4113	70.0	1.5	Certain	-0.85	1.02	2.86425	Yes	n/a	1.86583522297808	n/a	n/a	n/a	TrialHappPreview	Mixed
190.533	4.015	0.018	716.311	39.0	2	0.0	0.0	12.4113	70.0	1.5	Certain	-0.85	1.02	2.86425	Yes	4{-4}	1.86583522297808	2.873	193.406	376.0	TrialHappiness	Mixed
190.534	0.432	n/a	718.753	39.0	2	0.0	0.0	12.4113	70.0	1.5	Certain	-0.85	1.02	2.86425	Yes	n/a	1.86583522297808	n/a	n/a	376.0	TrialHappinessSliderResponse	Mixed
194.548	3.457	4.015	720.326	39.0	2	0.0	0.0	12.4113	70.0	1.5	Certain	-0.85	1.02	2.86425	Yes	n/a	1.86583522297808	n/a	n/a	n/a	ISIRate	Mixed
198.031	3.0	0.026	723.809	40.0	2	-1.0	-1.0	12.2863	70.0	1.0	Certain	-1.75	-0.08	0.0	No	4.0	1.67252456538171	1.626	199.657	n/a	GetAnswer	Mixed
199.68	4.0	0.023	725.458	40.0	2	-1.0	-1.0	12.2863	70.0	1.0	Certain	-1.75	-0.08	0.0	No	n/a	1.67252456538171	n/a	n/a	n/a	ShowChoice	Mixed
203.695	1.0	0.015	729.473	40.0	2	-1.0	-1.0	12.2863	70.0	1.0	Certain	-1.75	-0.08	0.0	No	n/a	1.67252456538171	n/a	n/a	n/a	ShowResult	Mixed
204.712	3.158	0.017	730.49	40.0	2	-1.0	-1.0	12.2863	70.0	1.0	Certain	-1.75	-0.08	0.0	No	n/a	1.67252456538171	n/a	n/a	n/a	ISITrial	Mixed
207.894	3.0	0.024	733.672	41.0	2	0.42	0.0	12.3388	70.0	1.0	Outcome1	0.42	-1.28	4.0	Yes	2.0	1.70143613000756	1.366	209.26	n/a	GetAnswer	Mixed
209.277	4.0	0.016	735.055	41.0	2	0.42	0.0	12.3388	70.0	1.0	Outcome1	0.42	-1.28	4.0	Yes	n/a	1.70143613000756	n/a	n/a	n/a	ShowChoice	Mixed
213.292	1.0	0.015	739.07	41.0	2	0.42	0.0	12.3388	70.0	1.0	Outcome1	0.42	-1.28	4.0	Yes	n/a	1.70143613000756	n/a	n/a	n/a	ShowResult	Mixed
214.308	4.506	0.016	740.086	41.0	2	0.42	0.0	12.3388	70.0	1.0	Outcome1	0.42	-1.28	4.0	Yes	n/a	1.70143613000756	n/a	n/a	n/a	ISITrial	Mixed
218.84	4.0	0.026	744.618	41.0	2	0.42	0.0	12.3388	70.0	1.0	Outcome1	0.42	-1.28	4.0	Yes	n/a	1.70143613000756	n/a	n/a	n/a	TrialHappPreview	Mixed
222.855	4.015	0.015	748.633	41.0	2	0.42	0.0	12.3388	70.0	1.0	Outcome1	0.42	-1.28	4.0	Yes	n/a	1.70143613000756	n/a	n/a	384.0	TrialHappiness	Mixed
222.856	0.415	n/a	749.141	41.0	2	0.42	0.0	12.3388	70.0	1.0	Outcome1	0.42	-1.28	4.0	Yes	n/a	1.70143613000756	n/a	n/a	384.0	TrialHappinessSliderResponse	Mixed
226.87	8.0	4.015	752.648	41.0	2	0.42	0.0	12.3388	70.0	1.0	Outcome1	0.42	-1.28	4.0	Yes	n/a	1.70143613000756	n/a	n/a	n/a	ISIRate	Mixed
234.901	3.0	0.031	760.679	42.0	2	-3.0	-3.0	11.9638	70.0	0.2	Certain	2.5	-8.69	0.0	No	4.0	-11.1859410430839	2.076	236.977	n/a	GetAnswer	Mixed
237.0	4.0	0.023	762.778	42.0	2	-3.0	-3.0	11.9638	70.0	0.2	Certain	2.5	-8.69	0.0	No	n/a	-11.1859410430839	n/a	n/a	n/a	ShowChoice	Mixed
241.016	1.0	0.016	766.794	42.0	2	-3.0	-3.0	11.9638	70.0	0.2	Certain	2.5	-8.69	0.0	No	n/a	-11.1859410430839	n/a	n/a	n/a	ShowResult	Mixed
242.032	6.248	0.016	767.81	42.0	2	-3.0	-3.0	11.9638	70.0	0.2	Certain	2.5	-8.69	0.0	No	n/a	-11.1859410430839	n/a	n/a	n/a	ISITrial	Mixed
248.296	3.0	0.016	774.074	43.0	2	2.33	1.0	12.255	70.0	2.48	Outcome2	0.54	2.33	2.77575	Yes	2.0	1.79251700680272	1.377	249.673	n/a	GetAnswer	Gain
249.696	4.0	0.023	775.474	43.0	2	2.33	1.0	12.255	70.0	2.48	Outcome2	0.54	2.33	2.77575	Yes	n/a	1.79251700680272	n/a	n/a	n/a	ShowChoice	Gain
253.711	1.0	0.015	779.489	43.0	2	2.33	1.0	12.255	70.0	2.48	Outcome2	0.54	2.33	2.77575	Yes	n/a	1.79251700680272	n/a	n/a	n/a	ShowResult	Gain
254.727	4.596	0.016	780.505	43.0	2	2.33	1.0	12.255	70.0	2.48	Outcome2	0.54	2.33	2.77575	Yes	n/a	1.79251700680272	n/a	n/a	n/a	ISITrial	Gain
259.343	2.776	0.02	785.121	43.0	2	2.33	1.0	12.255	70.0	2.48	Outcome2	0.54	2.33	2.77575	Yes	n/a	1.79251700680272	n/a	n/a	n/a	TrialHappPreview	Gain
262.142	4.015	0.023	787.92	43.0	2	2.33	1.0	12.255	70.0	2.48	Outcome2	0.54	2.33	2.77575	Yes	n/a	1.79251700680272	n/a	n/a	352.0	TrialHappiness	Gain
262.142	0.481	n/a	788.861	43.0	2	2.33	1.0	12.255	70.0	2.48	Outcome2	0.54	2.33	2.77575	Yes	n/a	1.79251700680272	n/a	n/a	352.0	TrialHappinessSliderResponse	Gain
266.157	3.103	4.015	791.935	43.0	2	2.33	1.0	12.255	70.0	2.48	Outcome2	0.54	2.33	2.77575	Yes	n/a	1.79251700680272	n/a	n/a	n/a	ISIRate	Gain
269.289	3.0	0.029	795.067	44.0	2	-6.0	-6.0	11.505	70.0	0.66	Certain	-12.05	-0.7	0.0	No	4.0	-11.353741496598598	1.565	270.854	n/a	GetAnswer	Mixed
270.872	4.0	0.018	796.65	44.0	2	-6.0	-6.0	11.505	70.0	0.66	Certain	-12.05	-0.7	0.0	No	n/a	-11.353741496598598	n/a	n/a	n/a	ShowChoice	Mixed
274.887	1.0	0.015	800.665	44.0	2	-6.0	-6.0	11.505	70.0	0.66	Certain	-12.05	-0.7	0.0	No	n/a	-11.353741496598598	n/a	n/a	n/a	ShowResult	Mixed
275.903	2.42	0.016	801.681	44.0	2	-6.0	-6.0	11.505	70.0	0.66	Certain	-12.05	-0.7	0.0	No	n/a	-11.353741496598598	n/a	n/a	n/a	ISITrial	Mixed
278.353	3.0	0.03	804.131	45.0	2	0.32	0.0	11.545	70.0	0.66	Outcome1	0.32	-1.4	0.0	No	2.0	1.718820861678	1.242	279.595	n/a	GetAnswer	Mixed
279.619	4.0	0.024	805.397	45.0	2	0.32	0.0	11.545	70.0	0.66	Outcome1	0.32	-1.4	0.0	No	n/a	1.718820861678	n/a	n/a	n/a	ShowChoice	Mixed
283.634	1.0	0.015	809.412	45.0	2	0.32	0.0	11.545	70.0	0.66	Outcome1	0.32	-1.4	0.0	No	n/a	1.718820861678	n/a	n/a	n/a	ShowResult	Mixed
284.65	3.144	0.016	810.428	45.0	2	0.32	0.0	11.545	70.0	0.66	Outcome1	0.32	-1.4	0.0	No	n/a	1.718820861678	n/a	n/a	n/a	ISITrial	Mixed
287.816	3.0	0.022	813.594	46.0	2	-1.69	-0.84	11.3338	70.0	5.0	Outcome1	-1.69	10.3	3.84125	Yes	2.0	-11.9931972789116	1.727	289.543	n/a	GetAnswer	Gain
289.565	4.0	0.022	815.343	46.0	2	-1.69	-0.84	11.3338	70.0	5.0	Outcome1	-1.69	10.3	3.84125	Yes	n/a	-11.9931972789116	n/a	n/a	n/a	ShowChoice	Gain
293.581	1.0	0.016	819.359	46.0	2	-1.69	-0.84	11.3338	70.0	5.0	Outcome1	-1.69	10.3	3.84125	Yes	n/a	-11.9931972789116	n/a	n/a	n/a	ShowResult	Gain
294.597	2.246	0.016	820.375	46.0	2	-1.69	-0.84	11.3338	70.0	5.0	Outcome1	-1.69	10.3	3.84125	Yes	n/a	-11.9931972789116	n/a	n/a	n/a	ISITrial	Gain
296.863	3.841	0.02	822.641	46.0	2	-1.69	-0.84	11.3338	70.0	5.0	Outcome1	-1.69	10.3	3.84125	Yes	n/a	-11.9931972789116	n/a	n/a	n/a	TrialHappPreview	Gain
300.728	4.015	0.024	826.506	46.0	2	-1.69	-0.84	11.3338	70.0	5.0	Outcome1	-1.69	10.3	3.84125	Yes	n/a	-11.9931972789116	n/a	n/a	280.0	TrialHappiness	Gain
300.729	0.632	n/a	828.713	46.0	2	-1.69	-0.84	11.3338	70.0	5.0	Outcome1	-1.69	10.3	3.84125	Yes	n/a	-11.9931972789116	n/a	n/a	280.0	TrialHappinessSliderResponse	Gain
304.743	7.365	4.015	830.521	46.0	2	-1.69	-0.84	11.3338	70.0	5.0	Outcome1	-1.69	10.3	3.84125	Yes	n/a	-11.9931972789116	n/a	n/a	n/a	ISIRate	Gain
312.124	3.0	0.016	837.902	47.0	2	1.72	1.0	11.5488	70.0	2.0	Outcome2	0.24	1.72	0.0	No	2.0	1.47959183673469	1.581	313.705	n/a	GetAnswer	Gain
313.724	4.0	0.019	839.502	47.0	2	1.72	1.0	11.5488	70.0	2.0	Outcome2	0.24	1.72	0.0	No	n/a	1.47959183673469	n/a	n/a	n/a	ShowChoice	Gain
317.739	1.0	0.015	843.517	47.0	2	1.72	1.0	11.5488	70.0	2.0	Outcome2	0.24	1.72	0.0	No	n/a	1.47959183673469	n/a	n/a	n/a	ShowResult	Gain
318.755	2.0	0.016	844.533	47.0	2	1.72	1.0	11.5488	70.0	2.0	Outcome2	0.24	1.72	0.0	No	n/a	1.47959183673469	n/a	n/a	n/a	ISITrial	Gain
320.788	3.0	0.033	846.566	48.0	2	-2.63	-1.32	11.22	70.0	1.82	Outcome2	8.7	-2.63	2.83175	Yes	2.0	-11.3265306122449	1.135	321.923	n/a	GetAnswer	Gain
321.937	4.0	0.014	847.715	48.0	2	-2.63	-1.32	11.22	70.0	1.82	Outcome2	8.7	-2.63	2.83175	Yes	n/a	-11.3265306122449	n/a	n/a	n/a	ShowChoice	Gain
325.953	1.0	0.016	851.731	48.0	2	-2.63	-1.32	11.22	70.0	1.82	Outcome2	8.7	-2.63	2.83175	Yes	n/a	-11.3265306122449	n/a	n/a	n/a	ShowResult	Gain
326.969	3.692	0.016	852.747	48.0	2	-2.63	-1.32	11.22	70.0	1.82	Outcome2	8.7	-2.63	2.83175	Yes	n/a	-11.3265306122449	n/a	n/a	n/a	ISITrial	Gain
330.684	2.832	0.023	856.462	48.0	2	-2.63	-1.32	11.22	70.0	1.82	Outcome2	8.7	-2.63	2.83175	Yes	n/a	-11.3265306122449	n/a	n/a	n/a	TrialHappPreview	Gain
333.533	4.016	0.017	859.311	48.0	2	-2.63	-1.32	11.22	70.0	1.82	Outcome2	8.7	-2.63	2.83175	Yes	n/a	-11.3265306122449	n/a	n/a	352.0	TrialHappiness	Gain
333.534	0.476	n/a	860.341	48.0	2	-2.63	-1.32	11.22	70.0	1.82	Outcome2	8.7	-2.63	2.83175	Yes	n/a	-11.3265306122449	n/a	n/a	352.0	TrialHappinessSliderResponse	Gain
337.549	3.327	4.016	863.327	48.0	2	-2.63	-1.32	11.22	70.0	1.82	Outcome2	8.7	-2.63	2.83175	Yes	n/a	-11.3265306122449	n/a	n/a	n/a	ISIRate	Gain
340.897	3.0	0.021	866.675	49.0	2	-3.89	2.0	10.7338	70.0	2.0	Outcome2	8.9	-3.89	0.0	No	2.0	-12.7891156462585	1.267	342.164	n/a	GetAnswer	Gain
342.18	4.0	0.016	867.958	49.0	2	-3.89	2.0	10.7338	70.0	2.0	Outcome2	8.9	-3.89	0.0	No	n/a	-12.7891156462585	n/a	n/a	n/a	ShowChoice	Gain
346.196	1.0	0.016	871.974	49.0	2	-3.89	2.0	10.7338	70.0	2.0	Outcome2	8.9	-3.89	0.0	No	n/a	-12.7891156462585	n/a	n/a	n/a	ShowResult	Gain
347.212	8.0	0.016	872.99	49.0	2	-3.89	2.0	10.7338	70.0	2.0	Outcome2	8.9	-3.89	0.0	No	n/a	-12.7891156462585	n/a	n/a	n/a	ISITrial	Gain
355.242	3.0	0.03	881.02	50.0	2	2.88	2.0	11.0938	70.0	2.8	Outcome2	1.04	2.88	3.54725	Yes	2.0	1.83843537414966	2.076	357.318	n/a	GetAnswer	Loss
357.342	4.0	0.023	883.12	50.0	2	2.88	2.0	11.0938	70.0	2.8	Outcome2	1.04	2.88	3.54725	Yes	n/a	1.83843537414966	n/a	n/a	n/a	ShowChoice	Loss
361.357	1.0	0.015	887.135	50.0	2	2.88	2.0	11.0938	70.0	2.8	Outcome2	1.04	2.88	3.54725	Yes	n/a	1.83843537414966	n/a	n/a	n/a	ShowResult	Loss
362.373	7.537	0.016	888.151	50.0	2	2.88	2.0	11.0938	70.0	2.8	Outcome2	1.04	2.88	3.54725	Yes	n/a	1.83843537414966	n/a	n/a	n/a	ISITrial	Loss
369.921	3.547	0.011	895.699	50.0	2	2.88	2.0	11.0938	70.0	2.8	Outcome2	1.04	2.88	3.54725	Yes	n/a	1.83843537414966	n/a	n/a	n/a	TrialHappPreview	Loss
373.486	4.015	0.018	899.264	50.0	2	2.88	2.0	11.0938	70.0	2.8	Outcome2	1.04	2.88	3.54725	Yes	n/a	1.83843537414966	n/a	n/a	288.0	TrialHappiness	Loss
373.487	2.665	n/a	900.056	50.0	2	2.88	2.0	11.0938	70.0	2.8	Outcome2	1.04	2.88	3.54725	Yes	n/a	1.83843537414966	n/a	n/a	288.0	TrialHappinessSliderResponse	Loss
377.501	6.189	4.015	903.279	50.0	2	2.88	2.0	11.0938	70.0	2.8	Outcome2	1.04	2.88	3.54725	Yes	n/a	1.83843537414966	n/a	n/a	n/a	ISIRate	Loss
383.716	3.0	0.026	909.494	51.0	2	-1.84	-0.92	10.8638	70.0	1.68	Outcome2	10.5	-1.84	0.0	No	2.0	-12.340136054421802	1.699	385.415	n/a	GetAnswer	Loss
385.432	4.0	0.017	911.21	51.0	2	-1.84	-0.92	10.8638	70.0	1.68	Outcome2	10.5	-1.84	0.0	No	n/a	-12.340136054421802	n/a	n/a	n/a	ShowChoice	Loss
389.447	1.0	0.015	915.225	51.0	2	-1.84	-0.92	10.8638	70.0	1.68	Outcome2	10.5	-1.84	0.0	No	n/a	-12.340136054421802	n/a	n/a	n/a	ShowResult	Loss
390.463	5.508	0.016	916.241	51.0	2	-1.84	-0.92	10.8638	70.0	1.68	Outcome2	10.5	-1.84	0.0	No	n/a	-12.340136054421802	n/a	n/a	n/a	ISITrial	Loss
395.995	3.0	0.024	921.773	52.0	2	2.78	2.0	11.2113	70.0	2.22	Outcome2	1.15	2.78	0.0	No	2.0	1.62566137566138	1.187	397.182	n/a	GetAnswer	Loss
397.194	4.0	0.012	922.972	52.0	2	2.78	2.0	11.2113	70.0	2.22	Outcome2	1.15	2.78	0.0	No	n/a	1.62566137566138	n/a	n/a	n/a	ShowChoice	Loss
401.21	1.0	0.016	926.988	52.0	2	2.78	2.0	11.2113	70.0	2.22	Outcome2	1.15	2.78	0.0	No	n/a	1.62566137566138	n/a	n/a	n/a	ShowResult	Loss
402.226	5.913	0.016	928.004	52.0	2	2.78	2.0	11.2113	70.0	2.22	Outcome2	1.15	2.78	0.0	No	n/a	1.62566137566138	n/a	n/a	n/a	ISITrial	Loss
408.157	3.0	0.018	933.935	53.0	2	-7.0	-7.0	10.3363	70.0	0.3	Certain	-14.13	-1.3	2.99675	Yes	4.0	-12.8344671201814	1.511	409.668	n/a	GetAnswer	Mixed
409.69	4.0	0.022	935.468	53.0	2	-7.0	-7.0	10.3363	70.0	0.3	Certain	-14.13	-1.3	2.99675	Yes	n/a	-12.8344671201814	n/a	n/a	n/a	ShowChoice	Mixed
413.705	1.0	0.015	939.483	53.0	2	-7.0	-7.0	10.3363	70.0	0.3	Certain	-14.13	-1.3	2.99675	Yes	n/a	-12.8344671201814	n/a	n/a	n/a	ShowResult	Mixed
414.722	3.66	0.017	940.5	53.0	2	-7.0	-7.0	10.3363	70.0	0.3	Certain	-14.13	-1.3	2.99675	Yes	n/a	-12.8344671201814	n/a	n/a	n/a	ISITrial	Mixed
418.404	2.997	0.022	944.182	53.0	2	-7.0	-7.0	10.3363	70.0	0.3	Certain	-14.13	-1.3	2.99675	Yes	n/a	-12.8344671201814	n/a	n/a	n/a	TrialHappPreview	Mixed
421.419	4.016	0.018	947.197	53.0	2	-7.0	-7.0	10.3363	70.0	0.3	Certain	-14.13	-1.3	2.99675	Yes	n/a	-12.8344671201814	n/a	n/a	320.0	TrialHappiness	Mixed
421.42	0.541	n/a	948.346	53.0	2	-7.0	-7.0	10.3363	70.0	0.3	Certain	-14.13	-1.3	2.99675	Yes	n/a	-12.8344671201814	n/a	n/a	320.0	TrialHappinessSliderResponse	Mixed
425.435	3.987	4.016	951.213	53.0	2	-7.0	-7.0	10.3363	70.0	0.3	Certain	-14.13	-1.3	2.99675	Yes	n/a	-12.8344671201814	n/a	n/a	n/a	ISIRate	Mixed
429.45	3.0	0.028	955.228	54.0	2	2.92	2.0	10.7013	70.0	3.16	Outcome2	1.12	2.92	0.0	No	n/a	1.79686318972033	n/a	n/a	n/a	GetAnswer	Loss
432.465	4.0	0.015	958.243	54.0	2	2.92	2.0	10.7013	70.0	3.16	Outcome2	1.12	2.92	0.0	No	n/a	1.79686318972033	n/a	n/a	n/a	ShowChoice	Loss
436.481	1.0	0.016	962.259	54.0	2	2.92	2.0	10.7013	70.0	3.16	Outcome2	1.12	2.92	0.0	No	n/a	1.79686318972033	n/a	n/a	n/a	ShowResult	Loss
437.497	8.0	0.016	963.275	54.0	2	2.92	2.0	10.7013	70.0	3.16	Outcome2	1.12	2.92	0.0	No	n/a	1.79686318972033	n/a	n/a	n/a	ISITrial	Loss
506.574	0.484	n/a	1033.407	n/a	2	n/a	n/a	n/a	n/a	n/a	n/a	n/a	n/a	n/a	n/a	n/a	n/a	n/a	n/a	352.0	BlockStartHappinessSliderResponse	n/a
-71.608	-0.001	0.031	971.306	n/a	3	n/a	n/a	n/a	n/a	n/a	n/a	n/a	n/a	n/a	n/a	{SPACE}	n/a	57.015	-14.593	n/a	Rest	n/a
-14.578	4.0	0.015	1028.336	n/a	3	n/a	n/a	n/a	n/a	n/a	n/a	n/a	n/a	n/a	n/a	n/a	n/a	n/a	n/a	n/a	BlockHappyPreview	n/a
-10.563	1.539	0.015	1032.351	n/a	3	n/a	n/a	n/a	n/a	n/a	n/a	n/a	n/a	n/a	n/a	n/a	n/a	n/a	n/a	352.0	BlockStartHappiness	n/a
-2.149	-0.001	0.013	1040.765	n/a	3	n/a	n/a	n/a	n/a	n/a	n/a	n/a	n/a	n/a	n/a	5.0	n/a	2.128	-0.021	n/a	ScanWait	n/a
0.0	10.0	0.021	1042.914	n/a	3	n/a	n/a	n/a	n/a	n/a	n/a	n/a	n/a	n/a	n/a	n/a	n/a	n/a	n/a	n/a	GetReady	n/a
10.03	3.0	0.03	1052.944	55.0	3	-4.0	-4.0	10.2013	955.0	0.3	Certain	-9.54	0.7	2.53325	Yes	4.0	10.2434881087203	1.713	11.743	n/a	GetAnswer	Mixed
11.762	4.0	0.019	1054.676	55.0	3	-4.0	-4.0	10.2013	955.0	0.3	Certain	-9.54	0.7	2.53325	Yes	n/a	10.2434881087203	n/a	n/a	n/a	ShowChoice	Mixed
15.778	1.0	0.016	1058.692	55.0	3	-4.0	-4.0	10.2013	955.0	0.3	Certain	-9.54	0.7	2.53325	Yes	n/a	10.2434881087203	n/a	n/a	n/a	ShowResult	Mixed
16.794	7.709	0.016	1059.708	55.0	3	-4.0	-4.0	10.2013	955.0	0.3	Certain	-9.54	0.7	2.53325	Yes	n/a	10.2434881087203	n/a	n/a	n/a	ISITrial	Mixed
24.525	2.533	0.022	1067.439	55.0	3	-4.0	-4.0	10.2013	955.0	0.3	Certain	-9.54	0.7	2.53325	Yes	n/a	10.2434881087203	n/a	n/a	n/a	TrialHappPreview	Mixed
27.074	4.015	0.016	1069.988	55.0	3	-4.0	-4.0	10.2013	955.0	0.3	Certain	-9.54	0.7	2.53325	Yes	n/a	10.2434881087203	n/a	n/a	408.0	TrialHappiness	Mixed
27.074	1.702	n/a	1071.122	55.0	3	-4.0	-4.0	10.2013	955.0	0.3	Certain	-9.54	0.7	2.53325	Yes	n/a	10.2434881087203	n/a	n/a	408.0	TrialHappinessSliderResponse	Mixed
31.089	2.133	4.015	1074.003	55.0	3	-4.0	-4.0	10.2013	955.0	0.3	Certain	-9.54	0.7	2.53325	Yes	n/a	10.2434881087203	n/a	n/a	n/a	ISIRate	Mixed
33.238	3.0	0.016	1076.152	56.0	3	5.9	1.0	10.9388	955.0	3.6	Outcome2	-4.08	5.9	0.0	No	2.0	9.97508493771234	1.335	34.573	n/a	GetAnswer	Gain
34.588	4.0	0.015	1077.502	56.0	3	5.9	1.0	10.9388	955.0	3.6	Outcome2	-4.08	5.9	0.0	No	n/a	9.97508493771234	n/a	n/a	n/a	ShowChoice	Gain
38.603	1.0	0.015	1081.517	56.0	3	5.9	1.0	10.9388	955.0	3.6	Outcome2	-4.08	5.9	0.0	No	n/a	9.97508493771234	n/a	n/a	n/a	ShowResult	Gain
39.619	4.697	0.016	1082.533	56.0	3	5.9	1.0	10.9388	955.0	3.6	Outcome2	-4.08	5.9	0.0	No	n/a	9.97508493771234	n/a	n/a	n/a	ISITrial	Gain
44.334	3.0	0.018	1087.248	57.0	3	5.1	0.0	11.5763	955.0	2.22	Outcome2	-5.49	5.1	0.0	No	2.0	10.59456398641	1.42	45.754	n/a	GetAnswer	Gain
45.767	4.0	0.013	1088.681	57.0	3	5.1	0.0	11.5763	955.0	2.22	Outcome2	-5.49	5.1	0.0	No	n/a	10.59456398641	n/a	n/a	n/a	ShowChoice	Gain
49.783	1.0	0.016	1092.697	57.0	3	5.1	0.0	11.5763	955.0	2.22	Outcome2	-5.49	5.1	0.0	No	n/a	10.59456398641	n/a	n/a	n/a	ShowResult	Gain
50.799	4.291	0.016	1093.713	57.0	3	5.1	0.0	11.5763	955.0	2.22	Outcome2	-5.49	5.1	0.0	No	n/a	10.59456398641	n/a	n/a	n/a	ISITrial	Gain
55.114	3.0	0.024	1098.028	58.0	3	-6.0	-6.0	10.8263	955.0	0.82	Certain	-0.5	-11.71	3.04575	Yes	4.0	11.2140430351076	1.673	56.787	n/a	GetAnswer	Mixed
56.813	4.0	0.026	1099.727	58.0	3	-6.0	-6.0	10.8263	955.0	0.82	Certain	-0.5	-11.71	3.04575	Yes	n/a	11.2140430351076	n/a	n/a	n/a	ShowChoice	Mixed
60.829	1.0	0.016	1103.743	58.0	3	-6.0	-6.0	10.8263	955.0	0.82	Certain	-0.5	-11.71	3.04575	Yes	n/a	11.2140430351076	n/a	n/a	n/a	ShowResult	Mixed
61.845	2.037	0.016	1104.759	58.0	3	-6.0	-6.0	10.8263	955.0	0.82	Certain	-0.5	-11.71	3.04575	Yes	n/a	11.2140430351076	n/a	n/a	n/a	ISITrial	Mixed
63.894	3.046	0.012	1106.808	58.0	3	-6.0	-6.0	10.8263	955.0	0.82	Certain	-0.5	-11.71	3.04575	Yes	n/a	11.2140430351076	n/a	n/a	n/a	TrialHappPreview	Mixed
66.96	4.015	0.02	1109.874	58.0	3	-6.0	-6.0	10.8263	955.0	0.82	Certain	-0.5	-11.71	3.04575	Yes	n/a	11.2140430351076	n/a	n/a	504.0	TrialHappiness	Mixed
66.961	0.161	n/a	1111.707	58.0	3	-6.0	-6.0	10.8263	955.0	0.82	Certain	-0.5	-11.71	3.04575	Yes	n/a	11.2140430351076	n/a	n/a	504.0	TrialHappinessSliderResponse	Mixed
70.975	4.183	4.015	1113.889	58.0	3	-6.0	-6.0	10.8263	955.0	0.82	Certain	-0.5	-11.71	3.04575	Yes	n/a	11.2140430351076	n/a	n/a	n/a	ISIRate	Mixed
75.19	3.0	0.032	1118.104	59.0	3	11.9	0.85	12.3138	955.0	3.6	Outcome1	11.9	1.7	0.0	No	2.0	10.202718006795	1.462	76.652	n/a	GetAnswer	Loss
76.673	4.0	0.021	1119.587	59.0	3	11.9	0.85	12.3138	955.0	3.6	Outcome1	11.9	1.7	0.0	No	n/a	10.202718006795	n/a	n/a	n/a	ShowChoice	Loss
80.688	1.0	0.015	1123.602	59.0	3	11.9	0.85	12.3138	955.0	3.6	Outcome1	11.9	1.7	0.0	No	n/a	10.202718006795	n/a	n/a	n/a	ShowResult	Loss
81.705	5.064	0.017	1124.619	59.0	3	11.9	0.85	12.3138	955.0	3.6	Outcome1	11.9	1.7	0.0	No	n/a	10.202718006795	n/a	n/a	n/a	ISITrial	Loss
86.786	3.0	0.017	1129.7	60.0	3	0.0	0.0	12.3138	955.0	1.82	Certain	4.7	-6.01	3.5625	Yes	4.0	10.713476783692	2.01	88.796	n/a	GetAnswer	Gain
88.819	4.0	0.023	1131.733	60.0	3	0.0	0.0	12.3138	955.0	1.82	Certain	4.7	-6.01	3.5625	Yes	n/a	10.713476783692	n/a	n/a	n/a	ShowChoice	Gain
92.834	1.0	0.015	1135.748	60.0	3	0.0	0.0	12.3138	955.0	1.82	Certain	4.7	-6.01	3.5625	Yes	n/a	10.713476783692	n/a	n/a	n/a	ShowResult	Gain
93.85	8.0	0.016	1136.764	60.0	3	0.0	0.0	12.3138	955.0	1.82	Certain	4.7	-6.01	3.5625	Yes	n/a	10.713476783692	n/a	n/a	n/a	ISITrial	Gain
101.864	3.562	0.014	1144.778	60.0	3	0.0	0.0	12.3138	955.0	1.82	Certain	4.7	-6.01	3.5625	Yes	n/a	10.713476783692	n/a	n/a	n/a	TrialHappPreview	Gain
105.446	4.016	0.02	1148.36	60.0	3	0.0	0.0	12.3138	955.0	1.82	Certain	4.7	-6.01	3.5625	Yes	n/a	10.713476783692	n/a	n/a	492.0	TrialHappiness	Gain
105.447	0.147	n/a	1149.261	60.0	3	0.0	0.0	12.3138	955.0	1.82	Certain	4.7	-6.01	3.5625	Yes	n/a	10.713476783692	n/a	n/a	492.0	TrialHappinessSliderResponse	Gain
109.462	6.25	4.016	1152.376	60.0	3	0.0	0.0	12.3138	955.0	1.82	Certain	4.7	-6.01	3.5625	Yes	n/a	10.713476783692	n/a	n/a	n/a	ISIRate	Gain
115.743	3.0	0.031	1158.657	61.0	3	11.12	5.56	13.7038	955.0	2.48	Outcome1	11.12	13.3	0.0	No	2.0	-2.17582106455266	1.114	116.857	n/a	GetAnswer	Loss
116.876	4.0	0.019	1159.79	61.0	3	11.12	5.56	13.7038	955.0	2.48	Outcome1	11.12	13.3	0.0	No	n/a	-2.17582106455266	n/a	n/a	n/a	ShowChoice	Loss
120.891	1.0	0.015	1163.805	61.0	3	11.12	5.56	13.7038	955.0	2.48	Outcome1	11.12	13.3	0.0	No	n/a	-2.17582106455266	n/a	n/a	n/a	ShowResult	Loss
121.907	4.586	0.016	1164.821	61.0	3	11.12	5.56	13.7038	955.0	2.48	Outcome1	11.12	13.3	0.0	No	n/a	-2.17582106455266	n/a	n/a	n/a	ISITrial	Loss
126.522	3.0	0.029	1169.436	62.0	3	1.0	1.0	13.8288	955.0	2.8	Certain	7.5	-4.45	3.74875	Yes	4.0	11.952434881087198	1.97	128.492	n/a	GetAnswer	Gain
128.505	4.0	0.013	1171.419	62.0	3	1.0	1.0	13.8288	955.0	2.8	Certain	7.5	-4.45	3.74875	Yes	n/a	11.952434881087198	n/a	n/a	n/a	ShowChoice	Gain
132.52	1.0	0.015	1175.434	62.0	3	1.0	1.0	13.8288	955.0	2.8	Certain	7.5	-4.45	3.74875	Yes	n/a	11.952434881087198	n/a	n/a	n/a	ShowResult	Gain
133.537	5.212	0.017	1176.451	62.0	3	1.0	1.0	13.8288	955.0	2.8	Certain	7.5	-4.45	3.74875	Yes	n/a	11.952434881087198	n/a	n/a	n/a	ISITrial	Gain
138.768	3.749	0.019	1181.682	62.0	3	1.0	1.0	13.8288	955.0	2.8	Certain	7.5	-4.45	3.74875	Yes	n/a	11.952434881087198	n/a	n/a	n/a	TrialHappPreview	Gain
142.534	4.015	0.017	1185.448	62.0	3	1.0	1.0	13.8288	955.0	2.8	Certain	7.5	-4.45	3.74875	Yes	n/a	11.952434881087198	n/a	n/a	568.0	TrialHappiness	Gain
142.534	2.834	n/a	1186.036	62.0	3	1.0	1.0	13.8288	955.0	2.8	Certain	7.5	-4.45	3.74875	Yes	n/a	11.952434881087198	n/a	n/a	568.0	TrialHappinessSliderResponse	Gain
146.549	6.995	4.015	1189.463	62.0	3	1.0	1.0	13.8288	955.0	2.8	Certain	7.5	-4.45	3.74875	Yes	n/a	11.952434881087198	n/a	n/a	n/a	ISIRate	Gain
153.563	3.0	0.019	1196.477	63.0	3	9.1	-1.04	14.9663	955.0	2.22	Outcome1	9.1	-2.09	0.0	No	n/a	11.185730464326198	n/a	n/a	n/a	GetAnswer	Gain
156.579	4.0	0.016	1199.493	63.0	3	9.1	-1.04	14.9663	955.0	2.22	Outcome1	9.1	-2.09	0.0	No	n/a	11.185730464326198	n/a	n/a	n/a	ShowChoice	Gain
160.594	1.0	0.015	1203.508	63.0	3	9.1	-1.04	14.9663	955.0	2.22	Outcome1	9.1	-2.09	0.0	No	n/a	11.185730464326198	n/a	n/a	n/a	ShowResult	Gain
161.61	5.595	0.016	1204.524	63.0	3	9.1	-1.04	14.9663	955.0	2.22	Outcome1	9.1	-2.09	0.0	No	n/a	11.185730464326198	n/a	n/a	n/a	ISITrial	Gain
167.225	3.0	0.02	1210.139	64.0	3	0.31	1.0	15.0051	955.0	2.0	Outcome2	2.3	0.31	0.0	No	2.0	-1.9913174782937	1.172	168.397	n/a	GetAnswer	Mixed
168.424	4.0	0.027	1211.338	64.0	3	0.31	1.0	15.0051	955.0	2.0	Outcome2	2.3	0.31	0.0	No	n/a	-1.9913174782937	n/a	n/a	n/a	ShowChoice	Mixed
172.44	1.0	0.016	1215.354	64.0	3	0.31	1.0	15.0051	955.0	2.0	Outcome2	2.3	0.31	0.0	No	n/a	-1.9913174782937	n/a	n/a	n/a	ShowResult	Mixed
173.456	5.47	0.016	1216.37	64.0	3	0.31	1.0	15.0051	955.0	2.0	Outcome2	2.3	0.31	0.0	No	n/a	-1.9913174782937	n/a	n/a	n/a	ISITrial	Mixed
178.954	3.0	0.028	1221.868	65.0	3	0.0	0.0	15.0051	955.0	2.48	Certain	5.3	-6.76	2.99675	Yes	4.0	12.0622876557191	1.682	180.636	n/a	GetAnswer	Gain
180.654	4.0	0.018	1223.568	65.0	3	0.0	0.0	15.0051	955.0	2.48	Certain	5.3	-6.76	2.99675	Yes	n/a	12.0622876557191	n/a	n/a	n/a	ShowChoice	Gain
184.669	1.0	0.015	1227.583	65.0	3	0.0	0.0	15.0051	955.0	2.48	Certain	5.3	-6.76	2.99675	Yes	n/a	12.0622876557191	n/a	n/a	n/a	ShowResult	Gain
185.685	3.344	0.016	1228.599	65.0	3	0.0	0.0	15.0051	955.0	2.48	Certain	5.3	-6.76	2.99675	Yes	n/a	12.0622876557191	n/a	n/a	n/a	ISITrial	Gain
189.051	2.997	0.022	1231.965	65.0	3	0.0	0.0	15.0051	955.0	2.48	Certain	5.3	-6.76	2.99675	Yes	n/a	12.0622876557191	n/a	n/a	n/a	TrialHappPreview	Gain
192.066	4.015	0.018	1234.98	65.0	3	0.0	0.0	15.0051	955.0	2.48	Certain	5.3	-6.76	2.99675	Yes	n/a	12.0622876557191	n/a	n/a	488.0	TrialHappiness	Gain
192.067	0.199	n/a	1235.589	65.0	3	0.0	0.0	15.0051	955.0	2.48	Certain	5.3	-6.76	2.99675	Yes	n/a	12.0622876557191	n/a	n/a	488.0	TrialHappinessSliderResponse	Gain
196.081	3.987	4.015	1238.995	65.0	3	0.0	0.0	15.0051	955.0	2.48	Certain	5.3	-6.76	2.99675	Yes	n/a	12.0622876557191	n/a	n/a	n/a	ISIRate	Gain
200.097	3.0	0.029	1243.011	66.0	3	0.5	-6.0	15.0676	955.0	0.2	Outcome2	-13.36	0.5	0.0	No	2.0	13.8595696489241	2.402	202.499	n/a	GetAnswer	Mixed
202.529	4.0	0.03	1245.443	66.0	3	0.5	-6.0	15.0676	955.0	0.2	Outcome2	-13.36	0.5	0.0	No	n/a	13.8595696489241	n/a	n/a	n/a	ShowChoice	Mixed
206.545	1.0	0.016	1249.459	66.0	3	0.5	-6.0	15.0676	955.0	0.2	Outcome2	-13.36	0.5	0.0	No	n/a	13.8595696489241	n/a	n/a	n/a	ShowResult	Mixed
207.561	3.959	0.016	1250.475	66.0	3	0.5	-6.0	15.0676	955.0	0.2	Outcome2	-13.36	0.5	0.0	No	n/a	13.8595696489241	n/a	n/a	n/a	ISITrial	Mixed
211.543	3.0	0.023	1254.457	67.0	3	13.9	-0.24	16.8051	955.0	3.6	Outcome2	-0.49	13.9	2.9185	Yes	2.0	14.3884484711212	1.765	213.308	n/a	GetAnswer	Loss
213.325	4.0	0.017	1256.239	67.0	3	13.9	-0.24	16.8051	955.0	3.6	Outcome2	-0.49	13.9	2.9185	Yes	n/a	14.3884484711212	n/a	n/a	n/a	ShowChoice	Loss
217.341	1.0	0.016	1260.255	67.0	3	13.9	-0.24	16.8051	955.0	3.6	Outcome2	-0.49	13.9	2.9185	Yes	n/a	14.3884484711212	n/a	n/a	n/a	ShowResult	Loss
218.357	4.199	0.016	1261.271	67.0	3	13.9	-0.24	16.8051	955.0	3.6	Outcome2	-0.49	13.9	2.9185	Yes	n/a	14.3884484711212	n/a	n/a	n/a	ISITrial	Loss
222.572	2.918	0.016	1265.486	67.0	3	13.9	-0.24	16.8051	955.0	3.6	Outcome2	-0.49	13.9	2.9185	Yes	n/a	14.3884484711212	n/a	n/a	n/a	TrialHappPreview	Loss
225.521	4.015	0.031	1268.435	67.0	3	13.9	-0.24	16.8051	955.0	3.6	Outcome2	-0.49	13.9	2.9185	Yes	n/a	14.3884484711212	n/a	n/a	488.0	TrialHappiness	Loss
225.522	0.193	n/a	1269.65	67.0	3	13.9	-0.24	16.8051	955.0	3.6	Outcome2	-0.49	13.9	2.9185	Yes	n/a	14.3884484711212	n/a	n/a	488.0	TrialHappinessSliderResponse	Loss
229.536	3.674	4.015	1272.45	67.0	3	13.9	-0.24	16.8051	955.0	3.6	Outcome2	-0.49	13.9	2.9185	Yes	n/a	14.3884484711212	n/a	n/a	n/a	ISIRate	Loss
233.235	3.0	0.025	1276.149	68.0	3	12.3	-1.31	18.3426	955.0	5.0	Outcome2	-2.62	12.3	0.0	No	2.0	14.9173272933182	1.325	234.56	n/a	GetAnswer	Loss
234.585	4.0	0.025	1277.499	68.0	3	12.3	-1.31	18.3426	955.0	5.0	Outcome2	-2.62	12.3	0.0	No	n/a	14.9173272933182	n/a	n/a	n/a	ShowChoice	Loss
238.6	1.0	0.015	1281.514	68.0	3	12.3	-1.31	18.3426	955.0	5.0	Outcome2	-2.62	12.3	0.0	No	n/a	14.9173272933182	n/a	n/a	n/a	ShowResult	Loss
239.616	2.185	0.016	1282.53	68.0	3	12.3	-1.31	18.3426	955.0	5.0	Outcome2	-2.62	12.3	0.0	No	n/a	14.9173272933182	n/a	n/a	n/a	ISITrial	Loss
241.832	3.0	0.031	1284.746	69.0	3	-1.0	-1.0	18.2176	955.0	1.5	Certain	-2.42	0.1	0.0	No	4.0	-2.52123442808607	2.611	244.443	n/a	GetAnswer	Mixed
244.465	4.0	0.022	1287.379	69.0	3	-1.0	-1.0	18.2176	955.0	1.5	Certain	-2.42	0.1	0.0	No	n/a	-2.52123442808607	n/a	n/a	n/a	ShowChoice	Mixed
248.48	1.0	0.015	1291.394	69.0	3	-1.0	-1.0	18.2176	955.0	1.5	Certain	-2.42	0.1	0.0	No	n/a	-2.52123442808607	n/a	n/a	n/a	ShowResult	Mixed
249.496	2.0	0.016	1292.41	69.0	3	-1.0	-1.0	18.2176	955.0	1.5	Certain	-2.42	0.1	0.0	No	n/a	-2.52123442808607	n/a	n/a	n/a	ISITrial	Mixed
251.529	3.0	0.033	1294.443	70.0	3	8.13	4.07	19.2339	955.0	1.82	Outcome1	8.13	10.7	3.65125	Yes	2.0	-2.5653076632691603	1.243	252.772	n/a	GetAnswer	Loss
252.795	4.0	0.023	1295.709	70.0	3	8.13	4.07	19.2339	955.0	1.82	Outcome1	8.13	10.7	3.65125	Yes	n/a	-2.5653076632691603	n/a	n/a	n/a	ShowChoice	Loss
256.81	1.0	0.015	1299.724	70.0	3	8.13	4.07	19.2339	955.0	1.82	Outcome1	8.13	10.7	3.65125	Yes	n/a	-2.5653076632691603	n/a	n/a	n/a	ShowResult	Loss
257.827	2.623	0.017	1300.741	70.0	3	8.13	4.07	19.2339	955.0	1.82	Outcome1	8.13	10.7	3.65125	Yes	n/a	-2.5653076632691603	n/a	n/a	n/a	ISITrial	Loss
260.476	3.651	0.026	1303.39	70.0	3	8.13	4.07	19.2339	955.0	1.82	Outcome1	8.13	10.7	3.65125	Yes	n/a	-2.5653076632691603	n/a	n/a	n/a	TrialHappPreview	Loss
264.158	4.015	0.031	1307.072	70.0	3	8.13	4.07	19.2339	955.0	1.82	Outcome1	8.13	10.7	3.65125	Yes	4{-4}	-2.5653076632691603	2.756	266.914	488.0	TrialHappiness	Loss
264.158	0.206	n/a	1309.622	70.0	3	8.13	4.07	19.2339	955.0	1.82	Outcome1	8.13	10.7	3.65125	Yes	n/a	-2.5653076632691603	n/a	n/a	488.0	TrialHappinessSliderResponse	Loss
268.173	6.605	4.015	1311.087	70.0	3	8.13	4.07	19.2339	955.0	1.82	Outcome1	8.13	10.7	3.65125	Yes	n/a	-2.5653076632691603	n/a	n/a	n/a	ISIRate	Loss
274.804	3.0	0.026	1317.718	71.0	3	-1.71	0.0	19.0201	955.0	0.4	Outcome2	0.9	-1.71	0.0	No	2.0	-2.60938089845225	2.439	277.243	n/a	GetAnswer	Mixed
277.27	4.0	0.027	1320.184	71.0	3	-1.71	0.0	19.0201	955.0	0.4	Outcome2	0.9	-1.71	0.0	No	n/a	-2.60938089845225	n/a	n/a	n/a	ShowChoice	Mixed
281.285	1.0	0.015	1324.199	71.0	3	-1.71	0.0	19.0201	955.0	0.4	Outcome2	0.9	-1.71	0.0	No	n/a	-2.60938089845225	n/a	n/a	n/a	ShowResult	Mixed
282.301	5.499	0.016	1325.215	71.0	3	-1.71	0.0	19.0201	955.0	0.4	Outcome2	0.9	-1.71	0.0	No	n/a	-2.60938089845225	n/a	n/a	n/a	ISITrial	Mixed
287.833	3.0	0.033	1330.747	72.0	3	0.0	0.0	19.0201	955.0	4.2	Certain	8.1	-8.93	3.0805	Yes	4.0	17.0328425821065	1.676	289.509	n/a	GetAnswer	Gain
289.532	4.0	0.023	1332.446	72.0	3	0.0	0.0	19.0201	955.0	4.2	Certain	8.1	-8.93	3.0805	Yes	n/a	17.0328425821065	n/a	n/a	n/a	ShowChoice	Gain
293.547	1.0	0.015	1336.461	72.0	3	0.0	0.0	19.0201	955.0	4.2	Certain	8.1	-8.93	3.0805	Yes	n/a	17.0328425821065	n/a	n/a	n/a	ShowResult	Gain
294.564	5.672	0.017	1337.478	72.0	3	0.0	0.0	19.0201	955.0	4.2	Certain	8.1	-8.93	3.0805	Yes	n/a	17.0328425821065	n/a	n/a	n/a	ISITrial	Gain
300.262	3.08	0.026	1343.176	72.0	3	0.0	0.0	19.0201	955.0	4.2	Certain	8.1	-8.93	3.0805	Yes	n/a	17.0328425821065	n/a	n/a	n/a	TrialHappPreview	Gain
303.361	4.015	0.019	1346.275	72.0	3	0.0	0.0	19.0201	955.0	4.2	Certain	8.1	-8.93	3.0805	Yes	n/a	17.0328425821065	n/a	n/a	512.0	TrialHappiness	Gain
303.361	0.0	n/a	1346.275	72.0	3	0.0	0.0	19.0201	955.0	4.2	Certain	8.1	-8.93	3.0805	Yes	n/a	17.0328425821065	n/a	n/a	512.0	TrialHappinessSliderResponse	Gain
307.376	4.322	4.015	1350.29	72.0	3	0.0	0.0	19.0201	955.0	4.2	Certain	8.1	-8.93	3.0805	Yes	n/a	17.0328425821065	n/a	n/a	n/a	ISIRate	Gain
311.724	3.0	0.026	1354.638	73.0	3	-2.33	-2.33	18.7289	955.0	1.68	Certain	-4.65	12.5	0.0	No	4.0	17.154020385051002	2.049	313.773	n/a	GetAnswer	Loss
313.79	4.0	0.017	1356.704	73.0	3	-2.33	-2.33	18.7289	955.0	1.68	Certain	-4.65	12.5	0.0	No	n/a	17.154020385051002	n/a	n/a	n/a	ShowChoice	Loss
317.806	1.0	0.016	1360.72	73.0	3	-2.33	-2.33	18.7289	955.0	1.68	Certain	-4.65	12.5	0.0	No	n/a	17.154020385051002	n/a	n/a	n/a	ShowResult	Loss
318.822	4.616	0.016	1361.736	73.0	3	-2.33	-2.33	18.7289	955.0	1.68	Certain	-4.65	12.5	0.0	No	n/a	17.154020385051002	n/a	n/a	n/a	ISITrial	Loss
323.47	3.0	0.032	1366.384	74.0	3	9.7	1.0	19.9414	955.0	3.16	Outcome1	9.7	-7.96	3.05625	Yes	2.0	17.655719139297897	1.208	324.678	n/a	GetAnswer	Gain
324.703	4.0	0.025	1367.617	74.0	3	9.7	1.0	19.9414	955.0	3.16	Outcome1	9.7	-7.96	3.05625	Yes	n/a	17.655719139297897	n/a	n/a	n/a	ShowChoice	Gain
328.719	1.0	0.016	1371.633	74.0	3	9.7	1.0	19.9414	955.0	3.16	Outcome1	9.7	-7.96	3.05625	Yes	n/a	17.655719139297897	n/a	n/a	n/a	ShowResult	Gain
329.735	3.909	0.016	1372.649	74.0	3	9.7	1.0	19.9414	955.0	3.16	Outcome1	9.7	-7.96	3.05625	Yes	n/a	17.655719139297897	n/a	n/a	n/a	ISITrial	Gain
333.667	3.056	0.023	1376.581	74.0	3	9.7	1.0	19.9414	955.0	3.16	Outcome1	9.7	-7.96	3.05625	Yes	n/a	17.655719139297897	n/a	n/a	n/a	TrialHappPreview	Gain
336.749	4.015	0.026	1379.663	74.0	3	9.7	1.0	19.9414	955.0	3.16	Outcome1	9.7	-7.96	3.05625	Yes	n/a	17.655719139297897	n/a	n/a	464.0	TrialHappiness	Gain
336.75	0.878	n/a	1380.509	74.0	3	9.7	1.0	19.9414	955.0	3.16	Outcome1	9.7	-7.96	3.05625	Yes	n/a	17.655719139297897	n/a	n/a	464.0	TrialHappinessSliderResponse	Gain
340.764	4.225	4.015	1383.678	74.0	3	9.7	1.0	19.9414	955.0	3.16	Outcome1	9.7	-7.96	3.05625	Yes	n/a	17.655719139297897	n/a	n/a	n/a	ISIRate	Gain
345.013	3.0	0.024	1387.927	75.0	3	6.5	-3.0	20.7539	955.0	1.68	Outcome2	-12.47	6.5	0.0	No	2.0	18.9728199320498	1.639	346.652	n/a	GetAnswer	Gain
346.679	4.0	0.027	1389.593	75.0	3	6.5	-3.0	20.7539	955.0	1.68	Outcome2	-12.47	6.5	0.0	No	n/a	18.9728199320498	n/a	n/a	n/a	ShowChoice	Gain
350.694	1.0	0.015	1393.608	75.0	3	6.5	-3.0	20.7539	955.0	1.68	Outcome2	-12.47	6.5	0.0	No	n/a	18.9728199320498	n/a	n/a	n/a	ShowResult	Gain
351.711	4.979	0.017	1394.625	75.0	3	6.5	-3.0	20.7539	955.0	1.68	Outcome2	-12.47	6.5	0.0	No	n/a	18.9728199320498	n/a	n/a	n/a	ISITrial	Gain
356.709	3.0	0.019	1399.623	76.0	3	-5.0	-5.0	20.1289	955.0	1.68	Certain	-15.03	4.5	0.0	No	4.0	19.5288788221971	2.01	358.719	n/a	GetAnswer	Gain
358.741	4.0	0.022	1401.655	76.0	3	-5.0	-5.0	20.1289	955.0	1.68	Certain	-15.03	4.5	0.0	No	n/a	19.5288788221971	n/a	n/a	n/a	ShowChoice	Gain
362.757	1.0	0.016	1405.671	76.0	3	-5.0	-5.0	20.1289	955.0	1.68	Certain	-15.03	4.5	0.0	No	n/a	19.5288788221971	n/a	n/a	n/a	ShowResult	Gain
363.773	3.931	0.016	1406.687	76.0	3	-5.0	-5.0	20.1289	955.0	1.68	Certain	-15.03	4.5	0.0	No	n/a	19.5288788221971	n/a	n/a	n/a	ISITrial	Gain
367.722	3.0	0.018	1410.636	77.0	3	12.7	2.0	21.7164	955.0	1.82	Outcome1	12.7	-7.38	4.0	Yes	2.0	20.0849377123443	1.826	369.548	n/a	GetAnswer	Loss
369.571	4.0	0.023	1412.485	77.0	3	12.7	2.0	21.7164	955.0	1.82	Outcome1	12.7	-7.38	4.0	Yes	n/a	20.0849377123443	n/a	n/a	n/a	ShowChoice	Loss
373.586	1.0	0.015	1416.5	77.0	3	12.7	2.0	21.7164	955.0	1.82	Outcome1	12.7	-7.38	4.0	Yes	n/a	20.0849377123443	n/a	n/a	n/a	ShowResult	Loss
374.603	7.022	0.017	1417.517	77.0	3	12.7	2.0	21.7164	955.0	1.82	Outcome1	12.7	-7.38	4.0	Yes	n/a	20.0849377123443	n/a	n/a	n/a	ISITrial	Loss
381.65	4.0	0.025	1424.564	77.0	3	12.7	2.0	21.7164	955.0	1.82	Outcome1	12.7	-7.38	4.0	Yes	n/a	20.0849377123443	n/a	n/a	n/a	TrialHappPreview	Loss
385.665	4.016	0.015	1428.579	77.0	3	12.7	2.0	21.7164	955.0	1.82	Outcome1	12.7	-7.38	4.0	Yes	n/a	20.0849377123443	n/a	n/a	472.0	TrialHappiness	Loss
385.666	0.224	n/a	1430.412	77.0	3	12.7	2.0	21.7164	955.0	1.82	Outcome1	12.7	-7.38	4.0	Yes	n/a	20.0849377123443	n/a	n/a	472.0	TrialHappinessSliderResponse	Loss
389.681	8.0	4.016	1432.595	77.0	3	12.7	2.0	21.7164	955.0	1.82	Outcome1	12.7	-7.38	4.0	Yes	n/a	20.0849377123443	n/a	n/a	n/a	ISIRate	Loss
397.711	3.0	0.03	1440.625	78.0	3	-1.0	-1.0	21.5914	955.0	2.8	Certain	9.5	-11.01	0.0	No	4.0	20.5050962627407	1.73	399.441	n/a	GetAnswer	Gain
399.461	4.0	0.02	1442.375	78.0	3	-1.0	-1.0	21.5914	955.0	2.8	Certain	9.5	-11.01	0.0	No	n/a	20.5050962627407	n/a	n/a	n/a	ShowChoice	Gain
403.476	1.0	0.015	1446.39	78.0	3	-1.0	-1.0	21.5914	955.0	2.8	Certain	9.5	-11.01	0.0	No	n/a	20.5050962627407	n/a	n/a	n/a	ShowResult	Gain
404.492	2.078	0.016	1447.406	78.0	3	-1.0	-1.0	21.5914	955.0	2.8	Certain	9.5	-11.01	0.0	No	n/a	20.5050962627407	n/a	n/a	n/a	ISITrial	Gain
406.591	3.0	0.021	1449.505	79.0	3	13.1	2.0	23.2289	955.0	2.22	Outcome1	13.1	-7.95	2.7295	Yes	2.0	21.0520951302378	1.658	408.249	n/a	GetAnswer	Loss
408.274	4.0	0.025	1451.188	79.0	3	13.1	2.0	23.2289	955.0	2.22	Outcome1	13.1	-7.95	2.7295	Yes	n/a	21.0520951302378	n/a	n/a	n/a	ShowChoice	Loss
412.289	1.0	0.015	1455.203	79.0	3	13.1	2.0	23.2289	955.0	2.22	Outcome1	13.1	-7.95	2.7295	Yes	n/a	21.0520951302378	n/a	n/a	n/a	ShowResult	Loss
413.306	3.829	0.017	1456.22	79.0	3	13.1	2.0	23.2289	955.0	2.22	Outcome1	13.1	-7.95	2.7295	Yes	n/a	21.0520951302378	n/a	n/a	n/a	ISITrial	Loss
417.154	2.73	0.019	1460.068	79.0	3	13.1	2.0	23.2289	955.0	2.22	Outcome1	13.1	-7.95	2.7295	Yes	n/a	21.0520951302378	n/a	n/a	n/a	TrialHappPreview	Loss
419.903	4.016	0.019	1462.817	79.0	3	13.1	2.0	23.2289	955.0	2.22	Outcome1	13.1	-7.95	2.7295	Yes	n/a	21.0520951302378	n/a	n/a	532.0	TrialHappiness	Loss
419.904	0.117	n/a	1464.055	79.0	3	13.1	2.0	23.2289	955.0	2.22	Outcome1	13.1	-7.95	2.7295	Yes	n/a	21.0520951302378	n/a	n/a	532.0	TrialHappinessSliderResponse	Loss
423.919	2.918	4.016	1466.833	79.0	3	13.1	2.0	23.2289	955.0	2.22	Outcome1	13.1	-7.95	2.7295	Yes	n/a	21.0520951302378	n/a	n/a	n/a	ISIRate	Loss
426.868	3.0	0.031	1469.782	80.0	3	10.9	0.0	24.5914	955.0	2.0	Outcome2	-9.68	10.9	0.0	No	2.0	20.5798414496036	1.485	428.353	n/a	GetAnswer	Loss
428.367	4.0	0.014	1471.281	80.0	3	10.9	0.0	24.5914	955.0	2.0	Outcome2	-9.68	10.9	0.0	No	n/a	20.5798414496036	n/a	n/a	n/a	ShowChoice	Loss
432.382	1.0	0.015	1475.296	80.0	3	10.9	0.0	24.5914	955.0	2.0	Outcome2	-9.68	10.9	0.0	No	n/a	20.5798414496036	n/a	n/a	n/a	ShowResult	Loss
433.399	3.336	0.017	1476.313	80.0	3	10.9	0.0	24.5914	955.0	2.0	Outcome2	-9.68	10.9	0.0	No	n/a	20.5798414496036	n/a	n/a	n/a	ISITrial	Loss
436.764	3.0	0.029	1479.678	81.0	3	12.1	1.0	26.1039	955.0	4.2	Outcome1	12.1	-8.96	3.92375	Yes	2.0	21.0588901472254	1.455	438.219	n/a	GetAnswer	Loss
438.23	4.0	0.011	1481.144	81.0	3	12.1	1.0	26.1039	955.0	4.2	Outcome1	12.1	-8.96	3.92375	Yes	n/a	21.0588901472254	n/a	n/a	n/a	ShowChoice	Loss
442.246	1.0	0.016	1485.16	81.0	3	12.1	1.0	26.1039	955.0	4.2	Outcome1	12.1	-8.96	3.92375	Yes	n/a	21.0588901472254	n/a	n/a	n/a	ShowResult	Loss
443.262	3.919	0.016	1486.176	81.0	3	12.1	1.0	26.1039	955.0	4.2	Outcome1	12.1	-8.96	3.92375	Yes	n/a	21.0588901472254	n/a	n/a	n/a	ISITrial	Loss
447.194	3.924	0.013	1490.108	81.0	3	12.1	1.0	26.1039	955.0	4.2	Outcome1	12.1	-8.96	3.92375	Yes	n/a	21.0588901472254	n/a	n/a	n/a	TrialHappPreview	Loss
451.143	4.015	0.025	1494.057	81.0	3	12.1	1.0	26.1039	955.0	4.2	Outcome1	12.1	-8.96	3.92375	Yes	n/a	21.0588901472254	n/a	n/a	512.0	TrialHappiness	Loss
451.143	0.0	n/a	1494.057	81.0	3	12.1	1.0	26.1039	955.0	4.2	Outcome1	12.1	-8.96	3.92375	Yes	n/a	21.0588901472254	n/a	n/a	512.0	TrialHappinessSliderResponse	Loss
455.158	7.695	4.015	1498.072	81.0	3	12.1	1.0	26.1039	955.0	4.2	Outcome1	12.1	-8.96	3.92375	Yes	n/a	21.0588901472254	n/a	n/a	n/a	ISIRate	Loss
462.872	3.0	0.019	1505.786	n/a	3	n/a	n/a	n/a	n/a	n/a	n/a	n/a	n/a	n/a	n/a	n/a	n/a	n/a	n/a	n/a	CurrentEarnings	n/a
465.887	-0.001	0.015	1508.801	n/a	3	n/a	n/a	n/a	n/a	n/a	n/a	n/a	n/a	n/a	n/a	{SPACE}	n/a	0.31	466.197	n/a	Goodbye	n/a
