onset	duration	onset_delay	onset_unadjusted	trial_number	block	amount_change	certain_amount	current_amount	mood_target	multiplier	outcome	outcome1_amount	outcome2_amount	question_duration	rating	response	rpe	rt	rt_time	slider_response	trial_phase	trial_type
-40.061	-0.001	0.015	14.627	n/a	0	n/a	n/a	n/a	n/a	n/a	n/a	n/a	n/a	n/a	n/a	{SPACE}	n/a	2.023	-38.038	n/a	Welcome	n/a
-38.014	5.0	0.024	16.674	n/a	0	n/a	n/a	n/a	n/a	n/a	n/a	n/a	n/a	n/a	n/a	n/a	n/a	n/a	n/a	n/a	LifeHappyPreview	n/a
-32.982	2.701	0.032	21.706	n/a	0	n/a	n/a	n/a	n/a	n/a	n/a	n/a	n/a	n/a	n/a	n/a	n/a	n/a	n/a	388.0	LifeHappiness	n/a
-32.982	2.001	n/a	22.406	n/a	0	n/a	n/a	n/a	n/a	n/a	n/a	n/a	n/a	n/a	n/a	n/a	n/a	n/a	n/a	388.0	LifeHappinessSliderResponse	n/a
-12.922	4.0	0.013	41.766	n/a	0	n/a	n/a	n/a	n/a	n/a	n/a	n/a	n/a	n/a	n/a	n/a	n/a	n/a	n/a	n/a	BlockHappyPreview	n/a
-8.91	1.568	0.012	45.778	n/a	0	n/a	n/a	n/a	n/a	n/a	n/a	n/a	n/a	n/a	n/a	4{-4}4{-4}4{-4}4{-4}	n/a	1.568	-7.342	432.0	BlockStartHappiness	n/a
-8.909	0.794	n/a	46.553	n/a	0	n/a	n/a	n/a	n/a	n/a	n/a	n/a	n/a	n/a	n/a	n/a	n/a	n/a	n/a	432.0	BlockStartHappinessSliderResponse	n/a
-2.29	-0.001	0.021	52.398	n/a	0	n/a	n/a	n/a	n/a	n/a	n/a	n/a	n/a	n/a	n/a	5.0	n/a	2.277	-0.013	n/a	ScanWait	n/a
0.0	10.0	0.013	54.688	n/a	1	n/a	n/a	n/a	n/a	n/a	n/a	n/a	n/a	n/a	n/a	n/a	n/a	n/a	n/a	n/a	GetReady	n/a
10.03	3.0	0.03	64.718	1.0	1	-1.62	0.0	9.7975	955.0	0.2	Outcome1	-1.62	0.5	0.0	No	2.0	-2.1224046810117	1.873	11.903	n/a	GetAnswer	Mixed
11.919	4.0	0.016	66.607	1.0	1	-1.62	0.0	9.7975	955.0	0.2	Outcome1	-1.62	0.5	0.0	No	n/a	-2.1224046810117	n/a	n/a	n/a	ShowChoice	Mixed
15.931	1.0	0.012	70.619	1.0	1	-1.62	0.0	9.7975	955.0	0.2	Outcome1	-1.62	0.5	0.0	No	n/a	-2.1224046810117	n/a	n/a	n/a	ShowResult	Mixed
16.951	2.431	0.02	71.639	1.0	1	-1.62	0.0	9.7975	955.0	0.2	Outcome1	-1.62	0.5	0.0	No	n/a	-2.1224046810117	n/a	n/a	n/a	ISITrial	Mixed
19.408	3.0	0.026	74.096	2.0	1	2.33	1.16	10.0887	955.0	1.68	Outcome2	4.5	2.33	0.0	No	2.0	-2.17176292940732	1.521	20.929	n/a	GetAnswer	Gain
20.946	4.0	0.017	75.634	2.0	1	2.33	1.16	10.0887	955.0	1.68	Outcome2	4.5	2.33	0.0	No	n/a	-2.17176292940732	n/a	n/a	n/a	ShowChoice	Gain
24.958	1.0	0.012	79.646	2.0	1	2.33	1.16	10.0887	955.0	1.68	Outcome2	4.5	2.33	0.0	No	n/a	-2.17176292940732	n/a	n/a	n/a	ShowResult	Gain
25.978	4.568	0.02	80.666	2.0	1	2.33	1.16	10.0887	955.0	1.68	Outcome2	4.5	2.33	0.0	No	n/a	-2.17176292940732	n/a	n/a	n/a	ISITrial	Gain
30.575	3.0	0.029	85.263	3.0	1	0.28	1.0	10.1237	955.0	0.2	Outcome2	2.5	0.28	2.868	Yes	2.0	-2.22112117780294	1.355	31.93	n/a	GetAnswer	Mixed
31.946	4.0	0.016	86.634	3.0	1	0.28	1.0	10.1237	955.0	0.2	Outcome2	2.5	0.28	2.868	Yes	n/a	-2.22112117780294	n/a	n/a	n/a	ShowChoice	Mixed
35.958	1.0	0.012	90.646	3.0	1	0.28	1.0	10.1237	955.0	0.2	Outcome2	2.5	0.28	2.868	Yes	n/a	-2.22112117780294	n/a	n/a	n/a	ShowResult	Mixed
36.978	3.243	0.02	91.666	3.0	1	0.28	1.0	10.1237	955.0	0.2	Outcome2	2.5	0.28	2.868	Yes	n/a	-2.22112117780294	n/a	n/a	n/a	ISITrial	Mixed
40.238	2.868	0.017	94.926	3.0	1	0.28	1.0	10.1237	955.0	0.2	Outcome2	2.5	0.28	2.868	Yes	n/a	-2.22112117780294	n/a	n/a	n/a	TrialHappPreview	Mixed
43.13	4.012	0.024	97.818	3.0	1	0.28	1.0	10.1237	955.0	0.2	Outcome2	2.5	0.28	2.868	Yes	n/a	-2.22112117780294	n/a	n/a	436.0	TrialHappiness	Mixed
43.13	1.153	n/a	98.197	3.0	1	0.28	1.0	10.1237	955.0	0.2	Outcome2	2.5	0.28	2.868	Yes	n/a	-2.22112117780294	n/a	n/a	436.0	TrialHappinessSliderResponse	Mixed
47.142	3.472	4.012	101.83	3.0	1	0.28	1.0	10.1237	955.0	0.2	Outcome2	2.5	0.28	2.868	Yes	n/a	-2.22112117780294	n/a	n/a	n/a	ISIRate	Mixed
50.635	3.0	0.021	105.323	4.0	1	13.9	1.66	11.8612	955.0	3.6	Outcome1	13.9	3.31	0.0	No	2.0	10.593431483578698	1.13	51.765	n/a	GetAnswer	Loss
51.789	4.0	0.023	106.477	4.0	1	13.9	1.66	11.8612	955.0	3.6	Outcome1	13.9	3.31	0.0	No	n/a	10.593431483578698	n/a	n/a	n/a	ShowChoice	Loss
55.801	1.0	0.012	110.489	4.0	1	13.9	1.66	11.8612	955.0	3.6	Outcome1	13.9	3.31	0.0	No	n/a	10.593431483578698	n/a	n/a	n/a	ShowResult	Loss
56.821	2.011	0.02	111.509	4.0	1	13.9	1.66	11.8612	955.0	3.6	Outcome1	13.9	3.31	0.0	No	n/a	10.593431483578698	n/a	n/a	n/a	ISITrial	Loss
58.86	3.0	0.028	113.548	5.0	1	10.0	5.0	13.1112	955.0	5.0	Outcome1	10.0	12.3	2.5825	Yes	2.0	-2.30322763306908	1.015	59.875	n/a	GetAnswer	Loss
59.897	4.0	0.022	114.585	5.0	1	10.0	5.0	13.1112	955.0	5.0	Outcome1	10.0	12.3	2.5825	Yes	n/a	-2.30322763306908	n/a	n/a	n/a	ShowChoice	Loss
63.909	1.0	0.012	118.597	5.0	1	10.0	5.0	13.1112	955.0	5.0	Outcome1	10.0	12.3	2.5825	Yes	n/a	-2.30322763306908	n/a	n/a	n/a	ShowResult	Loss
64.928	5.129	0.019	119.616	5.0	1	10.0	5.0	13.1112	955.0	5.0	Outcome1	10.0	12.3	2.5825	Yes	n/a	-2.30322763306908	n/a	n/a	n/a	ISITrial	Loss
70.077	2.582	0.02	124.765	5.0	1	10.0	5.0	13.1112	955.0	5.0	Outcome1	10.0	12.3	2.5825	Yes	n/a	-2.30322763306908	n/a	n/a	n/a	TrialHappPreview	Loss
72.685	4.012	0.026	127.373	5.0	1	10.0	5.0	13.1112	955.0	5.0	Outcome1	10.0	12.3	2.5825	Yes	n/a	-2.30322763306908	n/a	n/a	528.0	TrialHappiness	Loss
72.685	0.179	n/a	127.97	5.0	1	10.0	5.0	13.1112	955.0	5.0	Outcome1	10.0	12.3	2.5825	Yes	n/a	-2.30322763306908	n/a	n/a	528.0	TrialHappinessSliderResponse	Loss
76.697	2.33	4.012	131.385	5.0	1	10.0	5.0	13.1112	955.0	5.0	Outcome1	10.0	12.3	2.5825	Yes	n/a	-2.30322763306908	n/a	n/a	n/a	ISIRate	Loss
79.054	3.0	0.027	133.742	6.0	1	8.5	-0.86	14.1737	955.0	1.68	Outcome2	-1.71	8.5	0.0	No	2.0	10.2061155152888	1.819	80.873	n/a	GetAnswer	Gain
80.893	4.0	0.02	135.581	6.0	1	8.5	-0.86	14.1737	955.0	1.68	Outcome2	-1.71	8.5	0.0	No	n/a	10.2061155152888	n/a	n/a	n/a	ShowChoice	Gain
84.905	1.0	0.012	139.593	6.0	1	8.5	-0.86	14.1737	955.0	1.68	Outcome2	-1.71	8.5	0.0	No	n/a	10.2061155152888	n/a	n/a	n/a	ShowResult	Gain
85.925	6.232	0.02	140.613	6.0	1	8.5	-0.86	14.1737	955.0	1.68	Outcome2	-1.71	8.5	0.0	No	n/a	10.2061155152888	n/a	n/a	n/a	ISITrial	Gain
92.177	3.0	0.02	146.865	7.0	1	9.08	4.54	15.3087	955.0	2.22	Outcome2	11.1	9.08	0.0	No	2.0	-2.01915817289543	1.11	93.287	n/a	GetAnswer	Loss
93.313	4.0	0.026	148.001	7.0	1	9.08	4.54	15.3087	955.0	2.22	Outcome2	11.1	9.08	0.0	No	n/a	-2.01915817289543	n/a	n/a	n/a	ShowChoice	Loss
97.325	1.0	0.012	152.013	7.0	1	9.08	4.54	15.3087	955.0	2.22	Outcome2	11.1	9.08	0.0	No	n/a	-2.01915817289543	n/a	n/a	n/a	ShowResult	Loss
98.345	2.305	0.02	153.033	7.0	1	9.08	4.54	15.3087	955.0	2.22	Outcome2	11.1	9.08	0.0	No	n/a	-2.01915817289543	n/a	n/a	n/a	ISITrial	Loss
100.669	3.0	0.019	155.357	8.0	1	0.0	0.0	15.3087	955.0	2.48	Certain	5.3	-5.87	3.1125	Yes	4.0	11.173272933182302	1.342	102.011	n/a	GetAnswer	Gain
102.023	4.0	0.012	156.711	8.0	1	0.0	0.0	15.3087	955.0	2.48	Certain	5.3	-5.87	3.1125	Yes	n/a	11.173272933182302	n/a	n/a	n/a	ShowChoice	Gain
106.035	1.0	0.012	160.723	8.0	1	0.0	0.0	15.3087	955.0	2.48	Certain	5.3	-5.87	3.1125	Yes	n/a	11.173272933182302	n/a	n/a	n/a	ShowResult	Gain
107.055	3.506	0.02	161.743	8.0	1	0.0	0.0	15.3087	955.0	2.48	Certain	5.3	-5.87	3.1125	Yes	n/a	11.173272933182302	n/a	n/a	n/a	ISITrial	Gain
110.582	3.112	0.021	165.27	8.0	1	0.0	0.0	15.3087	955.0	2.48	Certain	5.3	-5.87	3.1125	Yes	n/a	11.173272933182302	n/a	n/a	n/a	TrialHappPreview	Gain
113.708	4.012	0.014	168.396	8.0	1	0.0	0.0	15.3087	955.0	2.48	Certain	5.3	-5.87	3.1125	Yes	n/a	11.173272933182302	n/a	n/a	520.0	TrialHappiness	Gain
113.709	1.22	n/a	168.782	8.0	1	0.0	0.0	15.3087	955.0	2.48	Certain	5.3	-5.87	3.1125	Yes	n/a	11.173272933182302	n/a	n/a	520.0	TrialHappinessSliderResponse	Gain
117.72	4.45	4.012	172.408	8.0	1	0.0	0.0	15.3087	955.0	2.48	Certain	5.3	-5.87	3.1125	Yes	n/a	11.173272933182302	n/a	n/a	n/a	ISIRate	Gain
122.2	3.0	0.03	176.888	9.0	1	-3.0	-3.0	14.9337	955.0	0.3	Certain	-9.09	2.7	0.0	No	4.0	11.79275198188	2.354	124.554	n/a	GetAnswer	Mixed
124.574	4.0	0.02	179.262	9.0	1	-3.0	-3.0	14.9337	955.0	0.3	Certain	-9.09	2.7	0.0	No	n/a	11.79275198188	n/a	n/a	n/a	ShowChoice	Mixed
128.586	1.0	0.012	183.274	9.0	1	-3.0	-3.0	14.9337	955.0	0.3	Certain	-9.09	2.7	0.0	No	n/a	11.79275198188	n/a	n/a	n/a	ShowResult	Mixed
129.606	2.0	0.02	184.294	9.0	1	-3.0	-3.0	14.9337	955.0	0.3	Certain	-9.09	2.7	0.0	No	n/a	11.79275198188	n/a	n/a	n/a	ISITrial	Mixed
131.628	3.0	0.022	186.316	10.0	1	7.93	3.96	15.9249	955.0	4.2	Outcome1	7.93	10.1	4.0	Yes	2.0	-2.17327293318233	0.98	132.608	n/a	GetAnswer	Gain
132.631	4.0	0.023	187.319	10.0	1	7.93	3.96	15.9249	955.0	4.2	Outcome1	7.93	10.1	4.0	Yes	n/a	-2.17327293318233	n/a	n/a	n/a	ShowChoice	Gain
136.643	1.0	0.012	191.331	10.0	1	7.93	3.96	15.9249	955.0	4.2	Outcome1	7.93	10.1	4.0	Yes	n/a	-2.17327293318233	n/a	n/a	n/a	ShowResult	Gain
137.663	2.0	0.02	192.351	10.0	1	7.93	3.96	15.9249	955.0	4.2	Outcome1	7.93	10.1	4.0	Yes	n/a	-2.17327293318233	n/a	n/a	n/a	ISITrial	Gain
139.686	4.0	0.023	194.374	10.0	1	7.93	3.96	15.9249	955.0	4.2	Outcome1	7.93	10.1	4.0	Yes	n/a	-2.17327293318233	n/a	n/a	n/a	TrialHappPreview	Gain
143.715	4.012	0.029	198.403	10.0	1	7.93	3.96	15.9249	955.0	4.2	Outcome1	7.93	10.1	4.0	Yes	4{-4}2{-2}	-2.17327293318233	1.344	145.059	508.0	TrialHappiness	Gain
143.715	0.422	n/a	199.325	10.0	1	7.93	3.96	15.9249	955.0	4.2	Outcome1	7.93	10.1	4.0	Yes	n/a	-2.17327293318233	n/a	n/a	508.0	TrialHappinessSliderResponse	Gain
147.727	8.0	4.012	202.415	10.0	1	7.93	3.96	15.9249	955.0	4.2	Outcome1	7.93	10.1	4.0	Yes	n/a	-2.17327293318233	n/a	n/a	n/a	ISIRate	Gain
155.751	3.0	0.024	210.439	11.0	1	-2.0	-2.0	15.6749	955.0	0.52	Certain	-0.9	-3.16	0.0	No	4.0	-2.26302378255946	1.347	157.098	n/a	GetAnswer	Mixed
157.122	4.0	0.024	211.81	11.0	1	-2.0	-2.0	15.6749	955.0	0.52	Certain	-0.9	-3.16	0.0	No	n/a	-2.26302378255946	n/a	n/a	n/a	ShowChoice	Mixed
161.134	1.0	0.012	215.822	11.0	1	-2.0	-2.0	15.6749	955.0	0.52	Certain	-0.9	-3.16	0.0	No	n/a	-2.26302378255946	n/a	n/a	n/a	ShowResult	Mixed
162.153	3.324	0.019	216.841	11.0	1	-2.0	-2.0	15.6749	955.0	0.52	Certain	-0.9	-3.16	0.0	No	n/a	-2.26302378255946	n/a	n/a	n/a	ISITrial	Mixed
165.497	3.0	0.02	220.185	12.0	1	-3.0	-3.0	15.2999	955.0	0.52	Certain	-10.39	3.1	2.61875	Yes	4.0	13.488108720271802	1.844	167.341	n/a	GetAnswer	Mixed
167.352	4.0	0.011	222.04	12.0	1	-3.0	-3.0	15.2999	955.0	0.52	Certain	-10.39	3.1	2.61875	Yes	n/a	13.488108720271802	n/a	n/a	n/a	ShowChoice	Mixed
171.364	1.0	0.012	226.052	12.0	1	-3.0	-3.0	15.2999	955.0	0.52	Certain	-10.39	3.1	2.61875	Yes	n/a	13.488108720271802	n/a	n/a	n/a	ShowResult	Mixed
172.384	6.642	0.02	227.072	12.0	1	-3.0	-3.0	15.2999	955.0	0.52	Certain	-10.39	3.1	2.61875	Yes	n/a	13.488108720271802	n/a	n/a	n/a	ISITrial	Mixed
179.037	2.619	0.011	233.725	12.0	1	-3.0	-3.0	15.2999	955.0	0.52	Certain	-10.39	3.1	2.61875	Yes	n/a	13.488108720271802	n/a	n/a	n/a	TrialHappPreview	Mixed
181.679	4.012	0.023	236.367	12.0	1	-3.0	-3.0	15.2999	955.0	0.52	Certain	-10.39	3.1	2.61875	Yes	n/a	13.488108720271802	n/a	n/a	552.0	TrialHappiness	Mixed
181.679	0.953	n/a	236.891	12.0	1	-3.0	-3.0	15.2999	955.0	0.52	Certain	-10.39	3.1	2.61875	Yes	n/a	13.488108720271802	n/a	n/a	552.0	TrialHappinessSliderResponse	Mixed
185.691	2.475	4.012	240.379	12.0	1	-3.0	-3.0	15.2999	955.0	0.52	Certain	-10.39	3.1	2.61875	Yes	n/a	13.488108720271802	n/a	n/a	n/a	ISIRate	Mixed
188.198	3.0	0.032	242.886	13.0	1	6.73	3.36	16.1411	955.0	2.0	Outcome2	8.9	6.73	0.0	No	2.0	-2.16883729709324	0.773	188.971	n/a	GetAnswer	Gain
188.984	4.0	0.013	243.672	13.0	1	6.73	3.36	16.1411	955.0	2.0	Outcome2	8.9	6.73	0.0	No	n/a	-2.16883729709324	n/a	n/a	n/a	ShowChoice	Gain
192.996	1.0	0.012	247.684	13.0	1	6.73	3.36	16.1411	955.0	2.0	Outcome2	8.9	6.73	0.0	No	n/a	-2.16883729709324	n/a	n/a	n/a	ShowResult	Gain
194.016	3.48	0.02	248.704	13.0	1	6.73	3.36	16.1411	955.0	2.0	Outcome2	8.9	6.73	0.0	No	n/a	-2.16883729709324	n/a	n/a	n/a	ISITrial	Gain
197.526	3.0	0.03	252.214	14.0	1	0.0	0.0	16.1411	955.0	5.0	Certain	6.3	-7.4	0.0	No	4.0	13.7032842582106	1.573	199.099	n/a	GetAnswer	Gain
199.114	4.0	0.015	253.802	14.0	1	0.0	0.0	16.1411	955.0	5.0	Certain	6.3	-7.4	0.0	No	n/a	13.7032842582106	n/a	n/a	n/a	ShowChoice	Gain
203.126	1.0	0.012	257.814	14.0	1	0.0	0.0	16.1411	955.0	5.0	Certain	6.3	-7.4	0.0	No	n/a	13.7032842582106	n/a	n/a	n/a	ShowResult	Gain
204.146	5.019	0.02	258.834	14.0	1	0.0	0.0	16.1411	955.0	5.0	Certain	6.3	-7.4	0.0	No	n/a	13.7032842582106	n/a	n/a	n/a	ISITrial	Gain
209.194	3.0	0.029	263.882	15.0	1	7.1	0.0	17.0286	955.0	2.22	Outcome2	-7.06	7.1	3.3485	Yes	2.0	14.1596828992072	1.561	210.755	n/a	GetAnswer	Gain
210.782	4.0	0.027	265.47	15.0	1	7.1	0.0	17.0286	955.0	2.22	Outcome2	-7.06	7.1	3.3485	Yes	n/a	14.1596828992072	n/a	n/a	n/a	ShowChoice	Gain
214.795	1.0	0.013	269.483	15.0	1	7.1	0.0	17.0286	955.0	2.22	Outcome2	-7.06	7.1	3.3485	Yes	n/a	14.1596828992072	n/a	n/a	n/a	ShowResult	Gain
215.814	7.614	0.019	270.502	15.0	1	7.1	0.0	17.0286	955.0	2.22	Outcome2	-7.06	7.1	3.3485	Yes	n/a	14.1596828992072	n/a	n/a	n/a	ISITrial	Gain
223.454	3.348	0.026	278.142	15.0	1	7.1	0.0	17.0286	955.0	2.22	Outcome2	-7.06	7.1	3.3485	Yes	n/a	14.1596828992072	n/a	n/a	n/a	TrialHappPreview	Gain
226.831	4.012	0.029	281.519	15.0	1	7.1	0.0	17.0286	955.0	2.22	Outcome2	-7.06	7.1	3.3485	Yes	n/a	14.1596828992072	n/a	n/a	528.0	TrialHappiness	Gain
226.831	0.585	n/a	281.626	15.0	1	7.1	0.0	17.0286	955.0	2.22	Outcome2	-7.06	7.1	3.3485	Yes	n/a	14.1596828992072	n/a	n/a	528.0	TrialHappinessSliderResponse	Gain
230.843	5.394	4.012	285.531	15.0	1	7.1	0.0	17.0286	955.0	2.22	Outcome2	-7.06	7.1	3.3485	Yes	n/a	14.1596828992072	n/a	n/a	n/a	ISIRate	Gain
236.259	3.0	0.022	290.947	16.0	1	6.5	-1.0	17.8411	955.0	1.68	Outcome2	-8.52	6.5	0.0	No	2.0	15.0237825594564	1.982	238.241	n/a	GetAnswer	Gain
238.265	4.0	0.024	292.953	16.0	1	6.5	-1.0	17.8411	955.0	1.68	Outcome2	-8.52	6.5	0.0	No	n/a	15.0237825594564	n/a	n/a	n/a	ShowChoice	Gain
242.277	1.0	0.012	296.965	16.0	1	6.5	-1.0	17.8411	955.0	1.68	Outcome2	-8.52	6.5	0.0	No	n/a	15.0237825594564	n/a	n/a	n/a	ShowResult	Gain
243.297	3.008	0.02	297.985	16.0	1	6.5	-1.0	17.8411	955.0	1.68	Outcome2	-8.52	6.5	0.0	No	n/a	15.0237825594564	n/a	n/a	n/a	ISITrial	Gain
246.322	3.0	0.017	301.01	17.0	1	8.48	4.24	18.9011	955.0	2.0	Outcome1	8.48	10.9	3.0415	Yes	2.0	-2.42063042657607	1.116	247.438	n/a	GetAnswer	Loss
247.459	4.0	0.021	302.147	17.0	1	8.48	4.24	18.9011	955.0	2.0	Outcome1	8.48	10.9	3.0415	Yes	n/a	-2.42063042657607	n/a	n/a	n/a	ShowChoice	Loss
251.471	1.0	0.012	306.159	17.0	1	8.48	4.24	18.9011	955.0	2.0	Outcome1	8.48	10.9	3.0415	Yes	n/a	-2.42063042657607	n/a	n/a	n/a	ShowResult	Loss
252.491	3.566	0.02	307.179	17.0	1	8.48	4.24	18.9011	955.0	2.0	Outcome1	8.48	10.9	3.0415	Yes	n/a	-2.42063042657607	n/a	n/a	n/a	ISITrial	Loss
256.068	3.042	0.011	310.756	17.0	1	8.48	4.24	18.9011	955.0	2.0	Outcome1	8.48	10.9	3.0415	Yes	n/a	-2.42063042657607	n/a	n/a	n/a	TrialHappPreview	Loss
259.128	4.028	0.018	313.816	17.0	1	8.48	4.24	18.9011	955.0	2.0	Outcome1	8.48	10.9	3.0415	Yes	n/a	-2.42063042657607	n/a	n/a	584.0	TrialHappiness	Loss
259.128	0.561	n/a	314.181	17.0	1	8.48	4.24	18.9011	955.0	2.0	Outcome1	8.48	10.9	3.0415	Yes	n/a	-2.42063042657607	n/a	n/a	584.0	TrialHappinessSliderResponse	Loss
263.156	4.166	4.028	317.844	17.0	1	8.48	4.24	18.9011	955.0	2.0	Outcome1	8.48	10.9	3.0415	Yes	n/a	-2.42063042657607	n/a	n/a	n/a	ISIRate	Loss
267.352	3.0	0.03	322.04	18.0	1	-9.0	-9.0	17.7761	955.0	0.3	Certain	-16.34	-1.3	0.0	No	4.0	15.039637599094	2.638	269.99	n/a	GetAnswer	Mixed
270.01	4.0	0.02	324.698	18.0	1	-9.0	-9.0	17.7761	955.0	0.3	Certain	-16.34	-1.3	0.0	No	n/a	15.039637599094	n/a	n/a	n/a	ShowChoice	Mixed
274.022	1.0	0.012	328.71	18.0	1	-9.0	-9.0	17.7761	955.0	0.3	Certain	-16.34	-1.3	0.0	No	n/a	15.039637599094	n/a	n/a	n/a	ShowResult	Mixed
275.042	6.787	0.02	329.73	18.0	1	-9.0	-9.0	17.7761	955.0	0.3	Certain	-16.34	-1.3	0.0	No	n/a	15.039637599094	n/a	n/a	n/a	ISITrial	Mixed
281.862	3.0	0.033	336.55	19.0	1	-1.17	0.0	17.6298	955.0	0.52	Outcome1	-1.17	1.1	0.0	No	2.0	-2.26868629671574	1.361	283.223	n/a	GetAnswer	Mixed
283.25	4.0	0.027	337.938	19.0	1	-1.17	0.0	17.6298	955.0	0.52	Outcome1	-1.17	1.1	0.0	No	n/a	-2.26868629671574	n/a	n/a	n/a	ShowChoice	Mixed
287.279	1.0	0.029	341.967	19.0	1	-1.17	0.0	17.6298	955.0	0.52	Outcome1	-1.17	1.1	0.0	No	n/a	-2.26868629671574	n/a	n/a	n/a	ShowResult	Mixed
288.298	2.0	0.019	342.986	19.0	1	-1.17	0.0	17.6298	955.0	0.52	Outcome1	-1.17	1.1	0.0	No	n/a	-2.26868629671574	n/a	n/a	n/a	ISITrial	Mixed
290.321	3.0	0.023	345.009	20.0	1	5.2	2.6	18.2798	955.0	2.8	Outcome2	7.5	5.2	2.92125	Yes	2.0	-2.3036995092487698	1.12	291.441	n/a	GetAnswer	Gain
291.458	4.0	0.017	346.146	20.0	1	5.2	2.6	18.2798	955.0	2.8	Outcome2	7.5	5.2	2.92125	Yes	n/a	-2.3036995092487698	n/a	n/a	n/a	ShowChoice	Gain
295.47	1.0	0.012	350.158	20.0	1	5.2	2.6	18.2798	955.0	2.8	Outcome2	7.5	5.2	2.92125	Yes	n/a	-2.3036995092487698	n/a	n/a	n/a	ShowResult	Gain
296.49	8.0	0.02	351.178	20.0	1	5.2	2.6	18.2798	955.0	2.8	Outcome2	7.5	5.2	2.92125	Yes	n/a	-2.3036995092487698	n/a	n/a	n/a	ISITrial	Gain
304.514	2.921	0.024	359.202	20.0	1	5.2	2.6	18.2798	955.0	2.8	Outcome2	7.5	5.2	2.92125	Yes	n/a	-2.3036995092487698	n/a	n/a	n/a	TrialHappPreview	Gain
307.456	4.012	0.021	362.144	20.0	1	5.2	2.6	18.2798	955.0	2.8	Outcome2	7.5	5.2	2.92125	Yes	n/a	-2.3036995092487698	n/a	n/a	600.0	TrialHappiness	Gain
307.456	1.712	n/a	362.677	20.0	1	5.2	2.6	18.2798	955.0	2.8	Outcome2	7.5	5.2	2.92125	Yes	n/a	-2.3036995092487698	n/a	n/a	600.0	TrialHappinessSliderResponse	Gain
311.468	3.685	4.012	366.156	20.0	1	5.2	2.6	18.2798	955.0	2.8	Outcome2	7.5	5.2	2.92125	Yes	n/a	-2.3036995092487698	n/a	n/a	n/a	ISIRate	Gain
315.179	3.0	0.026	369.867	21.0	1	-1.46	-1.46	18.0973	955.0	2.22	Certain	-2.93	13.1	0.0	No	4.0	16.0283125707814	1.453	316.632	n/a	GetAnswer	Loss
316.65	4.0	0.018	371.338	21.0	1	-1.46	-1.46	18.0973	955.0	2.22	Certain	-2.93	13.1	0.0	No	n/a	16.0283125707814	n/a	n/a	n/a	ShowChoice	Loss
320.662	1.0	0.012	375.35	21.0	1	-1.46	-1.46	18.0973	955.0	2.22	Certain	-2.93	13.1	0.0	No	n/a	16.0283125707814	n/a	n/a	n/a	ShowResult	Loss
321.682	3.555	0.02	376.37	21.0	1	-1.46	-1.46	18.0973	955.0	2.22	Certain	-2.93	13.1	0.0	No	n/a	16.0283125707814	n/a	n/a	n/a	ISITrial	Loss
325.259	3.0	0.022	379.947	22.0	1	-8.0	-8.0	17.0973	955.0	2.0	Certain	-16.13	0.3	3.2195	Yes	4.0	16.4303510758777	2.821	328.08	n/a	GetAnswer	Mixed
328.101	4.0	0.021	382.789	22.0	1	-8.0	-8.0	17.0973	955.0	2.0	Certain	-16.13	0.3	3.2195	Yes	n/a	16.4303510758777	n/a	n/a	n/a	ShowChoice	Mixed
332.113	1.0	0.012	386.801	22.0	1	-8.0	-8.0	17.0973	955.0	2.0	Certain	-16.13	0.3	3.2195	Yes	n/a	16.4303510758777	n/a	n/a	n/a	ShowResult	Mixed
333.133	6.793	0.02	387.821	22.0	1	-8.0	-8.0	17.0973	955.0	2.0	Certain	-16.13	0.3	3.2195	Yes	n/a	16.4303510758777	n/a	n/a	n/a	ISITrial	Mixed
339.953	3.22	0.027	394.641	22.0	1	-8.0	-8.0	17.0973	955.0	2.0	Certain	-16.13	0.3	3.2195	Yes	n/a	16.4303510758777	n/a	n/a	n/a	TrialHappPreview	Mixed
343.196	4.012	0.023	397.884	22.0	1	-8.0	-8.0	17.0973	955.0	2.0	Certain	-16.13	0.3	3.2195	Yes	n/a	16.4303510758777	n/a	n/a	544.0	TrialHappiness	Mixed
343.197	0.802	n/a	398.661	22.0	1	-8.0	-8.0	17.0973	955.0	2.0	Certain	-16.13	0.3	3.2195	Yes	n/a	16.4303510758777	n/a	n/a	544.0	TrialHappinessSliderResponse	Mixed
347.208	4.878	4.012	401.896	22.0	1	-8.0	-8.0	17.0973	955.0	2.0	Certain	-16.13	0.3	3.2195	Yes	n/a	16.4303510758777	n/a	n/a	n/a	ISIRate	Mixed
352.106	3.0	0.02	406.794	23.0	1	12.9	-2.44	18.7098	955.0	2.0	Outcome1	12.9	-4.88	0.0	No	2.0	17.7836919592299	1.775	353.881	n/a	GetAnswer	Loss
353.895	4.0	0.014	408.583	23.0	1	12.9	-2.44	18.7098	955.0	2.0	Outcome1	12.9	-4.88	0.0	No	n/a	17.7836919592299	n/a	n/a	n/a	ShowChoice	Loss
357.907	1.0	0.012	412.595	23.0	1	12.9	-2.44	18.7098	955.0	2.0	Outcome1	12.9	-4.88	0.0	No	n/a	17.7836919592299	n/a	n/a	n/a	ShowResult	Loss
358.927	8.0	0.02	413.615	23.0	1	12.9	-2.44	18.7098	955.0	2.0	Outcome1	12.9	-4.88	0.0	No	n/a	17.7836919592299	n/a	n/a	n/a	ISITrial	Loss
366.951	3.0	0.024	421.639	24.0	1	2.49	1.25	19.0211	955.0	2.22	Outcome2	5.1	2.49	3.255	Yes	2.0	-2.60683276708192	1.023	367.974	n/a	GetAnswer	Gain
368.004	4.0	0.03	422.692	24.0	1	2.49	1.25	19.0211	955.0	2.22	Outcome2	5.1	2.49	3.255	Yes	n/a	-2.60683276708192	n/a	n/a	n/a	ShowChoice	Gain
372.033	1.0	0.029	426.721	24.0	1	2.49	1.25	19.0211	955.0	2.22	Outcome2	5.1	2.49	3.255	Yes	n/a	-2.60683276708192	n/a	n/a	n/a	ShowResult	Gain
373.053	2.0	0.02	427.741	24.0	1	2.49	1.25	19.0211	955.0	2.22	Outcome2	5.1	2.49	3.255	Yes	n/a	-2.60683276708192	n/a	n/a	n/a	ISITrial	Gain
375.075	3.255	0.022	429.763	24.0	1	2.49	1.25	19.0211	955.0	2.22	Outcome2	5.1	2.49	3.255	Yes	n/a	-2.60683276708192	n/a	n/a	n/a	TrialHappPreview	Gain
378.352	4.029	0.022	433.04	24.0	1	2.49	1.25	19.0211	955.0	2.22	Outcome2	5.1	2.49	3.255	Yes	n/a	-2.60683276708192	n/a	n/a	564.0	TrialHappiness	Gain
378.352	0.803	n/a	433.347	24.0	1	2.49	1.25	19.0211	955.0	2.22	Outcome2	5.1	2.49	3.255	Yes	n/a	-2.60683276708192	n/a	n/a	564.0	TrialHappinessSliderResponse	Gain
382.381	5.02	4.029	437.069	24.0	1	2.49	1.25	19.0211	955.0	2.22	Outcome2	5.1	2.49	3.255	Yes	n/a	-2.60683276708192	n/a	n/a	n/a	ISIRate	Gain
387.429	3.0	0.028	442.117	25.0	1	-1.0	-1.0	18.8961	955.0	3.16	Certain	-10.67	7.7	0.0	No	4.0	18.374858437146106	2.003	389.432	n/a	GetAnswer	Gain
389.452	4.0	0.02	444.14	25.0	1	-1.0	-1.0	18.8961	955.0	3.16	Certain	-10.67	7.7	0.0	No	n/a	18.374858437146106	n/a	n/a	n/a	ShowChoice	Gain
393.481	1.0	0.029	448.169	25.0	1	-1.0	-1.0	18.8961	955.0	3.16	Certain	-10.67	7.7	0.0	No	n/a	18.374858437146106	n/a	n/a	n/a	ShowResult	Gain
394.5	3.749	0.019	449.188	25.0	1	-1.0	-1.0	18.8961	955.0	3.16	Certain	-10.67	7.7	0.0	No	n/a	18.374858437146106	n/a	n/a	n/a	ISITrial	Gain
398.278	3.0	0.029	452.966	26.0	1	-4.0	-4.0	18.3961	955.0	2.8	Certain	5.5	-13.32	0.0	No	4.0	18.817667044167603	2.138	400.416	n/a	GetAnswer	Gain
400.435	4.0	0.019	455.123	26.0	1	-4.0	-4.0	18.3961	955.0	2.8	Certain	5.5	-13.32	0.0	No	n/a	18.817667044167603	n/a	n/a	n/a	ShowChoice	Gain
404.447	1.0	0.012	459.135	26.0	1	-4.0	-4.0	18.3961	955.0	2.8	Certain	5.5	-13.32	0.0	No	n/a	18.817667044167603	n/a	n/a	n/a	ShowResult	Gain
405.466	7.834	0.019	460.154	26.0	1	-4.0	-4.0	18.3961	955.0	2.8	Certain	5.5	-13.32	0.0	No	n/a	18.817667044167603	n/a	n/a	n/a	ISITrial	Gain
413.323	3.0	0.023	468.011	27.0	1	-1.5	-11.0	18.2086	955.0	0.2	Outcome1	-1.5	-20.76	2.54975	Yes	n/a	19.2604756511891	n/a	n/a	n/a	GetAnswer	Mixed
416.349	4.0	0.026	471.037	27.0	1	-1.5	-11.0	18.2086	955.0	0.2	Outcome1	-1.5	-20.76	2.54975	Yes	n/a	19.2604756511891	n/a	n/a	n/a	ShowChoice	Mixed
420.361	1.0	0.012	475.049	27.0	1	-1.5	-11.0	18.2086	955.0	0.2	Outcome1	-1.5	-20.76	2.54975	Yes	n/a	19.2604756511891	n/a	n/a	n/a	ShowResult	Mixed
421.381	4.225	0.02	476.069	27.0	1	-1.5	-11.0	18.2086	955.0	0.2	Outcome1	-1.5	-20.76	2.54975	Yes	n/a	19.2604756511891	n/a	n/a	n/a	ISITrial	Mixed
425.627	2.55	0.021	480.315	27.0	1	-1.5	-11.0	18.2086	955.0	0.2	Outcome1	-1.5	-20.76	2.54975	Yes	n/a	19.2604756511891	n/a	n/a	n/a	TrialHappPreview	Mixed
428.201	4.012	0.024	482.889	27.0	1	-1.5	-11.0	18.2086	955.0	0.2	Outcome1	-1.5	-20.76	2.54975	Yes	n/a	19.2604756511891	n/a	n/a	532.0	TrialHappiness	Mixed
428.202	0.143	n/a	483.284	27.0	1	-1.5	-11.0	18.2086	955.0	0.2	Outcome1	-1.5	-20.76	2.54975	Yes	n/a	19.2604756511891	n/a	n/a	532.0	TrialHappinessSliderResponse	Mixed
432.213	2.199	4.012	486.901	27.0	1	-1.5	-11.0	18.2086	955.0	0.2	Outcome1	-1.5	-20.76	2.54975	Yes	n/a	19.2604756511891	n/a	n/a	n/a	ISIRate	Mixed
474.558	0.228	n/a	529.811	n/a	1	n/a	n/a	n/a	n/a	n/a	n/a	n/a	n/a	n/a	n/a	n/a	n/a	n/a	n/a	552.0	BlockStartHappinessSliderResponse	n/a
-74.807	-0.001	0.025	489.125	n/a	2	n/a	n/a	n/a	n/a	n/a	n/a	n/a	n/a	n/a	n/a	{SPACE}	n/a	36.094	-38.713	n/a	Rest	n/a
-38.699	4.0	0.014	525.233	n/a	2	n/a	n/a	n/a	n/a	n/a	n/a	n/a	n/a	n/a	n/a	n/a	n/a	n/a	n/a	n/a	BlockHappyPreview	n/a
-34.687	0.793	0.012	529.245	n/a	2	n/a	n/a	n/a	n/a	n/a	n/a	n/a	n/a	n/a	n/a	2{-2}	n/a	0.793	-33.894	552.0	BlockStartHappiness	n/a
-2.775	-0.001	0.018	561.157	n/a	2	n/a	n/a	n/a	n/a	n/a	n/a	n/a	n/a	n/a	n/a	5.0	n/a	2.749	-0.026	n/a	ScanWait	n/a
0.0	10.0	0.026	563.932	n/a	2	n/a	n/a	n/a	n/a	n/a	n/a	n/a	n/a	n/a	n/a	n/a	n/a	n/a	n/a	n/a	GetReady	n/a
10.031	3.0	0.031	573.963	28.0	2	2.3	1.15	18.4961	70.0	1.68	Outcome1	2.3	10.5	0.0	No	2.0	-8.19727891156463	1.06	11.091	n/a	GetAnswer	Loss
11.117	4.0	0.026	575.049	28.0	2	2.3	1.15	18.4961	70.0	1.68	Outcome1	2.3	10.5	0.0	No	n/a	-8.19727891156463	n/a	n/a	n/a	ShowChoice	Loss
15.129	1.0	0.012	579.061	28.0	2	2.3	1.15	18.4961	70.0	1.68	Outcome1	2.3	10.5	0.0	No	n/a	-8.19727891156463	n/a	n/a	n/a	ShowResult	Loss
16.149	3.575	0.02	580.081	28.0	2	2.3	1.15	18.4961	70.0	1.68	Outcome1	2.3	10.5	0.0	No	n/a	-8.19727891156463	n/a	n/a	n/a	ISITrial	Loss
19.743	3.0	0.019	583.675	29.0	2	1.56	0.78	18.6911	70.0	5.0	Outcome1	1.56	10.3	3.529	Yes	2.0	-8.7437641723356	0.935	20.678	n/a	GetAnswer	Gain
20.696	4.0	0.018	584.628	29.0	2	1.56	0.78	18.6911	70.0	5.0	Outcome1	1.56	10.3	3.529	Yes	n/a	-8.7437641723356	n/a	n/a	n/a	ShowChoice	Gain
24.708	1.0	0.012	588.64	29.0	2	1.56	0.78	18.6911	70.0	5.0	Outcome1	1.56	10.3	3.529	Yes	n/a	-8.7437641723356	n/a	n/a	n/a	ShowResult	Gain
25.728	3.955	0.02	589.66	29.0	2	1.56	0.78	18.6911	70.0	5.0	Outcome1	1.56	10.3	3.529	Yes	n/a	-8.7437641723356	n/a	n/a	n/a	ISITrial	Gain
29.706	3.529	0.023	593.638	29.0	2	1.56	0.78	18.6911	70.0	5.0	Outcome1	1.56	10.3	3.529	Yes	n/a	-8.7437641723356	n/a	n/a	n/a	TrialHappPreview	Gain
33.25	4.012	0.015	597.182	29.0	2	1.56	0.78	18.6911	70.0	5.0	Outcome1	1.56	10.3	3.529	Yes	n/a	-8.7437641723356	n/a	n/a	532.0	TrialHappiness	Gain
33.251	0.965	n/a	597.619	29.0	2	1.56	0.78	18.6911	70.0	5.0	Outcome1	1.56	10.3	3.529	Yes	n/a	-8.7437641723356	n/a	n/a	532.0	TrialHappinessSliderResponse	Gain
37.262	6.116	4.012	601.194	29.0	2	1.56	0.78	18.6911	70.0	5.0	Outcome1	1.56	10.3	3.529	Yes	n/a	-8.7437641723356	n/a	n/a	n/a	ISIRate	Gain
43.397	3.0	0.019	607.329	30.0	2	0.57	0.0	18.7624	70.0	2.0	Outcome2	-1.4	0.57	0.0	No	2.0	1.96806500377929	1.297	44.694	n/a	GetAnswer	Mixed
44.718	4.0	0.024	608.65	30.0	2	0.57	0.0	18.7624	70.0	2.0	Outcome2	-1.4	0.57	0.0	No	n/a	1.96806500377929	n/a	n/a	n/a	ShowChoice	Mixed
48.73	1.0	0.012	612.662	30.0	2	0.57	0.0	18.7624	70.0	2.0	Outcome2	-1.4	0.57	0.0	No	n/a	1.96806500377929	n/a	n/a	n/a	ShowResult	Mixed
49.75	4.453	0.02	613.682	30.0	2	0.57	0.0	18.7624	70.0	2.0	Outcome2	-1.4	0.57	0.0	No	n/a	1.96806500377929	n/a	n/a	n/a	ISITrial	Mixed
54.23	3.0	0.027	618.162	31.0	2	2.92	2.0	19.1274	70.0	3.16	Outcome2	0.91	2.92	2.50325	Yes	2.0	2.0117157974300803	1.652	55.882	n/a	GetAnswer	Loss
55.901	4.0	0.019	619.833	31.0	2	2.92	2.0	19.1274	70.0	3.16	Outcome2	0.91	2.92	2.50325	Yes	n/a	2.0117157974300803	n/a	n/a	n/a	ShowChoice	Loss
59.914	1.0	0.013	623.846	31.0	2	2.92	2.0	19.1274	70.0	3.16	Outcome2	0.91	2.92	2.50325	Yes	n/a	2.0117157974300803	n/a	n/a	n/a	ShowResult	Loss
60.933	4.786	0.019	624.865	31.0	2	2.92	2.0	19.1274	70.0	3.16	Outcome2	0.91	2.92	2.50325	Yes	n/a	2.0117157974300803	n/a	n/a	n/a	ISITrial	Loss
65.731	2.503	0.012	629.663	31.0	2	2.92	2.0	19.1274	70.0	3.16	Outcome2	0.91	2.92	2.50325	Yes	n/a	2.0117157974300803	n/a	n/a	n/a	TrialHappPreview	Loss
68.255	4.012	0.021	632.187	31.0	2	2.92	2.0	19.1274	70.0	3.16	Outcome2	0.91	2.92	2.50325	Yes	n/a	2.0117157974300803	n/a	n/a	528.0	TrialHappiness	Loss
68.256	1.09	n/a	632.73	31.0	2	2.92	2.0	19.1274	70.0	3.16	Outcome2	0.91	2.92	2.50325	Yes	n/a	2.0117157974300803	n/a	n/a	528.0	TrialHappinessSliderResponse	Loss
72.267	2.013	4.012	636.199	31.0	2	2.92	2.0	19.1274	70.0	3.16	Outcome2	0.91	2.92	2.50325	Yes	n/a	2.0117157974300803	n/a	n/a	n/a	ISIRate	Loss
74.307	3.0	0.027	638.239	32.0	2	-0.43	-0.22	19.0736	70.0	2.8	Outcome2	9.5	-0.43	0.0	No	2.0	-9.9297052154195	0.912	75.219	n/a	GetAnswer	Gain
75.243	4.0	0.024	639.175	32.0	2	-0.43	-0.22	19.0736	70.0	2.8	Outcome2	9.5	-0.43	0.0	No	n/a	-9.9297052154195	n/a	n/a	n/a	ShowChoice	Gain
79.255	1.0	0.012	643.187	32.0	2	-0.43	-0.22	19.0736	70.0	2.8	Outcome2	9.5	-0.43	0.0	No	n/a	-9.9297052154195	n/a	n/a	n/a	ShowResult	Gain
80.275	2.0	0.02	644.207	32.0	2	-0.43	-0.22	19.0736	70.0	2.8	Outcome2	9.5	-0.43	0.0	No	n/a	-9.9297052154195	n/a	n/a	n/a	ISITrial	Gain
82.297	3.0	0.022	646.229	33.0	2	-4.0	-4.0	18.5736	70.0	0.4	Certain	0.9	-9.55	0.0	No	4.0	-10.4489795918367	2.339	84.636	n/a	GetAnswer	Mixed
84.654	4.0	0.018	648.586	33.0	2	-4.0	-4.0	18.5736	70.0	0.4	Certain	0.9	-9.55	0.0	No	n/a	-10.4489795918367	n/a	n/a	n/a	ShowChoice	Mixed
88.666	1.0	0.012	652.598	33.0	2	-4.0	-4.0	18.5736	70.0	0.4	Certain	0.9	-9.55	0.0	No	n/a	-10.4489795918367	n/a	n/a	n/a	ShowResult	Mixed
89.686	5.099	0.02	653.618	33.0	2	-4.0	-4.0	18.5736	70.0	0.4	Certain	0.9	-9.55	0.0	No	n/a	-10.4489795918367	n/a	n/a	n/a	ISITrial	Mixed
94.802	3.0	0.017	658.734	34.0	2	-1.0	-1.0	18.4486	70.0	1.82	Certain	-6.27	4.7	3.2315	Yes	4.0	-10.968253968254	2.087	96.889	n/a	GetAnswer	Gain
96.908	4.0	0.019	660.84	34.0	2	-1.0	-1.0	18.4486	70.0	1.82	Certain	-6.27	4.7	3.2315	Yes	n/a	-10.968253968254	n/a	n/a	n/a	ShowChoice	Gain
100.92	1.0	0.012	664.852	34.0	2	-1.0	-1.0	18.4486	70.0	1.82	Certain	-6.27	4.7	3.2315	Yes	n/a	-10.968253968254	n/a	n/a	n/a	ShowResult	Gain
101.94	4.784	0.02	665.872	34.0	2	-1.0	-1.0	18.4486	70.0	1.82	Certain	-6.27	4.7	3.2315	Yes	n/a	-10.968253968254	n/a	n/a	n/a	ISITrial	Gain
106.737	3.232	0.013	670.669	34.0	2	-1.0	-1.0	18.4486	70.0	1.82	Certain	-6.27	4.7	3.2315	Yes	n/a	-10.968253968254	n/a	n/a	n/a	TrialHappPreview	Gain
109.997	4.012	0.028	673.929	34.0	2	-1.0	-1.0	18.4486	70.0	1.82	Certain	-6.27	4.7	3.2315	Yes	n/a	-10.968253968254	n/a	n/a	520.0	TrialHappiness	Gain
109.998	0.748	n/a	674.677	34.0	2	-1.0	-1.0	18.4486	70.0	1.82	Certain	-6.27	4.7	3.2315	Yes	n/a	-10.968253968254	n/a	n/a	520.0	TrialHappinessSliderResponse	Gain
114.009	4.926	4.012	677.941	34.0	2	-1.0	-1.0	18.4486	70.0	1.82	Certain	-6.27	4.7	3.2315	Yes	n/a	-10.968253968254	n/a	n/a	n/a	ISIRate	Gain
118.957	3.0	0.022	682.889	35.0	2	1.95	0.98	18.6924	70.0	2.48	Outcome1	1.95	13.3	0.0	No	2.0	-11.3514739229025	1.006	119.963	n/a	GetAnswer	Loss
119.977	4.0	0.014	683.909	35.0	2	1.95	0.98	18.6924	70.0	2.48	Outcome1	1.95	13.3	0.0	No	n/a	-11.3514739229025	n/a	n/a	n/a	ShowChoice	Loss
123.989	1.0	0.012	687.921	35.0	2	1.95	0.98	18.6924	70.0	2.48	Outcome1	1.95	13.3	0.0	No	n/a	-11.3514739229025	n/a	n/a	n/a	ShowResult	Loss
125.009	2.098	0.02	688.941	35.0	2	1.95	0.98	18.6924	70.0	2.48	Outcome1	1.95	13.3	0.0	No	n/a	-11.3514739229025	n/a	n/a	n/a	ISITrial	Loss
127.132	3.0	0.025	691.064	36.0	2	-6.0	-6.0	17.9424	70.0	1.2	Certain	-11.96	-0.1	3.33575	Yes	4.0	-11.8616780045351	2.456	129.588	n/a	GetAnswer	Mixed
129.606	4.0	0.018	693.538	36.0	2	-6.0	-6.0	17.9424	70.0	1.2	Certain	-11.96	-0.1	3.33575	Yes	n/a	-11.8616780045351	n/a	n/a	n/a	ShowChoice	Mixed
133.618	1.0	0.012	697.55	36.0	2	-6.0	-6.0	17.9424	70.0	1.2	Certain	-11.96	-0.1	3.33575	Yes	n/a	-11.8616780045351	n/a	n/a	n/a	ShowResult	Mixed
134.638	5.156	0.02	698.57	36.0	2	-6.0	-6.0	17.9424	70.0	1.2	Certain	-11.96	-0.1	3.33575	Yes	n/a	-11.8616780045351	n/a	n/a	n/a	ISITrial	Mixed
139.82	3.336	0.026	703.752	36.0	2	-6.0	-6.0	17.9424	70.0	1.2	Certain	-11.96	-0.1	3.33575	Yes	n/a	-11.8616780045351	n/a	n/a	n/a	TrialHappPreview	Mixed
143.18	4.012	0.024	707.112	36.0	2	-6.0	-6.0	17.9424	70.0	1.2	Certain	-11.96	-0.1	3.33575	Yes	n/a	-11.8616780045351	n/a	n/a	536.0	TrialHappiness	Mixed
143.181	0.188	n/a	707.634	36.0	2	-6.0	-6.0	17.9424	70.0	1.2	Certain	-11.96	-0.1	3.33575	Yes	n/a	-11.8616780045351	n/a	n/a	536.0	TrialHappinessSliderResponse	Mixed
147.192	5.343	4.012	711.124	36.0	2	-6.0	-6.0	17.9424	70.0	1.2	Certain	-11.96	-0.1	3.33575	Yes	n/a	-11.8616780045351	n/a	n/a	n/a	ISIRate	Mixed
152.558	3.0	0.023	716.49	37.0	2	-1.94	-0.97	17.6999	70.0	1.82	Outcome2	10.7	-1.94	0.0	No	2.0	-12.6439909297052	1.447	154.005	n/a	GetAnswer	Loss
154.029	4.0	0.024	717.961	37.0	2	-1.94	-0.97	17.6999	70.0	1.82	Outcome2	10.7	-1.94	0.0	No	n/a	-12.6439909297052	n/a	n/a	n/a	ShowChoice	Loss
158.041	1.0	0.012	721.973	37.0	2	-1.94	-0.97	17.6999	70.0	1.82	Outcome2	10.7	-1.94	0.0	No	n/a	-12.6439909297052	n/a	n/a	n/a	ShowResult	Loss
159.061	3.598	0.02	722.993	37.0	2	-1.94	-0.97	17.6999	70.0	1.82	Outcome2	10.7	-1.94	0.0	No	n/a	-12.6439909297052	n/a	n/a	n/a	ISITrial	Loss
162.688	3.0	0.029	726.62	38.0	2	-7.0	-7.0	16.8249	70.0	0.4	Certain	-1.1	-14.27	0.0	No	4.0	-13.172335600907	2.207	164.895	n/a	GetAnswer	Mixed
164.912	4.0	0.017	728.844	38.0	2	-7.0	-7.0	16.8249	70.0	0.4	Certain	-1.1	-14.27	0.0	No	n/a	-13.172335600907	n/a	n/a	n/a	ShowChoice	Mixed
168.924	1.0	0.012	732.856	38.0	2	-7.0	-7.0	16.8249	70.0	0.4	Certain	-1.1	-14.27	0.0	No	n/a	-13.172335600907	n/a	n/a	n/a	ShowResult	Mixed
169.944	4.787	0.02	733.876	38.0	2	-7.0	-7.0	16.8249	70.0	0.4	Certain	-1.1	-14.27	0.0	No	n/a	-13.172335600907	n/a	n/a	n/a	ISITrial	Mixed
174.758	3.0	0.027	738.69	39.0	2	-2.0	-2.0	16.5749	70.0	2.0	Certain	-8.8	4.9	2.86425	Yes	4.0	-13.7006802721088	2.063	176.821	n/a	GetAnswer	Gain
176.848	4.0	0.027	740.78	39.0	2	-2.0	-2.0	16.5749	70.0	2.0	Certain	-8.8	4.9	2.86425	Yes	n/a	-13.7006802721088	n/a	n/a	n/a	ShowChoice	Gain
180.86	1.0	0.012	744.792	39.0	2	-2.0	-2.0	16.5749	70.0	2.0	Certain	-8.8	4.9	2.86425	Yes	n/a	-13.7006802721088	n/a	n/a	n/a	ShowResult	Gain
181.879	2.348	0.019	745.811	39.0	2	-2.0	-2.0	16.5749	70.0	2.0	Certain	-8.8	4.9	2.86425	Yes	n/a	-13.7006802721088	n/a	n/a	n/a	ISITrial	Gain
184.253	2.864	0.026	748.185	39.0	2	-2.0	-2.0	16.5749	70.0	2.0	Certain	-8.8	4.9	2.86425	Yes	n/a	-13.7006802721088	n/a	n/a	n/a	TrialHappPreview	Gain
187.145	4.012	0.028	751.077	39.0	2	-2.0	-2.0	16.5749	70.0	2.0	Certain	-8.8	4.9	2.86425	Yes	2{-2}	-13.7006802721088	0.509	187.654	544.0	TrialHappiness	Gain
187.146	0.209	n/a	751.378	39.0	2	-2.0	-2.0	16.5749	70.0	2.0	Certain	-8.8	4.9	2.86425	Yes	n/a	-13.7006802721088	n/a	n/a	544.0	TrialHappinessSliderResponse	Gain
191.157	3.457	4.012	755.089	39.0	2	-2.0	-2.0	16.5749	70.0	2.0	Certain	-8.8	4.9	2.86425	Yes	n/a	-13.7006802721088	n/a	n/a	n/a	ISIRate	Gain
194.634	3.0	0.02	758.566	40.0	2	0.82	0.0	16.6774	70.0	0.66	Outcome1	0.82	-1.63	0.0	No	2.0	2.4510582010582005	1.54	196.174	n/a	GetAnswer	Mixed
196.189	4.0	0.015	760.121	40.0	2	0.82	0.0	16.6774	70.0	0.66	Outcome1	0.82	-1.63	0.0	No	n/a	2.4510582010582005	n/a	n/a	n/a	ShowChoice	Mixed
200.201	1.0	0.012	764.133	40.0	2	0.82	0.0	16.6774	70.0	0.66	Outcome1	0.82	-1.63	0.0	No	n/a	2.4510582010582005	n/a	n/a	n/a	ShowResult	Mixed
201.221	3.158	0.02	765.153	40.0	2	0.82	0.0	16.6774	70.0	0.66	Outcome1	0.82	-1.63	0.0	No	n/a	2.4510582010582005	n/a	n/a	n/a	ISITrial	Mixed
204.397	3.0	0.018	768.329	41.0	2	-5.2	2.0	16.0274	70.0	3.16	Outcome2	9.7	-5.2	4.0	Yes	2.0	-14.9024943310658	0.951	205.348	n/a	GetAnswer	Gain
205.367	4.0	0.019	769.299	41.0	2	-5.2	2.0	16.0274	70.0	3.16	Outcome2	9.7	-5.2	4.0	Yes	n/a	-14.9024943310658	n/a	n/a	n/a	ShowChoice	Gain
209.379	1.0	0.012	773.311	41.0	2	-5.2	2.0	16.0274	70.0	3.16	Outcome2	9.7	-5.2	4.0	Yes	n/a	-14.9024943310658	n/a	n/a	n/a	ShowResult	Gain
210.398	4.506	0.019	774.33	41.0	2	-5.2	2.0	16.0274	70.0	3.16	Outcome2	9.7	-5.2	4.0	Yes	n/a	-14.9024943310658	n/a	n/a	n/a	ISITrial	Gain
214.929	4.0	0.025	778.861	41.0	2	-5.2	2.0	16.0274	70.0	3.16	Outcome2	9.7	-5.2	4.0	Yes	n/a	-14.9024943310658	n/a	n/a	n/a	TrialHappPreview	Gain
218.957	4.012	0.028	782.889	41.0	2	-5.2	2.0	16.0274	70.0	3.16	Outcome2	9.7	-5.2	4.0	Yes	n/a	-14.9024943310658	n/a	n/a	508.0	TrialHappiness	Gain
218.958	1.326	n/a	784.396	41.0	2	-5.2	2.0	16.0274	70.0	3.16	Outcome2	9.7	-5.2	4.0	Yes	n/a	-14.9024943310658	n/a	n/a	508.0	TrialHappinessSliderResponse	Gain
222.969	8.0	4.012	786.901	41.0	2	-5.2	2.0	16.0274	70.0	3.16	Outcome2	9.7	-5.2	4.0	Yes	n/a	-14.9024943310658	n/a	n/a	n/a	ISIRate	Gain
230.993	3.0	0.024	794.925	42.0	2	1.02	0.0	16.1549	70.0	1.5	Outcome2	-1.37	1.02	0.0	No	2.0	2.3943688586545697	1.145	232.138	n/a	GetAnswer	Mixed
232.164	4.0	0.026	796.096	42.0	2	1.02	0.0	16.1549	70.0	1.5	Outcome2	-1.37	1.02	0.0	No	n/a	2.3943688586545697	n/a	n/a	n/a	ShowChoice	Mixed
236.176	1.0	0.012	800.108	42.0	2	1.02	0.0	16.1549	70.0	1.5	Outcome2	-1.37	1.02	0.0	No	n/a	2.3943688586545697	n/a	n/a	n/a	ShowResult	Mixed
237.195	6.248	0.019	801.127	42.0	2	1.02	0.0	16.1549	70.0	1.5	Outcome2	-1.37	1.02	0.0	No	n/a	2.3943688586545697	n/a	n/a	n/a	ISITrial	Mixed
243.464	3.0	0.021	807.396	43.0	2	-8.0	-8.0	15.1549	70.0	0.82	Certain	-15.82	-0.5	2.77575	Yes	4.0	-15.324263038548802	1.373	244.837	n/a	GetAnswer	Mixed
244.852	4.0	0.015	808.784	43.0	2	-8.0	-8.0	15.1549	70.0	0.82	Certain	-15.82	-0.5	2.77575	Yes	n/a	-15.324263038548802	n/a	n/a	n/a	ShowChoice	Mixed
248.864	1.0	0.012	812.796	43.0	2	-8.0	-8.0	15.1549	70.0	0.82	Certain	-15.82	-0.5	2.77575	Yes	n/a	-15.324263038548802	n/a	n/a	n/a	ShowResult	Mixed
249.883	4.596	0.019	813.815	43.0	2	-8.0	-8.0	15.1549	70.0	0.82	Certain	-15.82	-0.5	2.77575	Yes	n/a	-15.324263038548802	n/a	n/a	n/a	ISITrial	Mixed
254.497	2.776	0.018	818.429	43.0	2	-8.0	-8.0	15.1549	70.0	0.82	Certain	-15.82	-0.5	2.77575	Yes	n/a	-15.324263038548802	n/a	n/a	n/a	TrialHappPreview	Mixed
257.289	4.012	0.016	821.221	43.0	2	-8.0	-8.0	15.1549	70.0	0.82	Certain	-15.82	-0.5	2.77575	Yes	4{-4}	-15.324263038548802	0.651	257.94	492.0	TrialHappiness	Mixed
257.29	0.149	n/a	821.724	43.0	2	-8.0	-8.0	15.1549	70.0	0.82	Certain	-15.82	-0.5	2.77575	Yes	n/a	-15.324263038548802	n/a	n/a	492.0	TrialHappinessSliderResponse	Mixed
261.301	3.103	4.012	825.233	43.0	2	-8.0	-8.0	15.1549	70.0	0.82	Certain	-15.82	-0.5	2.77575	Yes	n/a	-15.324263038548802	n/a	n/a	n/a	ISIRate	Mixed
264.427	3.0	0.023	828.359	44.0	2	-9.85	-2.0	13.9237	70.0	3.16	Outcome2	5.7	-9.85	0.0	No	2.0	-15.548752834467098	1.092	265.519	n/a	GetAnswer	Gain
265.547	4.0	0.028	829.479	44.0	2	-9.85	-2.0	13.9237	70.0	3.16	Outcome2	5.7	-9.85	0.0	No	n/a	-15.548752834467098	n/a	n/a	n/a	ShowChoice	Gain
269.559	1.0	0.012	833.491	44.0	2	-9.85	-2.0	13.9237	70.0	3.16	Outcome2	5.7	-9.85	0.0	No	n/a	-15.548752834467098	n/a	n/a	n/a	ShowResult	Gain
270.579	2.42	0.02	834.511	44.0	2	-9.85	-2.0	13.9237	70.0	3.16	Outcome2	5.7	-9.85	0.0	No	n/a	-15.548752834467098	n/a	n/a	n/a	ISITrial	Gain
273.019	3.0	0.02	836.951	45.0	2	-5.0	-5.0	13.2987	70.0	0.4	Certain	-13.13	2.9	0.0	No	4.0	-16.0272108843537	1.973	274.992	n/a	GetAnswer	Mixed
275.009	4.0	0.017	838.941	45.0	2	-5.0	-5.0	13.2987	70.0	0.4	Certain	-13.13	2.9	0.0	No	n/a	-16.0272108843537	n/a	n/a	n/a	ShowChoice	Mixed
279.021	1.0	0.012	842.953	45.0	2	-5.0	-5.0	13.2987	70.0	0.4	Certain	-13.13	2.9	0.0	No	n/a	-16.0272108843537	n/a	n/a	n/a	ShowResult	Mixed
280.041	3.144	0.02	843.973	45.0	2	-5.0	-5.0	13.2987	70.0	0.4	Certain	-13.13	2.9	0.0	No	n/a	-16.0272108843537	n/a	n/a	n/a	ISITrial	Mixed
283.217	3.0	0.032	847.149	46.0	2	-9.61	-1.0	12.0974	70.0	2.0	Outcome2	6.9	-9.61	3.84125	Yes	2.0	-16.5056689342404	1.651	284.868	n/a	GetAnswer	Gain
284.888	4.0	0.02	848.82	46.0	2	-9.61	-1.0	12.0974	70.0	2.0	Outcome2	6.9	-9.61	3.84125	Yes	n/a	-16.5056689342404	n/a	n/a	n/a	ShowChoice	Gain
288.9	1.0	0.012	852.832	46.0	2	-9.61	-1.0	12.0974	70.0	2.0	Outcome2	6.9	-9.61	3.84125	Yes	n/a	-16.5056689342404	n/a	n/a	n/a	ShowResult	Gain
289.92	2.246	0.02	853.852	46.0	2	-9.61	-1.0	12.0974	70.0	2.0	Outcome2	6.9	-9.61	3.84125	Yes	n/a	-16.5056689342404	n/a	n/a	n/a	ISITrial	Gain
292.177	3.841	0.011	856.109	46.0	2	-9.61	-1.0	12.0974	70.0	2.0	Outcome2	6.9	-9.61	3.84125	Yes	n/a	-16.5056689342404	n/a	n/a	n/a	TrialHappPreview	Gain
296.039	4.012	0.021	859.971	46.0	2	-9.61	-1.0	12.0974	70.0	2.0	Outcome2	6.9	-9.61	3.84125	Yes	n/a	-16.5056689342404	n/a	n/a	480.0	TrialHappiness	Gain
296.039	0.487	n/a	860.26	46.0	2	-9.61	-1.0	12.0974	70.0	2.0	Outcome2	6.9	-9.61	3.84125	Yes	n/a	-16.5056689342404	n/a	n/a	480.0	TrialHappinessSliderResponse	Gain
300.051	7.365	4.012	863.983	46.0	2	-9.61	-1.0	12.0974	70.0	2.0	Outcome2	6.9	-9.61	3.84125	Yes	n/a	-16.5056689342404	n/a	n/a	n/a	ISIRate	Gain
307.439	3.0	0.023	871.371	47.0	2	0.42	-1.0	12.1499	70.0	1.0	Outcome1	0.42	-2.06	0.0	No	2.0	2.48299319727891	1.143	308.582	n/a	GetAnswer	Mixed
308.61	4.0	0.028	872.542	47.0	2	0.42	-1.0	12.1499	70.0	1.0	Outcome1	0.42	-2.06	0.0	No	n/a	2.48299319727891	n/a	n/a	n/a	ShowChoice	Mixed
312.622	1.0	0.012	876.554	47.0	2	0.42	-1.0	12.1499	70.0	1.0	Outcome1	0.42	-2.06	0.0	No	n/a	2.48299319727891	n/a	n/a	n/a	ShowResult	Mixed
313.641	2.0	0.019	877.573	47.0	2	0.42	-1.0	12.1499	70.0	1.0	Outcome1	0.42	-2.06	0.0	No	n/a	2.48299319727891	n/a	n/a	n/a	ISITrial	Mixed
315.664	3.0	0.023	879.596	48.0	2	-5.34	-2.67	11.4824	70.0	3.6	Outcome1	-5.34	11.9	2.83175	Yes	2.0	-17.2448979591837	1.689	317.353	n/a	GetAnswer	Loss
317.369	4.0	0.016	881.301	48.0	2	-5.34	-2.67	11.4824	70.0	3.6	Outcome1	-5.34	11.9	2.83175	Yes	n/a	-17.2448979591837	n/a	n/a	n/a	ShowChoice	Loss
321.381	1.0	0.012	885.313	48.0	2	-5.34	-2.67	11.4824	70.0	3.6	Outcome1	-5.34	11.9	2.83175	Yes	n/a	-17.2448979591837	n/a	n/a	n/a	ShowResult	Loss
322.401	3.692	0.02	886.333	48.0	2	-5.34	-2.67	11.4824	70.0	3.6	Outcome1	-5.34	11.9	2.83175	Yes	n/a	-17.2448979591837	n/a	n/a	n/a	ISITrial	Loss
326.112	2.832	0.019	890.044	48.0	2	-5.34	-2.67	11.4824	70.0	3.6	Outcome1	-5.34	11.9	2.83175	Yes	n/a	-17.2448979591837	n/a	n/a	n/a	TrialHappPreview	Loss
328.971	4.012	0.027	892.903	48.0	2	-5.34	-2.67	11.4824	70.0	3.6	Outcome1	-5.34	11.9	2.83175	Yes	n/a	-17.2448979591837	n/a	n/a	488.0	TrialHappiness	Loss
328.971	0.186	n/a	893.409	48.0	2	-5.34	-2.67	11.4824	70.0	3.6	Outcome1	-5.34	11.9	2.83175	Yes	n/a	-17.2448979591837	n/a	n/a	488.0	TrialHappinessSliderResponse	Loss
332.983	3.327	4.012	896.915	48.0	2	-5.34	-2.67	11.4824	70.0	3.6	Outcome1	-5.34	11.9	2.83175	Yes	n/a	-17.2448979591837	n/a	n/a	n/a	ISIRate	Loss
336.326	3.0	0.016	900.258	49.0	2	-9.15	0.0	10.3386	70.0	1.82	Outcome2	8.7	-9.15	0.0	No	2.0	-17.845804988662103	1.504	337.83	n/a	GetAnswer	Gain
337.847	4.0	0.017	901.779	49.0	2	-9.15	0.0	10.3386	70.0	1.82	Outcome2	8.7	-9.15	0.0	No	n/a	-17.845804988662103	n/a	n/a	n/a	ShowChoice	Gain
341.859	1.0	0.012	905.791	49.0	2	-9.15	0.0	10.3386	70.0	1.82	Outcome2	8.7	-9.15	0.0	No	n/a	-17.845804988662103	n/a	n/a	n/a	ShowResult	Gain
342.879	8.0	0.02	906.811	49.0	2	-9.15	0.0	10.3386	70.0	1.82	Outcome2	8.7	-9.15	0.0	No	n/a	-17.845804988662103	n/a	n/a	n/a	ISITrial	Gain
350.903	3.0	0.024	914.835	50.0	2	-14.42	-5.0	8.5361	70.0	1.2	Outcome2	3.9	-14.42	3.54725	Yes	2.0	-18.3197278911565	1.212	352.115	n/a	GetAnswer	Mixed
352.14	4.0	0.025	916.072	50.0	2	-14.42	-5.0	8.5361	70.0	1.2	Outcome2	3.9	-14.42	3.54725	Yes	n/a	-18.3197278911565	n/a	n/a	n/a	ShowChoice	Mixed
356.152	1.0	0.012	920.084	50.0	2	-14.42	-5.0	8.5361	70.0	1.2	Outcome2	3.9	-14.42	3.54725	Yes	n/a	-18.3197278911565	n/a	n/a	n/a	ShowResult	Mixed
357.172	7.537	0.02	921.104	50.0	2	-14.42	-5.0	8.5361	70.0	1.2	Outcome2	3.9	-14.42	3.54725	Yes	n/a	-18.3197278911565	n/a	n/a	n/a	ISITrial	Mixed
364.728	3.547	0.019	928.66	50.0	2	-14.42	-5.0	8.5361	70.0	1.2	Outcome2	3.9	-14.42	3.54725	Yes	n/a	-18.3197278911565	n/a	n/a	n/a	TrialHappPreview	Mixed
368.305	4.012	0.03	932.237	50.0	2	-14.42	-5.0	8.5361	70.0	1.2	Outcome2	3.9	-14.42	3.54725	Yes	n/a	-18.3197278911565	n/a	n/a	464.0	TrialHappiness	Mixed
368.306	0.81	n/a	932.623	50.0	2	-14.42	-5.0	8.5361	70.0	1.2	Outcome2	3.9	-14.42	3.54725	Yes	n/a	-18.3197278911565	n/a	n/a	464.0	TrialHappinessSliderResponse	Mixed
372.317	6.189	4.012	936.249	50.0	2	-14.42	-5.0	8.5361	70.0	1.2	Outcome2	3.9	-14.42	3.54725	Yes	n/a	-18.3197278911565	n/a	n/a	n/a	ISIRate	Mixed
378.536	3.0	0.03	942.468	51.0	2	-12.49	-3.0	6.9749	70.0	3.6	Outcome2	5.9	-12.49	0.0	No	2.0	-18.3854875283447	1.35	379.886	n/a	GetAnswer	Gain
379.907	4.0	0.021	943.839	51.0	2	-12.49	-3.0	6.9749	70.0	3.6	Outcome2	5.9	-12.49	0.0	No	n/a	-18.3854875283447	n/a	n/a	n/a	ShowChoice	Gain
383.919	1.0	0.012	947.851	51.0	2	-12.49	-3.0	6.9749	70.0	3.6	Outcome2	5.9	-12.49	0.0	No	n/a	-18.3854875283447	n/a	n/a	n/a	ShowResult	Gain
384.939	5.508	0.02	948.871	51.0	2	-12.49	-3.0	6.9749	70.0	3.6	Outcome2	5.9	-12.49	0.0	No	n/a	-18.3854875283447	n/a	n/a	n/a	ISITrial	Gain
390.472	3.0	0.025	954.404	52.0	2	-5.0	-5.0	6.3499	70.0	1.0	Certain	-15.13	3.7	0.0	No	4.0	-18.8321995464853	1.373	391.845	n/a	GetAnswer	Mixed
391.859	4.0	0.014	955.791	52.0	2	-5.0	-5.0	6.3499	70.0	1.0	Certain	-15.13	3.7	0.0	No	n/a	-18.8321995464853	n/a	n/a	n/a	ShowChoice	Mixed
395.871	1.0	0.012	959.803	52.0	2	-5.0	-5.0	6.3499	70.0	1.0	Certain	-15.13	3.7	0.0	No	n/a	-18.8321995464853	n/a	n/a	n/a	ShowResult	Mixed
396.891	5.913	0.02	960.823	52.0	2	-5.0	-5.0	6.3499	70.0	1.0	Certain	-15.13	3.7	0.0	No	n/a	-18.8321995464853	n/a	n/a	n/a	ISITrial	Mixed
402.826	3.0	0.022	966.758	53.0	2	1.08	0.0	6.4849	70.0	2.0	Outcome2	-1.57	1.08	2.99675	Yes	2.0	2.64890400604686	1.073	403.899	n/a	GetAnswer	Mixed
403.912	4.0	0.013	967.844	53.0	2	1.08	0.0	6.4849	70.0	2.0	Outcome2	-1.57	1.08	2.99675	Yes	n/a	2.64890400604686	n/a	n/a	n/a	ShowChoice	Mixed
407.924	1.0	0.012	971.856	53.0	2	1.08	0.0	6.4849	70.0	2.0	Outcome2	-1.57	1.08	2.99675	Yes	n/a	2.64890400604686	n/a	n/a	n/a	ShowResult	Mixed
408.944	3.66	0.02	972.876	53.0	2	1.08	0.0	6.4849	70.0	2.0	Outcome2	-1.57	1.08	2.99675	Yes	n/a	2.64890400604686	n/a	n/a	n/a	ISITrial	Mixed
412.622	2.997	0.018	976.554	53.0	2	1.08	0.0	6.4849	70.0	2.0	Outcome2	-1.57	1.08	2.99675	Yes	n/a	2.64890400604686	n/a	n/a	n/a	TrialHappPreview	Mixed
415.647	4.012	0.028	979.579	53.0	2	1.08	0.0	6.4849	70.0	2.0	Outcome2	-1.57	1.08	2.99675	Yes	n/a	2.64890400604686	n/a	n/a	488.0	TrialHappiness	Mixed
415.648	2.141	n/a	979.904	53.0	2	1.08	0.0	6.4849	70.0	2.0	Outcome2	-1.57	1.08	2.99675	Yes	n/a	2.64890400604686	n/a	n/a	488.0	TrialHappinessSliderResponse	Mixed
419.659	3.987	4.012	983.591	53.0	2	1.08	0.0	6.4849	70.0	2.0	Outcome2	-1.57	1.08	2.99675	Yes	n/a	2.64890400604686	n/a	n/a	n/a	ISIRate	Mixed
423.671	3.0	0.025	987.603	54.0	2	-0.18	-1.0	6.4624	70.0	0.66	Outcome1	-0.18	-2.96	0.0	No	2.0	2.78363567649282	1.002	424.673	n/a	GetAnswer	Mixed
424.691	4.0	0.018	988.623	54.0	2	-0.18	-1.0	6.4624	70.0	0.66	Outcome1	-0.18	-2.96	0.0	No	n/a	2.78363567649282	n/a	n/a	n/a	ShowChoice	Mixed
428.703	1.0	0.012	992.635	54.0	2	-0.18	-1.0	6.4624	70.0	0.66	Outcome1	-0.18	-2.96	0.0	No	n/a	2.78363567649282	n/a	n/a	n/a	ShowResult	Mixed
429.723	8.0	0.02	993.655	54.0	2	-0.18	-1.0	6.4624	70.0	0.66	Outcome1	-0.18	-2.96	0.0	No	n/a	2.78363567649282	n/a	n/a	n/a	ISITrial	Mixed
463.726	1.036	n/a	1028.078	n/a	2	n/a	n/a	n/a	n/a	n/a	n/a	n/a	n/a	n/a	n/a	n/a	n/a	n/a	n/a	520.0	BlockStartHappinessSliderResponse	n/a
-65.73	-0.001	0.024	1001.679	n/a	3	n/a	n/a	n/a	n/a	n/a	n/a	n/a	n/a	n/a	n/a	{SPACE}	n/a	21.949	-43.781	n/a	Rest	n/a
-43.764	4.0	0.017	1023.645	n/a	3	n/a	n/a	n/a	n/a	n/a	n/a	n/a	n/a	n/a	n/a	n/a	n/a	n/a	n/a	n/a	BlockHappyPreview	n/a
-39.752	1.456	0.012	1027.657	n/a	3	n/a	n/a	n/a	n/a	n/a	n/a	n/a	n/a	n/a	n/a	n/a	n/a	n/a	n/a	520.0	BlockStartHappiness	n/a
-8.024	-0.001	0.013	1059.385	n/a	3	n/a	n/a	n/a	n/a	n/a	n/a	n/a	n/a	n/a	n/a	5.0	n/a	8.003	-0.021	n/a	ScanWait	n/a
0.0	10.0	0.021	1067.409	n/a	3	n/a	n/a	n/a	n/a	n/a	n/a	n/a	n/a	n/a	n/a	n/a	n/a	n/a	n/a	n/a	GetReady	n/a
10.014	3.0	0.014	1077.423	55.0	3	0.86	0.86	6.5699	955.0	2.22	Certain	9.1	1.71	2.53325	Yes	4.0	7.389580973952429	0.856	10.87	n/a	GetAnswer	Gain
10.883	4.0	0.013	1078.292	55.0	3	0.86	0.86	6.5699	955.0	2.22	Certain	9.1	1.71	2.53325	Yes	n/a	7.389580973952429	n/a	n/a	n/a	ShowChoice	Gain
14.895	1.0	0.012	1082.304	55.0	3	0.86	0.86	6.5699	955.0	2.22	Certain	9.1	1.71	2.53325	Yes	n/a	7.389580973952429	n/a	n/a	n/a	ShowResult	Gain
15.915	7.709	0.02	1083.324	55.0	3	0.86	0.86	6.5699	955.0	2.22	Certain	9.1	1.71	2.53325	Yes	n/a	7.389580973952429	n/a	n/a	n/a	ISITrial	Gain
23.638	2.533	0.014	1091.047	55.0	3	0.86	0.86	6.5699	955.0	2.22	Certain	9.1	1.71	2.53325	Yes	n/a	7.389580973952429	n/a	n/a	n/a	TrialHappPreview	Gain
26.196	4.012	0.025	1093.605	55.0	3	0.86	0.86	6.5699	955.0	2.22	Certain	9.1	1.71	2.53325	Yes	n/a	7.389580973952429	n/a	n/a	488.0	TrialHappiness	Gain
26.196	0.187	n/a	1094.127	55.0	3	0.86	0.86	6.5699	955.0	2.22	Certain	9.1	1.71	2.53325	Yes	n/a	7.389580973952429	n/a	n/a	488.0	TrialHappinessSliderResponse	Gain
30.208	2.133	4.012	1097.617	55.0	3	0.86	0.86	6.5699	955.0	2.22	Certain	9.1	1.71	2.53325	Yes	n/a	7.389580973952429	n/a	n/a	n/a	ISIRate	Gain
32.364	3.0	0.023	1099.773	56.0	3	6.7	2.0	7.4074	955.0	1.82	Outcome2	-1.73	6.7	0.0	No	2.0	8.42582106455266	1.149	33.513	n/a	GetAnswer	Gain
33.534	4.0	0.021	1100.943	56.0	3	6.7	2.0	7.4074	955.0	1.82	Outcome2	-1.73	6.7	0.0	No	n/a	8.42582106455266	n/a	n/a	n/a	ShowChoice	Gain
37.546	1.0	0.012	1104.955	56.0	3	6.7	2.0	7.4074	955.0	1.82	Outcome2	-1.73	6.7	0.0	No	n/a	8.42582106455266	n/a	n/a	n/a	ShowResult	Gain
38.566	4.697	0.02	1105.975	56.0	3	6.7	2.0	7.4074	955.0	1.82	Outcome2	-1.73	6.7	0.0	No	n/a	8.42582106455266	n/a	n/a	n/a	ISITrial	Gain
43.28	3.0	0.017	1110.689	57.0	3	6.1	1.0	8.1699	955.0	4.2	Outcome1	6.1	-2.85	0.0	No	2.0	8.95469988674972	1.018	44.298	n/a	GetAnswer	Gain
44.317	4.0	0.019	1111.726	57.0	3	6.1	1.0	8.1699	955.0	4.2	Outcome1	6.1	-2.85	0.0	No	n/a	8.95469988674972	n/a	n/a	n/a	ShowChoice	Gain
48.329	1.0	0.012	1115.738	57.0	3	6.1	1.0	8.1699	955.0	4.2	Outcome1	6.1	-2.85	0.0	No	n/a	8.95469988674972	n/a	n/a	n/a	ShowResult	Gain
49.348	4.291	0.019	1116.757	57.0	3	6.1	1.0	8.1699	955.0	4.2	Outcome1	6.1	-2.85	0.0	No	n/a	8.95469988674972	n/a	n/a	n/a	ISITrial	Gain
53.661	3.0	0.022	1121.07	58.0	3	12.7	1.61	9.7574	955.0	1.82	Outcome2	3.22	12.7	3.04575	Yes	2.0	9.48357870894677	1.007	54.668	n/a	GetAnswer	Loss
54.681	4.0	0.013	1122.09	58.0	3	12.7	1.61	9.7574	955.0	1.82	Outcome2	3.22	12.7	3.04575	Yes	n/a	9.48357870894677	n/a	n/a	n/a	ShowChoice	Loss
58.693	1.0	0.012	1126.102	58.0	3	12.7	1.61	9.7574	955.0	1.82	Outcome2	3.22	12.7	3.04575	Yes	n/a	9.48357870894677	n/a	n/a	n/a	ShowResult	Loss
59.713	2.037	0.02	1127.122	58.0	3	12.7	1.61	9.7574	955.0	1.82	Outcome2	3.22	12.7	3.04575	Yes	n/a	9.48357870894677	n/a	n/a	n/a	ISITrial	Loss
61.769	3.046	0.019	1129.178	58.0	3	12.7	1.61	9.7574	955.0	1.82	Outcome2	3.22	12.7	3.04575	Yes	n/a	9.48357870894677	n/a	n/a	n/a	TrialHappPreview	Loss
64.845	4.012	0.03	1132.254	58.0	3	12.7	1.61	9.7574	955.0	1.82	Outcome2	3.22	12.7	3.04575	Yes	n/a	9.48357870894677	n/a	n/a	488.0	TrialHappiness	Loss
64.846	1.047	n/a	1133.26	58.0	3	12.7	1.61	9.7574	955.0	1.82	Outcome2	3.22	12.7	3.04575	Yes	n/a	9.48357870894677	n/a	n/a	488.0	TrialHappinessSliderResponse	Loss
68.857	4.183	4.012	1136.266	58.0	3	12.7	1.61	9.7574	955.0	1.82	Outcome2	3.22	12.7	3.04575	Yes	n/a	9.48357870894677	n/a	n/a	n/a	ISIRate	Loss
73.07	3.0	0.03	1140.479	59.0	3	11.3	0.64	11.1699	955.0	2.48	Outcome1	11.3	1.29	0.0	No	2.0	10.0124575311438	0.952	74.022	n/a	GetAnswer	Loss
74.039	4.0	0.017	1141.448	59.0	3	11.3	0.64	11.1699	955.0	2.48	Outcome1	11.3	1.29	0.0	No	n/a	10.0124575311438	n/a	n/a	n/a	ShowChoice	Loss
78.051	1.0	0.012	1145.46	59.0	3	11.3	0.64	11.1699	955.0	2.48	Outcome1	11.3	1.29	0.0	No	n/a	10.0124575311438	n/a	n/a	n/a	ShowResult	Loss
79.071	5.064	0.02	1146.48	59.0	3	11.3	0.64	11.1699	955.0	2.48	Outcome1	11.3	1.29	0.0	No	n/a	10.0124575311438	n/a	n/a	n/a	ISITrial	Loss
84.153	3.0	0.018	1151.562	60.0	3	5.79	2.9	11.8937	955.0	3.6	Outcome2	7.9	5.79	3.5625	Yes	2.0	-2.1124952812382	0.855	85.008	n/a	GetAnswer	Gain
85.022	4.0	0.014	1152.431	60.0	3	5.79	2.9	11.8937	955.0	3.6	Outcome2	7.9	5.79	3.5625	Yes	n/a	-2.1124952812382	n/a	n/a	n/a	ShowChoice	Gain
89.034	1.0	0.012	1156.443	60.0	3	5.79	2.9	11.8937	955.0	3.6	Outcome2	7.9	5.79	3.5625	Yes	n/a	-2.1124952812382	n/a	n/a	n/a	ShowResult	Gain
90.054	8.0	0.02	1157.463	60.0	3	5.79	2.9	11.8937	955.0	3.6	Outcome2	7.9	5.79	3.5625	Yes	n/a	-2.1124952812382	n/a	n/a	n/a	ISITrial	Gain
98.078	3.562	0.024	1165.487	60.0	3	5.79	2.9	11.8937	955.0	3.6	Outcome2	7.9	5.79	3.5625	Yes	n/a	-2.1124952812382	n/a	n/a	n/a	TrialHappPreview	Gain
101.655	4.012	0.015	1169.064	60.0	3	5.79	2.9	11.8937	955.0	3.6	Outcome2	7.9	5.79	3.5625	Yes	n/a	-2.1124952812382	n/a	n/a	504.0	TrialHappiness	Gain
101.656	1.747	n/a	1169.463	60.0	3	5.79	2.9	11.8937	955.0	3.6	Outcome2	7.9	5.79	3.5625	Yes	n/a	-2.1124952812382	n/a	n/a	504.0	TrialHappinessSliderResponse	Gain
105.667	6.25	4.012	1173.076	60.0	3	5.79	2.9	11.8937	955.0	3.6	Outcome2	7.9	5.79	3.5625	Yes	n/a	-2.1124952812382	n/a	n/a	n/a	ISIRate	Gain
111.936	3.0	0.019	1179.345	61.0	3	9.9	-0.45	13.1312	955.0	3.6	Outcome2	-0.9	9.9	0.0	No	2.0	10.798414496036198	1.29	113.226	n/a	GetAnswer	Gain
113.24	4.0	0.014	1180.649	61.0	3	9.9	-0.45	13.1312	955.0	3.6	Outcome2	-0.9	9.9	0.0	No	n/a	10.798414496036198	n/a	n/a	n/a	ShowChoice	Gain
117.252	1.0	0.012	1184.661	61.0	3	9.9	-0.45	13.1312	955.0	3.6	Outcome2	-0.9	9.9	0.0	No	n/a	10.798414496036198	n/a	n/a	n/a	ShowResult	Gain
118.272	4.586	0.02	1185.681	61.0	3	9.9	-0.45	13.1312	955.0	3.6	Outcome2	-0.9	9.9	0.0	No	n/a	10.798414496036198	n/a	n/a	n/a	ISITrial	Gain
122.886	3.0	0.028	1190.295	62.0	3	7.3	1.0	14.0437	955.0	2.48	Outcome1	7.3	-4.01	3.74875	Yes	2.0	11.3091732729332	1.177	124.063	n/a	GetAnswer	Gain
124.089	4.0	0.026	1191.498	62.0	3	7.3	1.0	14.0437	955.0	2.48	Outcome1	7.3	-4.01	3.74875	Yes	n/a	11.3091732729332	n/a	n/a	n/a	ShowChoice	Gain
128.101	1.0	0.012	1195.51	62.0	3	7.3	1.0	14.0437	955.0	2.48	Outcome1	7.3	-4.01	3.74875	Yes	n/a	11.3091732729332	n/a	n/a	n/a	ShowResult	Gain
129.121	5.212	0.02	1196.53	62.0	3	7.3	1.0	14.0437	955.0	2.48	Outcome1	7.3	-4.01	3.74875	Yes	n/a	11.3091732729332	n/a	n/a	n/a	ISITrial	Gain
134.353	3.749	0.02	1201.762	62.0	3	7.3	1.0	14.0437	955.0	2.48	Outcome1	7.3	-4.01	3.74875	Yes	n/a	11.3091732729332	n/a	n/a	n/a	TrialHappPreview	Gain
138.131	4.013	0.029	1205.54	62.0	3	7.3	1.0	14.0437	955.0	2.48	Outcome1	7.3	-4.01	3.74875	Yes	n/a	11.3091732729332	n/a	n/a	492.0	TrialHappiness	Gain
138.132	0.135	n/a	1206.215	62.0	3	7.3	1.0	14.0437	955.0	2.48	Outcome1	7.3	-4.01	3.74875	Yes	n/a	11.3091732729332	n/a	n/a	492.0	TrialHappinessSliderResponse	Gain
142.144	6.995	4.013	1209.553	62.0	3	7.3	1.0	14.0437	955.0	2.48	Outcome1	7.3	-4.01	3.74875	Yes	n/a	11.3091732729332	n/a	n/a	n/a	ISIRate	Gain
149.165	3.0	0.026	1216.574	63.0	3	-6.0	-6.0	13.2937	955.0	1.5	Certain	-11.92	0.1	0.0	No	4.0	12.0237825594564	1.932	151.097	n/a	GetAnswer	Mixed
151.12	4.0	0.023	1218.529	63.0	3	-6.0	-6.0	13.2937	955.0	1.5	Certain	-11.92	0.1	0.0	No	n/a	12.0237825594564	n/a	n/a	n/a	ShowChoice	Mixed
155.133	1.0	0.013	1222.542	63.0	3	-6.0	-6.0	13.2937	955.0	1.5	Certain	-11.92	0.1	0.0	No	n/a	12.0237825594564	n/a	n/a	n/a	ShowResult	Mixed
156.152	5.595	0.019	1223.561	63.0	3	-6.0	-6.0	13.2937	955.0	1.5	Certain	-11.92	0.1	0.0	No	n/a	12.0237825594564	n/a	n/a	n/a	ISITrial	Mixed
161.769	3.0	0.022	1229.178	64.0	3	-4.0	-4.0	12.7937	955.0	1.5	Certain	-10.45	2.1	0.0	No	4.0	12.5481313703284	1.104	162.873	n/a	GetAnswer	Mixed
162.889	4.0	0.016	1230.298	64.0	3	-4.0	-4.0	12.7937	955.0	1.5	Certain	-10.45	2.1	0.0	No	n/a	12.5481313703284	n/a	n/a	n/a	ShowChoice	Mixed
166.901	1.0	0.012	1234.31	64.0	3	-4.0	-4.0	12.7937	955.0	1.5	Certain	-10.45	2.1	0.0	No	n/a	12.5481313703284	n/a	n/a	n/a	ShowResult	Mixed
167.921	5.47	0.02	1235.33	64.0	3	-4.0	-4.0	12.7937	955.0	1.5	Certain	-10.45	2.1	0.0	No	n/a	12.5481313703284	n/a	n/a	n/a	ISITrial	Mixed
173.421	3.0	0.03	1240.83	65.0	3	-0.28	-0.28	12.7587	955.0	1.68	Certain	12.5	-0.57	2.99675	Yes	4.0	13.0724801812005	0.928	174.349	n/a	GetAnswer	Loss
174.374	4.0	0.025	1241.783	65.0	3	-0.28	-0.28	12.7587	955.0	1.68	Certain	12.5	-0.57	2.99675	Yes	n/a	13.0724801812005	n/a	n/a	n/a	ShowChoice	Loss
178.386	1.0	0.012	1245.795	65.0	3	-0.28	-0.28	12.7587	955.0	1.68	Certain	12.5	-0.57	2.99675	Yes	n/a	13.0724801812005	n/a	n/a	n/a	ShowResult	Loss
179.405	3.344	0.019	1246.814	65.0	3	-0.28	-0.28	12.7587	955.0	1.68	Certain	12.5	-0.57	2.99675	Yes	n/a	13.0724801812005	n/a	n/a	n/a	ISITrial	Loss
182.765	2.997	0.016	1250.174	65.0	3	-0.28	-0.28	12.7587	955.0	1.68	Certain	12.5	-0.57	2.99675	Yes	n/a	13.0724801812005	n/a	n/a	n/a	TrialHappPreview	Loss
185.791	4.012	0.029	1253.2	65.0	3	-0.28	-0.28	12.7587	955.0	1.68	Certain	12.5	-0.57	2.99675	Yes	n/a	13.0724801812005	n/a	n/a	536.0	TrialHappiness	Loss
185.792	1.824	n/a	1254.359	65.0	3	-0.28	-0.28	12.7587	955.0	1.68	Certain	12.5	-0.57	2.99675	Yes	n/a	13.0724801812005	n/a	n/a	536.0	TrialHappinessSliderResponse	Loss
189.803	3.987	4.012	1257.212	65.0	3	-0.28	-0.28	12.7587	955.0	1.68	Certain	12.5	-0.57	2.99675	Yes	n/a	13.0724801812005	n/a	n/a	n/a	ISIRate	Loss
193.815	3.0	0.025	1261.224	66.0	3	9.92	4.96	13.9987	955.0	4.2	Outcome1	9.92	12.1	0.0	No	2.0	-2.17799169497924	1.031	194.846	n/a	GetAnswer	Loss
194.868	4.0	0.022	1262.277	66.0	3	9.92	4.96	13.9987	955.0	4.2	Outcome1	9.92	12.1	0.0	No	n/a	-2.17799169497924	n/a	n/a	n/a	ShowChoice	Loss
198.88	1.0	0.012	1266.289	66.0	3	9.92	4.96	13.9987	955.0	4.2	Outcome1	9.92	12.1	0.0	No	n/a	-2.17799169497924	n/a	n/a	n/a	ShowResult	Loss
199.9	3.959	0.02	1267.309	66.0	3	9.92	4.96	13.9987	955.0	4.2	Outcome1	9.92	12.1	0.0	No	n/a	-2.17799169497924	n/a	n/a	n/a	ISITrial	Loss
203.879	3.0	0.02	1271.288	67.0	3	1.0	1.0	14.1237	955.0	4.2	Certain	-5.22	8.1	2.9185	Yes	4.0	13.3238958097395	1.171	205.05	n/a	GetAnswer	Gain
205.066	4.0	0.016	1272.475	67.0	3	1.0	1.0	14.1237	955.0	4.2	Certain	-5.22	8.1	2.9185	Yes	n/a	13.3238958097395	n/a	n/a	n/a	ShowChoice	Gain
209.078	1.0	0.012	1276.487	67.0	3	1.0	1.0	14.1237	955.0	4.2	Certain	-5.22	8.1	2.9185	Yes	n/a	13.3238958097395	n/a	n/a	n/a	ShowResult	Gain
210.097	4.199	0.019	1277.506	67.0	3	1.0	1.0	14.1237	955.0	4.2	Certain	-5.22	8.1	2.9185	Yes	n/a	13.3238958097395	n/a	n/a	n/a	ISITrial	Gain
214.31	2.918	0.014	1281.719	67.0	3	1.0	1.0	14.1237	955.0	4.2	Certain	-5.22	8.1	2.9185	Yes	n/a	13.3238958097395	n/a	n/a	n/a	TrialHappPreview	Gain
217.252	4.012	0.024	1284.661	67.0	3	1.0	1.0	14.1237	955.0	4.2	Certain	-5.22	8.1	2.9185	Yes	n/a	13.3238958097395	n/a	n/a	532.0	TrialHappiness	Gain
217.253	0.128	n/a	1285.043	67.0	3	1.0	1.0	14.1237	955.0	4.2	Certain	-5.22	8.1	2.9185	Yes	n/a	13.3238958097395	n/a	n/a	532.0	TrialHappinessSliderResponse	Gain
221.264	3.674	4.012	1288.673	67.0	3	1.0	1.0	14.1237	955.0	4.2	Certain	-5.22	8.1	2.9185	Yes	n/a	13.3238958097395	n/a	n/a	n/a	ISIRate	Gain
224.959	3.0	0.021	1292.368	68.0	3	7.03	3.52	15.0025	955.0	2.48	Outcome1	7.03	9.3	0.0	No	2.0	-2.27331068327671	0.87	225.829	n/a	GetAnswer	Gain
225.845	4.0	0.016	1293.254	68.0	3	7.03	3.52	15.0025	955.0	2.48	Outcome1	7.03	9.3	0.0	No	n/a	-2.27331068327671	n/a	n/a	n/a	ShowChoice	Gain
229.857	1.0	0.012	1297.266	68.0	3	7.03	3.52	15.0025	955.0	2.48	Outcome1	7.03	9.3	0.0	No	n/a	-2.27331068327671	n/a	n/a	n/a	ShowResult	Gain
230.876	2.185	0.019	1298.285	68.0	3	7.03	3.52	15.0025	955.0	2.48	Outcome1	7.03	9.3	0.0	No	n/a	-2.27331068327671	n/a	n/a	n/a	ISITrial	Gain
233.083	3.0	0.022	1300.492	69.0	3	1.0	1.0	15.1275	955.0	5.0	Certain	-6.05	8.3	0.0	No	4.0	14.3454133635334	1.61	234.693	n/a	GetAnswer	Gain
234.705	4.0	0.012	1302.114	69.0	3	1.0	1.0	15.1275	955.0	5.0	Certain	-6.05	8.3	0.0	No	n/a	14.3454133635334	n/a	n/a	n/a	ShowChoice	Gain
238.717	1.0	0.012	1306.126	69.0	3	1.0	1.0	15.1275	955.0	5.0	Certain	-6.05	8.3	0.0	No	n/a	14.3454133635334	n/a	n/a	n/a	ShowResult	Gain
239.736	2.0	0.019	1307.145	69.0	3	1.0	1.0	15.1275	955.0	5.0	Certain	-6.05	8.3	0.0	No	n/a	14.3454133635334	n/a	n/a	n/a	ISITrial	Gain
241.759	3.0	0.023	1309.168	70.0	3	-6.0	-6.0	14.3775	955.0	0.82	Certain	1.5	-13.32	3.65125	Yes	4.0	14.8244620611552	2.633	244.392	n/a	GetAnswer	Mixed
244.417	4.0	0.025	1311.826	70.0	3	-6.0	-6.0	14.3775	955.0	0.82	Certain	1.5	-13.32	3.65125	Yes	n/a	14.8244620611552	n/a	n/a	n/a	ShowChoice	Mixed
248.429	1.0	0.012	1315.838	70.0	3	-6.0	-6.0	14.3775	955.0	0.82	Certain	1.5	-13.32	3.65125	Yes	n/a	14.8244620611552	n/a	n/a	n/a	ShowResult	Mixed
249.449	2.623	0.02	1316.858	70.0	3	-6.0	-6.0	14.3775	955.0	0.82	Certain	1.5	-13.32	3.65125	Yes	n/a	14.8244620611552	n/a	n/a	n/a	ISITrial	Mixed
252.09	3.651	0.018	1319.499	70.0	3	-6.0	-6.0	14.3775	955.0	0.82	Certain	1.5	-13.32	3.65125	Yes	n/a	14.8244620611552	n/a	n/a	n/a	TrialHappPreview	Mixed
255.768	4.012	0.027	1323.177	70.0	3	-6.0	-6.0	14.3775	955.0	0.82	Certain	1.5	-13.32	3.65125	Yes	n/a	14.8244620611552	n/a	n/a	536.0	TrialHappiness	Mixed
255.768	0.193	n/a	1323.509	70.0	3	-6.0	-6.0	14.3775	955.0	0.82	Certain	1.5	-13.32	3.65125	Yes	n/a	14.8244620611552	n/a	n/a	536.0	TrialHappinessSliderResponse	Mixed
259.78	6.605	4.012	1327.189	70.0	3	-6.0	-6.0	14.3775	955.0	0.82	Certain	1.5	-13.32	3.65125	Yes	n/a	14.8244620611552	n/a	n/a	n/a	ISIRate	Mixed
266.416	3.0	0.031	1333.825	71.0	3	13.5	-0.87	16.065	955.0	2.8	Outcome1	13.5	-1.74	0.0	No	2.0	15.2355605889015	1.01	267.426	n/a	GetAnswer	Loss
267.453	4.0	0.027	1334.862	71.0	3	13.5	-0.87	16.065	955.0	2.8	Outcome1	13.5	-1.74	0.0	No	n/a	15.2355605889015	n/a	n/a	n/a	ShowChoice	Loss
271.465	1.0	0.012	1338.874	71.0	3	13.5	-0.87	16.065	955.0	2.8	Outcome1	13.5	-1.74	0.0	No	n/a	15.2355605889015	n/a	n/a	n/a	ShowResult	Loss
272.485	5.499	0.02	1339.894	71.0	3	13.5	-0.87	16.065	955.0	2.8	Outcome1	13.5	-1.74	0.0	No	n/a	15.2355605889015	n/a	n/a	n/a	ISITrial	Loss
278.001	3.0	0.017	1345.41	72.0	3	-4.0	-4.0	15.565	955.0	0.82	Certain	-12.21	3.5	3.0805	Yes	4.0	15.7100792751982	1.798	279.799	n/a	GetAnswer	Mixed
279.823	4.0	0.024	1347.232	72.0	3	-4.0	-4.0	15.565	955.0	0.82	Certain	-12.21	3.5	3.0805	Yes	n/a	15.7100792751982	n/a	n/a	n/a	ShowChoice	Mixed
283.835	1.0	0.012	1351.244	72.0	3	-4.0	-4.0	15.565	955.0	0.82	Certain	-12.21	3.5	3.0805	Yes	n/a	15.7100792751982	n/a	n/a	n/a	ShowResult	Mixed
284.855	5.672	0.02	1352.264	72.0	3	-4.0	-4.0	15.565	955.0	0.82	Certain	-12.21	3.5	3.0805	Yes	n/a	15.7100792751982	n/a	n/a	n/a	ISITrial	Mixed
290.539	3.08	0.012	1357.948	72.0	3	-4.0	-4.0	15.565	955.0	0.82	Certain	-12.21	3.5	3.0805	Yes	n/a	15.7100792751982	n/a	n/a	n/a	TrialHappPreview	Mixed
293.648	4.012	0.029	1361.057	72.0	3	-4.0	-4.0	15.565	955.0	0.82	Certain	-12.21	3.5	3.0805	Yes	n/a	15.7100792751982	n/a	n/a	532.0	TrialHappiness	Mixed
293.649	0.148	n/a	1362.075	72.0	3	-4.0	-4.0	15.565	955.0	0.82	Certain	-12.21	3.5	3.0805	Yes	n/a	15.7100792751982	n/a	n/a	532.0	TrialHappinessSliderResponse	Mixed
297.66	4.322	4.012	1365.069	72.0	3	-4.0	-4.0	15.565	955.0	0.82	Certain	-12.21	3.5	3.0805	Yes	n/a	15.7100792751982	n/a	n/a	n/a	ISIRate	Mixed
302.006	3.0	0.024	1369.415	73.0	3	0.7	-7.0	15.6525	955.0	0.3	Outcome1	0.7	-15.55	0.0	No	2.0	16.2525481313703	1.445	303.451	n/a	GetAnswer	Mixed
303.478	4.0	0.027	1370.887	73.0	3	0.7	-7.0	15.6525	955.0	0.3	Outcome1	0.7	-15.55	0.0	No	n/a	16.2525481313703	n/a	n/a	n/a	ShowChoice	Mixed
307.49	1.0	0.012	1374.899	73.0	3	0.7	-7.0	15.6525	955.0	0.3	Outcome1	0.7	-15.55	0.0	No	n/a	16.2525481313703	n/a	n/a	n/a	ShowResult	Mixed
308.509	4.616	0.019	1375.918	73.0	3	0.7	-7.0	15.6525	955.0	0.3	Outcome1	0.7	-15.55	0.0	No	n/a	16.2525481313703	n/a	n/a	n/a	ISITrial	Mixed
313.157	3.0	0.032	1380.566	74.0	3	8.99	4.5	16.7763	955.0	2.8	Outcome2	11.5	8.99	3.05625	Yes	2.0	-2.51208003020008	1.284	314.441	n/a	GetAnswer	Loss
314.46	4.0	0.019	1381.869	74.0	3	8.99	4.5	16.7763	955.0	2.8	Outcome2	11.5	8.99	3.05625	Yes	n/a	-2.51208003020008	n/a	n/a	n/a	ShowChoice	Loss
318.472	1.0	0.012	1385.881	74.0	3	8.99	4.5	16.7763	955.0	2.8	Outcome2	11.5	8.99	3.05625	Yes	n/a	-2.51208003020008	n/a	n/a	n/a	ShowResult	Loss
319.492	3.909	0.02	1386.901	74.0	3	8.99	4.5	16.7763	955.0	2.8	Outcome2	11.5	8.99	3.05625	Yes	n/a	-2.51208003020008	n/a	n/a	n/a	ISITrial	Loss
323.421	3.056	0.02	1390.83	74.0	3	8.99	4.5	16.7763	955.0	2.8	Outcome2	11.5	8.99	3.05625	Yes	n/a	-2.51208003020008	n/a	n/a	n/a	TrialHappPreview	Loss
326.497	4.012	0.02	1393.906	74.0	3	8.99	4.5	16.7763	955.0	2.8	Outcome2	11.5	8.99	3.05625	Yes	n/a	-2.51208003020008	n/a	n/a	536.0	TrialHappiness	Loss
326.497	1.47	n/a	1394.801	74.0	3	8.99	4.5	16.7763	955.0	2.8	Outcome2	11.5	8.99	3.05625	Yes	n/a	-2.51208003020008	n/a	n/a	536.0	TrialHappinessSliderResponse	Loss
330.509	4.225	4.012	1397.918	74.0	3	8.99	4.5	16.7763	955.0	2.8	Outcome2	11.5	8.99	3.05625	Yes	n/a	-2.51208003020008	n/a	n/a	n/a	ISIRate	Loss
334.755	3.0	0.021	1402.164	75.0	3	-9.0	-9.0	15.6513	955.0	1.0	Certain	-17.44	-0.3	0.0	No	4.0	17.1426953567384	1.761	336.516	n/a	GetAnswer	Mixed
336.543	4.0	0.027	1403.952	75.0	3	-9.0	-9.0	15.6513	955.0	1.0	Certain	-17.44	-0.3	0.0	No	n/a	17.1426953567384	n/a	n/a	n/a	ShowChoice	Mixed
340.555	1.0	0.012	1407.964	75.0	3	-9.0	-9.0	15.6513	955.0	1.0	Certain	-17.44	-0.3	0.0	No	n/a	17.1426953567384	n/a	n/a	n/a	ShowResult	Mixed
341.575	4.979	0.02	1408.984	75.0	3	-9.0	-9.0	15.6513	955.0	1.0	Certain	-17.44	-0.3	0.0	No	n/a	17.1426953567384	n/a	n/a	n/a	ISITrial	Mixed
346.573	3.0	0.019	1413.982	76.0	3	-7.0	-7.0	14.7763	955.0	0.66	Certain	1.3	-16.32	0.0	No	4.0	17.6172140430351	1.626	348.199	n/a	GetAnswer	Mixed
348.212	4.0	0.013	1415.621	76.0	3	-7.0	-7.0	14.7763	955.0	0.66	Certain	1.3	-16.32	0.0	No	n/a	17.6172140430351	n/a	n/a	n/a	ShowChoice	Mixed
352.224	1.0	0.012	1419.633	76.0	3	-7.0	-7.0	14.7763	955.0	0.66	Certain	1.3	-16.32	0.0	No	n/a	17.6172140430351	n/a	n/a	n/a	ShowResult	Mixed
353.243	3.931	0.019	1420.652	76.0	3	-7.0	-7.0	14.7763	955.0	0.66	Certain	1.3	-16.32	0.0	No	n/a	17.6172140430351	n/a	n/a	n/a	ISITrial	Mixed
357.205	3.0	0.031	1424.614	77.0	3	11.09	5.54	16.1625	955.0	3.16	Outcome2	13.7	11.09	4.0	Yes	2.0	-2.6148546621366604	1.112	358.317	n/a	GetAnswer	Loss
358.342	4.0	0.025	1425.751	77.0	3	11.09	5.54	16.1625	955.0	3.16	Outcome2	13.7	11.09	4.0	Yes	n/a	-2.6148546621366604	n/a	n/a	n/a	ShowChoice	Loss
362.354	1.0	0.012	1429.763	77.0	3	11.09	5.54	16.1625	955.0	3.16	Outcome2	13.7	11.09	4.0	Yes	n/a	-2.6148546621366604	n/a	n/a	n/a	ShowResult	Loss
363.374	7.022	0.02	1430.783	77.0	3	11.09	5.54	16.1625	955.0	3.16	Outcome2	13.7	11.09	4.0	Yes	n/a	-2.6148546621366604	n/a	n/a	n/a	ISITrial	Loss
370.412	4.0	0.016	1437.821	77.0	3	11.09	5.54	16.1625	955.0	3.16	Outcome2	13.7	11.09	4.0	Yes	n/a	-2.6148546621366604	n/a	n/a	n/a	TrialHappPreview	Loss
374.44	4.012	0.028	1441.849	77.0	3	11.09	5.54	16.1625	955.0	3.16	Outcome2	13.7	11.09	4.0	Yes	n/a	-2.6148546621366604	n/a	n/a	536.0	TrialHappiness	Loss
374.441	0.19	n/a	1442.186	77.0	3	11.09	5.54	16.1625	955.0	3.16	Outcome2	13.7	11.09	4.0	Yes	n/a	-2.6148546621366604	n/a	n/a	536.0	TrialHappinessSliderResponse	Loss
378.452	8.0	4.012	1445.861	77.0	3	11.09	5.54	16.1625	955.0	3.16	Outcome2	13.7	11.09	4.0	Yes	n/a	-2.6148546621366604	n/a	n/a	n/a	ISIRate	Loss
386.476	3.0	0.024	1453.885	78.0	3	-7.0	-7.0	15.2875	955.0	1.2	Certain	-16.67	1.9	0.0	No	4.0	18.5662514156285	1.066	387.542	n/a	GetAnswer	Mixed
387.563	4.0	0.021	1454.972	78.0	3	-7.0	-7.0	15.2875	955.0	1.2	Certain	-16.67	1.9	0.0	No	n/a	18.5662514156285	n/a	n/a	n/a	ShowChoice	Mixed
391.575	1.0	0.012	1458.984	78.0	3	-7.0	-7.0	15.2875	955.0	1.2	Certain	-16.67	1.9	0.0	No	n/a	18.5662514156285	n/a	n/a	n/a	ShowResult	Mixed
392.595	2.078	0.02	1460.004	78.0	3	-7.0	-7.0	15.2875	955.0	1.2	Certain	-16.67	1.9	0.0	No	n/a	18.5662514156285	n/a	n/a	n/a	ISITrial	Mixed
394.701	3.0	0.028	1462.11	79.0	3	3.61	1.8	15.7387	955.0	5.0	Outcome1	3.61	6.3	2.7295	Yes	2.0	-2.69394110985277	1.279	395.98	n/a	GetAnswer	Gain
396.005	4.0	0.025	1463.414	79.0	3	3.61	1.8	15.7387	955.0	5.0	Outcome1	3.61	6.3	2.7295	Yes	n/a	-2.69394110985277	n/a	n/a	n/a	ShowChoice	Gain
400.017	1.0	0.012	1467.426	79.0	3	3.61	1.8	15.7387	955.0	5.0	Outcome1	3.61	6.3	2.7295	Yes	n/a	-2.69394110985277	n/a	n/a	n/a	ShowResult	Gain
401.037	3.829	0.02	1468.446	79.0	3	3.61	1.8	15.7387	955.0	5.0	Outcome1	3.61	6.3	2.7295	Yes	n/a	-2.69394110985277	n/a	n/a	n/a	ISITrial	Gain
404.882	2.73	0.016	1472.291	79.0	3	3.61	1.8	15.7387	955.0	5.0	Outcome1	3.61	6.3	2.7295	Yes	n/a	-2.69394110985277	n/a	n/a	n/a	TrialHappPreview	Gain
407.64	4.012	0.028	1475.049	79.0	3	3.61	1.8	15.7387	955.0	5.0	Outcome1	3.61	6.3	2.7295	Yes	n/a	-2.69394110985277	n/a	n/a	544.0	TrialHappiness	Gain
407.641	0.208	n/a	1475.568	79.0	3	3.61	1.8	15.7387	955.0	5.0	Outcome1	3.61	6.3	2.7295	Yes	n/a	-2.69394110985277	n/a	n/a	544.0	TrialHappinessSliderResponse	Gain
411.652	2.918	4.012	1479.061	79.0	3	3.61	1.8	15.7387	955.0	5.0	Outcome1	3.61	6.3	2.7295	Yes	n/a	-2.69394110985277	n/a	n/a	n/a	ISIRate	Gain
414.594	3.0	0.024	1482.003	80.0	3	-9.0	-9.0	14.6137	955.0	0.3	Certain	0.7	-18.68	0.0	No	4.0	19.379388448471104	1.489	416.083	n/a	GetAnswer	Mixed
416.099	4.0	0.016	1483.508	80.0	3	-9.0	-9.0	14.6137	955.0	0.3	Certain	0.7	-18.68	0.0	No	n/a	19.379388448471104	n/a	n/a	n/a	ShowChoice	Mixed
420.111	1.0	0.012	1487.52	80.0	3	-9.0	-9.0	14.6137	955.0	0.3	Certain	0.7	-18.68	0.0	No	n/a	19.379388448471104	n/a	n/a	n/a	ShowResult	Mixed
421.13	3.336	0.019	1488.539	80.0	3	-9.0	-9.0	14.6137	955.0	0.3	Certain	0.7	-18.68	0.0	No	n/a	19.379388448471104	n/a	n/a	n/a	ISITrial	Mixed
424.491	3.0	0.025	1491.9	81.0	3	0.56	2.0	14.6837	955.0	0.66	Outcome2	3.3	0.56	3.92375	Yes	2.0	-2.73980747451869	1.311	425.802	n/a	GetAnswer	Mixed
425.828	4.0	0.026	1493.237	81.0	3	0.56	2.0	14.6837	955.0	0.66	Outcome2	3.3	0.56	3.92375	Yes	n/a	-2.73980747451869	n/a	n/a	n/a	ShowChoice	Mixed
429.84	1.0	0.012	1497.249	81.0	3	0.56	2.0	14.6837	955.0	0.66	Outcome2	3.3	0.56	3.92375	Yes	n/a	-2.73980747451869	n/a	n/a	n/a	ShowResult	Mixed
430.86	3.919	0.02	1498.269	81.0	3	0.56	2.0	14.6837	955.0	0.66	Outcome2	3.3	0.56	3.92375	Yes	n/a	-2.73980747451869	n/a	n/a	n/a	ISITrial	Mixed
434.805	3.924	0.026	1502.214	81.0	3	0.56	2.0	14.6837	955.0	0.66	Outcome2	3.3	0.56	3.92375	Yes	n/a	-2.73980747451869	n/a	n/a	n/a	TrialHappPreview	Mixed
438.75	4.029	0.021	1506.159	81.0	3	0.56	2.0	14.6837	955.0	0.66	Outcome2	3.3	0.56	3.92375	Yes	n/a	-2.73980747451869	n/a	n/a	552.0	TrialHappiness	Mixed
438.751	0.223	n/a	1506.462	81.0	3	0.56	2.0	14.6837	955.0	0.66	Outcome2	3.3	0.56	3.92375	Yes	n/a	-2.73980747451869	n/a	n/a	552.0	TrialHappinessSliderResponse	Mixed
442.779	7.695	4.029	1510.188	81.0	3	0.56	2.0	14.6837	955.0	0.66	Outcome2	3.3	0.56	3.92375	Yes	n/a	-2.73980747451869	n/a	n/a	n/a	ISIRate	Mixed
450.502	3.0	0.028	1517.911	n/a	3	n/a	n/a	n/a	n/a	n/a	n/a	n/a	n/a	n/a	n/a	n/a	n/a	n/a	n/a	n/a	CurrentEarnings	n/a
453.528	-0.001	0.026	1520.937	n/a	3	n/a	n/a	n/a	n/a	n/a	n/a	n/a	n/a	n/a	n/a	2.0	n/a	26.897	480.425	n/a	Goodbye	n/a
