onset	duration	onset_delay	onset_unadjusted	trial_number	block	amount_change	certain_amount	current_amount	mood_target	multiplier	outcome	outcome1_amount	outcome2_amount	question_duration	rating	response	rpe	rt	rt_time	slider_response	trial_phase	trial_type
-44.4	-0.001	0.022	28.262	n/a	0	n/a	n/a	n/a	n/a	n/a	n/a	n/a	n/a	n/a	n/a	{SPACE}	n/a	12.417	-31.983	n/a	Welcome	n/a
-31.963	5.0	0.02	40.699	n/a	0	n/a	n/a	n/a	n/a	n/a	n/a	n/a	n/a	n/a	n/a	n/a	n/a	n/a	n/a	n/a	LifeHappyPreview	n/a
-26.931	4.894	0.032	45.731	n/a	0	n/a	n/a	n/a	n/a	n/a	n/a	n/a	n/a	n/a	n/a	n/a	n/a	n/a	n/a	656.0	LifeHappiness	n/a
-26.931	2.923	n/a	47.702	n/a	0	n/a	n/a	n/a	n/a	n/a	n/a	n/a	n/a	n/a	n/a	n/a	n/a	n/a	n/a	656.0	LifeHappinessSliderResponse	n/a
-15.43	4.0	0.026	57.232	n/a	0	n/a	n/a	n/a	n/a	n/a	n/a	n/a	n/a	n/a	n/a	n/a	n/a	n/a	n/a	n/a	BlockHappyPreview	n/a
-11.418	3.3	0.012	61.244	n/a	0	n/a	n/a	n/a	n/a	n/a	n/a	n/a	n/a	n/a	n/a	n/a	n/a	n/a	n/a	488.0	BlockStartHappiness	n/a
-11.417	2.473	n/a	62.072	n/a	0	n/a	n/a	n/a	n/a	n/a	n/a	n/a	n/a	n/a	n/a	n/a	n/a	n/a	n/a	488.0	BlockStartHappinessSliderResponse	n/a
-4.781	-0.001	0.019	67.881	n/a	0	n/a	n/a	n/a	n/a	n/a	n/a	n/a	n/a	n/a	n/a	5.0	n/a	4.758	-0.023	n/a	ScanWait	n/a
0.0	10.0	0.023	72.662	n/a	1	n/a	n/a	n/a	n/a	n/a	n/a	n/a	n/a	n/a	n/a	n/a	n/a	n/a	n/a	n/a	GetReady	n/a
10.03	3.0	0.03	82.692	1.0	1	2.6	1.3	10.325	955.0	1.68	Outcome1	2.6	4.5	0.0	No	2.0	-1.89514911287278	2.263	12.293	n/a	GetAnswer	Gain
12.32	4.0	0.027	84.982	1.0	1	2.6	1.3	10.325	955.0	1.68	Outcome1	2.6	4.5	0.0	No	n/a	-1.89514911287278	n/a	n/a	n/a	ShowChoice	Gain
16.349	1.0	0.029	89.011	1.0	1	2.6	1.3	10.325	955.0	1.68	Outcome1	2.6	4.5	0.0	No	n/a	-1.89514911287278	n/a	n/a	n/a	ShowResult	Gain
17.368	2.431	0.019	90.03	1.0	1	2.6	1.3	10.325	955.0	1.68	Outcome1	2.6	4.5	0.0	No	n/a	-1.89514911287278	n/a	n/a	n/a	ISITrial	Gain
19.826	3.0	0.027	92.488	2.0	1	2.5	-1.0	10.6375	955.0	0.2	Outcome2	-5.96	2.5	0.0	No	2.0	8.46206115515289	2.383	22.209	n/a	GetAnswer	Mixed
22.233	4.0	0.024	94.895	2.0	1	2.5	-1.0	10.6375	955.0	0.2	Outcome2	-5.96	2.5	0.0	No	n/a	8.46206115515289	n/a	n/a	n/a	ShowChoice	Mixed
26.262	1.0	0.029	98.924	2.0	1	2.5	-1.0	10.6375	955.0	0.2	Outcome2	-5.96	2.5	0.0	No	n/a	8.46206115515289	n/a	n/a	n/a	ShowResult	Mixed
27.281	4.568	0.019	99.943	2.0	1	2.5	-1.0	10.6375	955.0	0.2	Outcome2	-5.96	2.5	0.0	No	n/a	8.46206115515289	n/a	n/a	n/a	ISITrial	Mixed
31.878	3.0	0.029	104.54	3.0	1	-6.0	-6.0	9.8875	955.0	0.2	Certain	-1.5	-10.49	2.868	Yes	4.0	8.990939977349939	2.643	34.521	n/a	GetAnswer	Mixed
34.536	4.0	0.015	107.198	3.0	1	-6.0	-6.0	9.8875	955.0	0.2	Certain	-1.5	-10.49	2.868	Yes	n/a	8.990939977349939	n/a	n/a	n/a	ShowChoice	Mixed
38.565	1.0	0.029	111.227	3.0	1	-6.0	-6.0	9.8875	955.0	0.2	Certain	-1.5	-10.49	2.868	Yes	n/a	8.990939977349939	n/a	n/a	n/a	ShowResult	Mixed
39.585	3.243	0.02	112.247	3.0	1	-6.0	-6.0	9.8875	955.0	0.2	Certain	-1.5	-10.49	2.868	Yes	n/a	8.990939977349939	n/a	n/a	n/a	ISITrial	Mixed
42.845	2.868	0.017	115.507	3.0	1	-6.0	-6.0	9.8875	955.0	0.2	Certain	-1.5	-10.49	2.868	Yes	n/a	8.990939977349939	n/a	n/a	n/a	TrialHappPreview	Mixed
45.737	4.028	0.024	118.399	3.0	1	-6.0	-6.0	9.8875	955.0	0.2	Certain	-1.5	-10.49	2.868	Yes	n/a	8.990939977349939	n/a	n/a	496.0	TrialHappiness	Mixed
45.737	0.187	n/a	120.209	3.0	1	-6.0	-6.0	9.8875	955.0	0.2	Certain	-1.5	-10.49	2.868	Yes	n/a	8.990939977349939	n/a	n/a	496.0	TrialHappinessSliderResponse	Mixed
49.765	3.472	4.028	122.427	3.0	1	-6.0	-6.0	9.8875	955.0	0.2	Certain	-1.5	-10.49	2.868	Yes	n/a	8.990939977349939	n/a	n/a	n/a	ISIRate	Mixed
53.259	3.0	0.022	125.921	4.0	1	5.51	2.76	10.5763	955.0	2.8	Outcome2	7.5	5.51	0.0	No	2.0	-1.99490373725934	1.566	54.825	n/a	GetAnswer	Gain
54.847	4.0	0.022	127.509	4.0	1	5.51	2.76	10.5763	955.0	2.8	Outcome2	7.5	5.51	0.0	No	n/a	-1.99490373725934	n/a	n/a	n/a	ShowChoice	Gain
58.876	1.0	0.029	131.538	4.0	1	5.51	2.76	10.5763	955.0	2.8	Outcome2	7.5	5.51	0.0	No	n/a	-1.99490373725934	n/a	n/a	n/a	ShowResult	Gain
59.896	2.011	0.02	132.558	4.0	1	5.51	2.76	10.5763	955.0	2.8	Outcome2	7.5	5.51	0.0	No	n/a	-1.99490373725934	n/a	n/a	n/a	ISITrial	Gain
61.935	3.0	0.028	134.597	5.0	1	2.7	-2.0	10.9138	955.0	0.3	Outcome2	-7.2	2.7	2.5825	Yes	n/a	9.903737259343153	n/a	n/a	n/a	GetAnswer	Mixed
64.961	4.0	0.026	137.623	5.0	1	2.7	-2.0	10.9138	955.0	0.3	Outcome2	-7.2	2.7	2.5825	Yes	n/a	9.903737259343153	n/a	n/a	n/a	ShowChoice	Mixed
68.973	1.0	0.012	141.635	5.0	1	2.7	-2.0	10.9138	955.0	0.3	Outcome2	-7.2	2.7	2.5825	Yes	n/a	9.903737259343153	n/a	n/a	n/a	ShowResult	Mixed
69.993	5.129	0.02	142.655	5.0	1	2.7	-2.0	10.9138	955.0	0.3	Outcome2	-7.2	2.7	2.5825	Yes	n/a	9.903737259343153	n/a	n/a	n/a	ISITrial	Mixed
75.141	2.582	0.019	147.803	5.0	1	2.7	-2.0	10.9138	955.0	0.3	Outcome2	-7.2	2.7	2.5825	Yes	n/a	9.903737259343153	n/a	n/a	n/a	TrialHappPreview	Mixed
77.749	4.029	0.026	150.411	5.0	1	2.7	-2.0	10.9138	955.0	0.3	Outcome2	-7.2	2.7	2.5825	Yes	n/a	9.903737259343153	n/a	n/a	512.0	TrialHappiness	Mixed
77.75	0.0	n/a	150.412	5.0	1	2.7	-2.0	10.9138	955.0	0.3	Outcome2	-7.2	2.7	2.5825	Yes	n/a	9.903737259343153	n/a	n/a	512.0	TrialHappinessSliderResponse	Mixed
81.778	2.33	4.029	154.44	5.0	1	2.7	-2.0	10.9138	955.0	0.3	Outcome2	-7.2	2.7	2.5825	Yes	n/a	9.903737259343153	n/a	n/a	n/a	ISIRate	Mixed
84.135	3.0	0.027	156.797	6.0	1	-6.0	-6.0	10.1638	955.0	0.52	Certain	-0.9	-11.05	0.0	No	4.0	10.1517553793884	1.556	85.691	n/a	GetAnswer	Mixed
85.706	4.0	0.015	158.368	6.0	1	-6.0	-6.0	10.1638	955.0	0.52	Certain	-0.9	-11.05	0.0	No	n/a	10.1517553793884	n/a	n/a	n/a	ShowChoice	Mixed
89.718	1.0	0.012	162.38	6.0	1	-6.0	-6.0	10.1638	955.0	0.52	Certain	-0.9	-11.05	0.0	No	n/a	10.1517553793884	n/a	n/a	n/a	ShowResult	Mixed
90.738	6.232	0.02	163.4	6.0	1	-6.0	-6.0	10.1638	955.0	0.52	Certain	-0.9	-11.05	0.0	No	n/a	10.1517553793884	n/a	n/a	n/a	ISITrial	Mixed
96.99	3.0	0.02	169.652	7.0	1	10.24	5.12	11.4438	955.0	5.0	Outcome1	10.24	12.3	0.0	No	2.0	-2.05841827104568	1.594	98.584	n/a	GetAnswer	Loss
98.612	4.0	0.028	171.274	7.0	1	10.24	5.12	11.4438	955.0	5.0	Outcome1	10.24	12.3	0.0	No	n/a	-2.05841827104568	n/a	n/a	n/a	ShowChoice	Loss
102.64	1.0	0.028	175.302	7.0	1	10.24	5.12	11.4438	955.0	5.0	Outcome1	10.24	12.3	0.0	No	n/a	-2.05841827104568	n/a	n/a	n/a	ShowResult	Loss
103.66	2.305	0.02	176.322	7.0	1	10.24	5.12	11.4438	955.0	5.0	Outcome1	10.24	12.3	0.0	No	n/a	-2.05841827104568	n/a	n/a	n/a	ISITrial	Loss
105.984	3.0	0.019	178.646	8.0	1	5.6	2.8	12.1438	955.0	3.16	Outcome1	5.6	7.7	3.1125	Yes	2.0	-2.10022650056625	1.519	107.503	n/a	GetAnswer	Gain
107.522	4.0	0.019	180.184	8.0	1	5.6	2.8	12.1438	955.0	3.16	Outcome1	5.6	7.7	3.1125	Yes	n/a	-2.10022650056625	n/a	n/a	n/a	ShowChoice	Gain
111.551	1.0	0.029	184.213	8.0	1	5.6	2.8	12.1438	955.0	3.16	Outcome1	5.6	7.7	3.1125	Yes	n/a	-2.10022650056625	n/a	n/a	n/a	ShowResult	Gain
112.57	3.506	0.019	185.232	8.0	1	5.6	2.8	12.1438	955.0	3.16	Outcome1	5.6	7.7	3.1125	Yes	n/a	-2.10022650056625	n/a	n/a	n/a	ISITrial	Gain
116.097	3.112	0.021	188.759	8.0	1	5.6	2.8	12.1438	955.0	3.16	Outcome1	5.6	7.7	3.1125	Yes	n/a	-2.10022650056625	n/a	n/a	n/a	TrialHappPreview	Gain
119.24	4.029	0.031	191.902	8.0	1	5.6	2.8	12.1438	955.0	3.16	Outcome1	5.6	7.7	3.1125	Yes	n/a	-2.10022650056625	n/a	n/a	512.0	TrialHappiness	Gain
119.241	0.0	n/a	191.903	8.0	1	5.6	2.8	12.1438	955.0	3.16	Outcome1	5.6	7.7	3.1125	Yes	n/a	-2.10022650056625	n/a	n/a	512.0	TrialHappinessSliderResponse	Gain
123.269	4.45	4.029	195.931	8.0	1	5.6	2.8	12.1438	955.0	3.16	Outcome1	5.6	7.7	3.1125	Yes	n/a	-2.10022650056625	n/a	n/a	n/a	ISIRate	Gain
127.749	3.0	0.03	200.411	9.0	1	-3.0	-3.0	11.7688	955.0	1.5	Certain	2.1	-9.56	0.0	No	4.0	11.6568516421291	1.968	129.717	n/a	GetAnswer	Mixed
129.738	4.0	0.021	202.4	9.0	1	-3.0	-3.0	11.7688	955.0	1.5	Certain	2.1	-9.56	0.0	No	n/a	11.6568516421291	n/a	n/a	n/a	ShowChoice	Mixed
133.767	1.0	0.029	206.429	9.0	1	-3.0	-3.0	11.7688	955.0	1.5	Certain	2.1	-9.56	0.0	No	n/a	11.6568516421291	n/a	n/a	n/a	ShowResult	Mixed
134.787	2.0	0.02	207.449	9.0	1	-3.0	-3.0	11.7688	955.0	1.5	Certain	2.1	-9.56	0.0	No	n/a	11.6568516421291	n/a	n/a	n/a	ISITrial	Mixed
136.81	3.0	0.023	209.472	10.0	1	-1.28	0.0	11.6088	955.0	0.4	Outcome1	-1.28	0.9	4.0	Yes	n/a	-2.1838429596074	n/a	n/a	n/a	GetAnswer	Mixed
139.835	4.0	0.025	212.497	10.0	1	-1.28	0.0	11.6088	955.0	0.4	Outcome1	-1.28	0.9	4.0	Yes	n/a	-2.1838429596074	n/a	n/a	n/a	ShowChoice	Mixed
143.864	1.0	0.029	216.526	10.0	1	-1.28	0.0	11.6088	955.0	0.4	Outcome1	-1.28	0.9	4.0	Yes	n/a	-2.1838429596074	n/a	n/a	n/a	ShowResult	Mixed
144.884	2.0	0.02	217.546	10.0	1	-1.28	0.0	11.6088	955.0	0.4	Outcome1	-1.28	0.9	4.0	Yes	n/a	-2.1838429596074	n/a	n/a	n/a	ISITrial	Mixed
146.906	4.0	0.022	219.568	10.0	1	-1.28	0.0	11.6088	955.0	0.4	Outcome1	-1.28	0.9	4.0	Yes	n/a	-2.1838429596074	n/a	n/a	n/a	TrialHappPreview	Mixed
150.935	4.029	0.029	223.597	10.0	1	-1.28	0.0	11.6088	955.0	0.4	Outcome1	-1.28	0.9	4.0	Yes	n/a	-2.1838429596074	n/a	n/a	512.0	TrialHappiness	Mixed
150.936	1.452	n/a	223.971	10.0	1	-1.28	0.0	11.6088	955.0	0.4	Outcome1	-1.28	0.9	4.0	Yes	n/a	-2.1838429596074	n/a	n/a	512.0	TrialHappinessSliderResponse	Mixed
154.964	8.0	4.029	227.626	10.0	1	-1.28	0.0	11.6088	955.0	0.4	Outcome1	-1.28	0.9	4.0	Yes	n/a	-2.1838429596074	n/a	n/a	n/a	ISIRate	Mixed
162.988	3.0	0.024	235.65	11.0	1	6.7	0.0	12.4463	955.0	1.82	Outcome2	-5.96	6.7	0.0	No	2.0	12.6602491506229	1.971	164.959	n/a	GetAnswer	Gain
164.977	4.0	0.018	237.639	11.0	1	6.7	0.0	12.4463	955.0	1.82	Outcome2	-5.96	6.7	0.0	No	n/a	12.6602491506229	n/a	n/a	n/a	ShowChoice	Gain
169.006	1.0	0.029	241.668	11.0	1	6.7	0.0	12.4463	955.0	1.82	Outcome2	-5.96	6.7	0.0	No	n/a	12.6602491506229	n/a	n/a	n/a	ShowResult	Gain
170.026	3.324	0.02	242.688	11.0	1	6.7	0.0	12.4463	955.0	1.82	Outcome2	-5.96	6.7	0.0	No	n/a	12.6602491506229	n/a	n/a	n/a	ISITrial	Gain
173.369	3.0	0.019	246.031	12.0	1	0.0	0.0	12.4463	955.0	3.6	Certain	-7.26	5.9	2.61875	Yes	4.0	13.1619479048698	1.905	175.274	n/a	GetAnswer	Gain
175.292	4.0	0.018	247.954	12.0	1	0.0	0.0	12.4463	955.0	3.6	Certain	-7.26	5.9	2.61875	Yes	n/a	13.1619479048698	n/a	n/a	n/a	ShowChoice	Gain
179.32	1.0	0.028	251.982	12.0	1	0.0	0.0	12.4463	955.0	3.6	Certain	-7.26	5.9	2.61875	Yes	n/a	13.1619479048698	n/a	n/a	n/a	ShowResult	Gain
180.34	6.642	0.02	253.002	12.0	1	0.0	0.0	12.4463	955.0	3.6	Certain	-7.26	5.9	2.61875	Yes	n/a	13.1619479048698	n/a	n/a	n/a	ISITrial	Gain
187.01	2.619	0.028	259.672	12.0	1	0.0	0.0	12.4463	955.0	3.6	Certain	-7.26	5.9	2.61875	Yes	n/a	13.1619479048698	n/a	n/a	n/a	TrialHappPreview	Gain
189.651	4.029	0.022	262.313	12.0	1	0.0	0.0	12.4463	955.0	3.6	Certain	-7.26	5.9	2.61875	Yes	n/a	13.1619479048698	n/a	n/a	516.0	TrialHappiness	Gain
189.652	2.27	n/a	263.238	12.0	1	0.0	0.0	12.4463	955.0	3.6	Certain	-7.26	5.9	2.61875	Yes	n/a	13.1619479048698	n/a	n/a	516.0	TrialHappinessSliderResponse	Gain
193.68	2.475	4.029	266.342	12.0	1	0.0	0.0	12.4463	955.0	3.6	Certain	-7.26	5.9	2.61875	Yes	n/a	13.1619479048698	n/a	n/a	n/a	ISIRate	Gain
196.187	3.0	0.032	268.849	13.0	1	9.41	4.7	13.6225	955.0	3.16	Outcome2	11.7	9.41	0.0	No	2.0	-2.29303510758777	1.232	197.419	n/a	GetAnswer	Loss
197.441	4.0	0.022	270.103	13.0	1	9.41	4.7	13.6225	955.0	3.16	Outcome2	11.7	9.41	0.0	No	n/a	-2.29303510758777	n/a	n/a	n/a	ShowChoice	Loss
201.47	1.0	0.029	274.132	13.0	1	9.41	4.7	13.6225	955.0	3.16	Outcome2	11.7	9.41	0.0	No	n/a	-2.29303510758777	n/a	n/a	n/a	ShowResult	Loss
202.49	3.48	0.02	275.152	13.0	1	9.41	4.7	13.6225	955.0	3.16	Outcome2	11.7	9.41	0.0	No	n/a	-2.29303510758777	n/a	n/a	n/a	ISITrial	Loss
206.0	3.0	0.03	278.662	14.0	1	-7.0	-7.0	12.7475	955.0	0.82	Certain	-0.5	-14.59	0.0	No	4.0	14.0928652321631	2.337	208.337	n/a	GetAnswer	Mixed
208.357	4.0	0.02	281.019	14.0	1	-7.0	-7.0	12.7475	955.0	0.82	Certain	-0.5	-14.59	0.0	No	n/a	14.0928652321631	n/a	n/a	n/a	ShowChoice	Mixed
212.369	1.0	0.012	285.031	14.0	1	-7.0	-7.0	12.7475	955.0	0.82	Certain	-0.5	-14.59	0.0	No	n/a	14.0928652321631	n/a	n/a	n/a	ShowResult	Mixed
213.389	5.019	0.02	286.051	14.0	1	-7.0	-7.0	12.7475	955.0	0.82	Certain	-0.5	-14.59	0.0	No	n/a	14.0928652321631	n/a	n/a	n/a	ISITrial	Mixed
218.437	3.0	0.029	291.099	15.0	1	8.5	1.0	13.81	955.0	1.68	Outcome1	8.5	-6.09	3.3485	Yes	2.0	14.590033975084902	1.824	220.261	n/a	GetAnswer	Gain
220.276	4.0	0.015	292.938	15.0	1	8.5	1.0	13.81	955.0	1.68	Outcome1	8.5	-6.09	3.3485	Yes	n/a	14.590033975084902	n/a	n/a	n/a	ShowChoice	Gain
224.288	1.0	0.012	296.95	15.0	1	8.5	1.0	13.81	955.0	1.68	Outcome1	8.5	-6.09	3.3485	Yes	n/a	14.590033975084902	n/a	n/a	n/a	ShowResult	Gain
225.308	7.614	0.02	297.97	15.0	1	8.5	1.0	13.81	955.0	1.68	Outcome1	8.5	-6.09	3.3485	Yes	n/a	14.590033975084902	n/a	n/a	n/a	ISITrial	Gain
232.948	3.348	0.026	305.61	15.0	1	8.5	1.0	13.81	955.0	1.68	Outcome1	8.5	-6.09	3.3485	Yes	n/a	14.590033975084902	n/a	n/a	n/a	TrialHappPreview	Gain
236.324	4.029	0.028	308.986	15.0	1	8.5	1.0	13.81	955.0	1.68	Outcome1	8.5	-6.09	3.3485	Yes	n/a	14.590033975084902	n/a	n/a	532.0	TrialHappiness	Gain
236.325	0.086	n/a	311.053	15.0	1	8.5	1.0	13.81	955.0	1.68	Outcome1	8.5	-6.09	3.3485	Yes	n/a	14.590033975084902	n/a	n/a	532.0	TrialHappinessSliderResponse	Gain
240.353	5.394	4.029	313.015	15.0	1	8.5	1.0	13.81	955.0	1.68	Outcome1	8.5	-6.09	3.3485	Yes	n/a	14.590033975084902	n/a	n/a	n/a	ISIRate	Gain
245.769	3.0	0.022	318.431	16.0	1	1.5	-6.0	13.9975	955.0	0.82	Outcome2	-13.32	1.5	0.0	No	2.0	14.815402038505098	2.86	248.629	n/a	GetAnswer	Mixed
248.645	4.0	0.016	321.307	16.0	1	1.5	-6.0	13.9975	955.0	0.82	Outcome2	-13.32	1.5	0.0	No	n/a	14.815402038505098	n/a	n/a	n/a	ShowChoice	Mixed
252.673	1.0	0.028	325.335	16.0	1	1.5	-6.0	13.9975	955.0	0.82	Outcome2	-13.32	1.5	0.0	No	n/a	14.815402038505098	n/a	n/a	n/a	ShowResult	Mixed
253.693	3.008	0.02	326.355	16.0	1	1.5	-6.0	13.9975	955.0	0.82	Outcome2	-13.32	1.5	0.0	No	n/a	14.815402038505098	n/a	n/a	n/a	ISITrial	Mixed
256.736	3.0	0.035	329.398	17.0	1	11.5	-1.9	15.435	955.0	2.8	Outcome2	-3.79	11.5	3.0415	Yes	2.0	15.294450736126802	1.75	258.486	n/a	GetAnswer	Loss
258.508	4.0	0.022	331.17	17.0	1	11.5	-1.9	15.435	955.0	2.8	Outcome2	-3.79	11.5	3.0415	Yes	n/a	15.294450736126802	n/a	n/a	n/a	ShowChoice	Loss
262.536	1.0	0.028	335.198	17.0	1	11.5	-1.9	15.435	955.0	2.8	Outcome2	-3.79	11.5	3.0415	Yes	n/a	15.294450736126802	n/a	n/a	n/a	ShowResult	Loss
263.556	3.566	0.02	336.218	17.0	1	11.5	-1.9	15.435	955.0	2.8	Outcome2	-3.79	11.5	3.0415	Yes	n/a	15.294450736126802	n/a	n/a	n/a	ISITrial	Loss
267.15	3.042	0.028	339.812	17.0	1	11.5	-1.9	15.435	955.0	2.8	Outcome2	-3.79	11.5	3.0415	Yes	n/a	15.294450736126802	n/a	n/a	n/a	TrialHappPreview	Loss
270.209	4.029	0.017	342.871	17.0	1	11.5	-1.9	15.435	955.0	2.8	Outcome2	-3.79	11.5	3.0415	Yes	n/a	15.294450736126802	n/a	n/a	532.0	TrialHappiness	Loss
270.21	0.125	n/a	344.165	17.0	1	11.5	-1.9	15.435	955.0	2.8	Outcome2	-3.79	11.5	3.0415	Yes	n/a	15.294450736126802	n/a	n/a	532.0	TrialHappinessSliderResponse	Loss
274.238	4.166	4.029	346.9	17.0	1	11.5	-1.9	15.435	955.0	2.8	Outcome2	-3.79	11.5	3.0415	Yes	n/a	15.294450736126802	n/a	n/a	n/a	ISIRate	Loss
278.434	3.0	0.03	351.096	18.0	1	13.7	-1.03	17.1475	955.0	3.16	Outcome2	-2.07	13.7	0.0	No	2.0	15.7734994337486	1.318	279.752	n/a	GetAnswer	Loss
279.771	4.0	0.019	352.433	18.0	1	13.7	-1.03	17.1475	955.0	3.16	Outcome2	-2.07	13.7	0.0	No	n/a	15.7734994337486	n/a	n/a	n/a	ShowChoice	Loss
283.8	1.0	0.029	356.462	18.0	1	13.7	-1.03	17.1475	955.0	3.16	Outcome2	-2.07	13.7	0.0	No	n/a	15.7734994337486	n/a	n/a	n/a	ShowResult	Loss
284.82	6.787	0.02	357.482	18.0	1	13.7	-1.03	17.1475	955.0	3.16	Outcome2	-2.07	13.7	0.0	No	n/a	15.7734994337486	n/a	n/a	n/a	ISITrial	Loss
291.64	3.0	0.033	364.302	19.0	1	0.0	0.0	17.1475	955.0	3.6	Certain	7.9	-8.35	0.0	No	4.0	16.2525481313703	1.753	293.393	n/a	GetAnswer	Gain
293.412	4.0	0.019	366.074	19.0	1	0.0	0.0	17.1475	955.0	3.6	Certain	7.9	-8.35	0.0	No	n/a	16.2525481313703	n/a	n/a	n/a	ShowChoice	Gain
297.441	1.0	0.029	370.103	19.0	1	0.0	0.0	17.1475	955.0	3.6	Certain	7.9	-8.35	0.0	No	n/a	16.2525481313703	n/a	n/a	n/a	ShowResult	Gain
298.461	2.0	0.02	371.123	19.0	1	0.0	0.0	17.1475	955.0	3.6	Certain	7.9	-8.35	0.0	No	n/a	16.2525481313703	n/a	n/a	n/a	ISITrial	Gain
300.483	3.0	0.022	373.145	20.0	1	11.1	2.0	18.535	955.0	2.22	Outcome2	-5.63	11.1	2.92125	Yes	2.0	16.7315968289921	1.699	302.182	n/a	GetAnswer	Loss
302.205	4.0	0.023	374.867	20.0	1	11.1	2.0	18.535	955.0	2.22	Outcome2	-5.63	11.1	2.92125	Yes	n/a	16.7315968289921	n/a	n/a	n/a	ShowChoice	Loss
306.234	1.0	0.029	378.896	20.0	1	11.1	2.0	18.535	955.0	2.22	Outcome2	-5.63	11.1	2.92125	Yes	n/a	16.7315968289921	n/a	n/a	n/a	ShowResult	Loss
307.254	8.0	0.02	379.916	20.0	1	11.1	2.0	18.535	955.0	2.22	Outcome2	-5.63	11.1	2.92125	Yes	n/a	16.7315968289921	n/a	n/a	n/a	ISITrial	Loss
315.278	2.921	0.024	387.94	20.0	1	11.1	2.0	18.535	955.0	2.22	Outcome2	-5.63	11.1	2.92125	Yes	n/a	16.7315968289921	n/a	n/a	n/a	TrialHappPreview	Loss
318.22	4.012	0.021	390.882	20.0	1	11.1	2.0	18.535	955.0	2.22	Outcome2	-5.63	11.1	2.92125	Yes	n/a	16.7315968289921	n/a	n/a	536.0	TrialHappiness	Loss
318.221	0.2	n/a	391.643	20.0	1	11.1	2.0	18.535	955.0	2.22	Outcome2	-5.63	11.1	2.92125	Yes	n/a	16.7315968289921	n/a	n/a	536.0	TrialHappinessSliderResponse	Loss
322.232	3.685	4.012	394.894	20.0	1	11.1	2.0	18.535	955.0	2.22	Outcome2	-5.63	11.1	2.92125	Yes	n/a	16.7315968289921	n/a	n/a	n/a	ISIRate	Loss
325.943	3.0	0.026	398.605	21.0	1	4.9	-3.0	19.1475	955.0	2.0	Outcome2	-12.24	4.9	0.0	No	n/a	17.1426953567384	n/a	n/a	n/a	GetAnswer	Gain
328.969	4.0	0.026	401.631	21.0	1	4.9	-3.0	19.1475	955.0	2.0	Outcome2	-12.24	4.9	0.0	No	n/a	17.1426953567384	n/a	n/a	n/a	ShowChoice	Gain
332.981	1.0	0.012	405.643	21.0	1	4.9	-3.0	19.1475	955.0	2.0	Outcome2	-12.24	4.9	0.0	No	n/a	17.1426953567384	n/a	n/a	n/a	ShowResult	Gain
334.0	3.555	0.019	406.662	21.0	1	4.9	-3.0	19.1475	955.0	2.0	Outcome2	-12.24	4.9	0.0	No	n/a	17.1426953567384	n/a	n/a	n/a	ISITrial	Gain
337.578	3.0	0.023	410.24	22.0	1	5.72	2.86	19.8625	955.0	5.0	Outcome2	8.3	5.72	3.2195	Yes	2.0	-2.5753114382786	2.02	339.598	n/a	GetAnswer	Gain
339.617	4.0	0.019	412.279	22.0	1	5.72	2.86	19.8625	955.0	5.0	Outcome2	8.3	5.72	3.2195	Yes	n/a	-2.5753114382786	n/a	n/a	n/a	ShowChoice	Gain
343.629	1.0	0.012	416.291	22.0	1	5.72	2.86	19.8625	955.0	5.0	Outcome2	8.3	5.72	3.2195	Yes	n/a	-2.5753114382786	n/a	n/a	n/a	ShowResult	Gain
344.649	6.793	0.02	417.311	22.0	1	5.72	2.86	19.8625	955.0	5.0	Outcome2	8.3	5.72	3.2195	Yes	n/a	-2.5753114382786	n/a	n/a	n/a	ISITrial	Gain
351.469	3.22	0.027	424.131	22.0	1	5.72	2.86	19.8625	955.0	5.0	Outcome2	8.3	5.72	3.2195	Yes	n/a	-2.5753114382786	n/a	n/a	n/a	TrialHappPreview	Gain
354.712	4.012	0.023	427.374	22.0	1	5.72	2.86	19.8625	955.0	5.0	Outcome2	8.3	5.72	3.2195	Yes	n/a	-2.5753114382786	n/a	n/a	540.0	TrialHappiness	Gain
354.713	2.209	n/a	428.035	22.0	1	5.72	2.86	19.8625	955.0	5.0	Outcome2	8.3	5.72	3.2195	Yes	n/a	-2.5753114382786	n/a	n/a	540.0	TrialHappinessSliderResponse	Gain
358.724	4.878	4.012	431.386	22.0	1	5.72	2.86	19.8625	955.0	5.0	Outcome2	8.3	5.72	3.2195	Yes	n/a	-2.5753114382786	n/a	n/a	n/a	ISIRate	Gain
363.622	3.0	0.02	436.284	23.0	1	-3.0	-3.0	19.4875	955.0	2.48	Certain	5.3	-12.72	0.0	No	4.0	18.0237825594564	1.599	365.221	n/a	GetAnswer	Gain
365.244	4.0	0.023	437.906	23.0	1	-3.0	-3.0	19.4875	955.0	2.48	Certain	5.3	-12.72	0.0	No	n/a	18.0237825594564	n/a	n/a	n/a	ShowChoice	Gain
369.256	1.0	0.012	441.918	23.0	1	-3.0	-3.0	19.4875	955.0	2.48	Certain	5.3	-12.72	0.0	No	n/a	18.0237825594564	n/a	n/a	n/a	ShowResult	Gain
370.276	8.0	0.02	442.938	23.0	1	-3.0	-3.0	19.4875	955.0	2.48	Certain	5.3	-12.72	0.0	No	n/a	18.0237825594564	n/a	n/a	n/a	ISITrial	Gain
378.3	3.0	0.024	450.962	24.0	1	-2.0	-2.0	19.2375	955.0	0.66	Certain	-3.34	-0.7	3.255	Yes	4.0	-2.6377878444696097	1.995	380.295	n/a	GetAnswer	Mixed
380.306	4.0	0.011	452.968	24.0	1	-2.0	-2.0	19.2375	955.0	0.66	Certain	-3.34	-0.7	3.255	Yes	n/a	-2.6377878444696097	n/a	n/a	n/a	ShowChoice	Mixed
384.318	1.0	0.012	456.98	24.0	1	-2.0	-2.0	19.2375	955.0	0.66	Certain	-3.34	-0.7	3.255	Yes	n/a	-2.6377878444696097	n/a	n/a	n/a	ShowResult	Mixed
385.338	2.0	0.02	458.0	24.0	1	-2.0	-2.0	19.2375	955.0	0.66	Certain	-3.34	-0.7	3.255	Yes	n/a	-2.6377878444696097	n/a	n/a	n/a	ISITrial	Mixed
387.36	3.255	0.022	460.022	24.0	1	-2.0	-2.0	19.2375	955.0	0.66	Certain	-3.34	-0.7	3.255	Yes	n/a	-2.6377878444696097	n/a	n/a	n/a	TrialHappPreview	Mixed
390.637	4.029	0.022	463.299	24.0	1	-2.0	-2.0	19.2375	955.0	0.66	Certain	-3.34	-0.7	3.255	Yes	n/a	-2.6377878444696097	n/a	n/a	536.0	TrialHappiness	Mixed
390.638	0.175	n/a	463.668	24.0	1	-2.0	-2.0	19.2375	955.0	0.66	Certain	-3.34	-0.7	3.255	Yes	n/a	-2.6377878444696097	n/a	n/a	536.0	TrialHappinessSliderResponse	Mixed
394.666	5.02	4.029	467.328	24.0	1	-2.0	-2.0	19.2375	955.0	0.66	Certain	-3.34	-0.7	3.255	Yes	n/a	-2.6377878444696097	n/a	n/a	n/a	ISIRate	Mixed
399.714	3.0	0.028	472.376	25.0	1	4.61	2.31	19.8137	955.0	2.48	Outcome1	4.61	7.3	0.0	No	2.0	-2.6931861079652704	1.628	401.342	n/a	GetAnswer	Gain
401.369	4.0	0.026	474.031	25.0	1	4.61	2.31	19.8137	955.0	2.48	Outcome1	4.61	7.3	0.0	No	n/a	-2.6931861079652704	n/a	n/a	n/a	ShowChoice	Gain
405.381	1.0	0.012	478.043	25.0	1	4.61	2.31	19.8137	955.0	2.48	Outcome1	4.61	7.3	0.0	No	n/a	-2.6931861079652704	n/a	n/a	n/a	ShowResult	Gain
406.401	3.749	0.02	479.063	25.0	1	4.61	2.31	19.8137	955.0	2.48	Outcome1	4.61	7.3	0.0	No	n/a	-2.6931861079652704	n/a	n/a	n/a	ISITrial	Gain
410.179	3.0	0.029	482.841	26.0	1	3.77	1.88	20.2849	955.0	1.68	Outcome1	3.77	6.5	0.0	No	2.0	-2.73272933182333	1.629	411.808	n/a	GetAnswer	Gain
411.834	4.0	0.026	484.496	26.0	1	3.77	1.88	20.2849	955.0	1.68	Outcome1	3.77	6.5	0.0	No	n/a	-2.73272933182333	n/a	n/a	n/a	ShowChoice	Gain
415.846	1.0	0.012	488.508	26.0	1	3.77	1.88	20.2849	955.0	1.68	Outcome1	3.77	6.5	0.0	No	n/a	-2.73272933182333	n/a	n/a	n/a	ShowResult	Gain
416.865	7.834	0.019	489.527	26.0	1	3.77	1.88	20.2849	955.0	1.68	Outcome1	3.77	6.5	0.0	No	n/a	-2.73272933182333	n/a	n/a	n/a	ISITrial	Gain
424.722	3.0	0.023	497.384	27.0	1	11.9	2.0	21.7724	955.0	3.6	Outcome2	-8.08	11.9	2.54975	Yes	n/a	19.9807474518686	n/a	n/a	n/a	GetAnswer	Loss
427.748	4.0	0.026	500.41	27.0	1	11.9	2.0	21.7724	955.0	3.6	Outcome2	-8.08	11.9	2.54975	Yes	n/a	19.9807474518686	n/a	n/a	n/a	ShowChoice	Loss
431.76	1.0	0.012	504.422	27.0	1	11.9	2.0	21.7724	955.0	3.6	Outcome2	-8.08	11.9	2.54975	Yes	n/a	19.9807474518686	n/a	n/a	n/a	ShowResult	Loss
432.78	4.225	0.02	505.442	27.0	1	11.9	2.0	21.7724	955.0	3.6	Outcome2	-8.08	11.9	2.54975	Yes	n/a	19.9807474518686	n/a	n/a	n/a	ISITrial	Loss
437.026	2.55	0.021	509.688	27.0	1	11.9	2.0	21.7724	955.0	3.6	Outcome2	-8.08	11.9	2.54975	Yes	n/a	19.9807474518686	n/a	n/a	n/a	TrialHappPreview	Loss
439.6	4.012	0.024	512.262	27.0	1	11.9	2.0	21.7724	955.0	3.6	Outcome2	-8.08	11.9	2.54975	Yes	n/a	19.9807474518686	n/a	n/a	548.0	TrialHappiness	Loss
439.601	1.382	n/a	512.703	27.0	1	11.9	2.0	21.7724	955.0	3.6	Outcome2	-8.08	11.9	2.54975	Yes	n/a	19.9807474518686	n/a	n/a	548.0	TrialHappinessSliderResponse	Loss
443.612	2.199	4.012	516.274	27.0	1	11.9	2.0	21.7724	955.0	3.6	Outcome2	-8.08	11.9	2.54975	Yes	n/a	19.9807474518686	n/a	n/a	n/a	ISIRate	Loss
485.221	0.142	n/a	559.708	n/a	1	n/a	n/a	n/a	n/a	n/a	n/a	n/a	n/a	n/a	n/a	n/a	n/a	n/a	n/a	532.0	BlockStartHappinessSliderResponse	n/a
-57.004	-0.001	0.025	518.498	n/a	2	n/a	n/a	n/a	n/a	n/a	n/a	n/a	n/a	n/a	n/a	{SPACE}	n/a	35.356	-21.648	n/a	Rest	n/a
-21.632	4.0	0.016	553.87	n/a	2	n/a	n/a	n/a	n/a	n/a	n/a	n/a	n/a	n/a	n/a	n/a	n/a	n/a	n/a	n/a	BlockHappyPreview	n/a
-17.62	1.967	0.012	557.882	n/a	2	n/a	n/a	n/a	n/a	n/a	n/a	n/a	n/a	n/a	n/a	n/a	n/a	n/a	n/a	532.0	BlockStartHappiness	n/a
-11.05	-0.001	0.022	564.452	n/a	2	n/a	n/a	n/a	n/a	n/a	n/a	n/a	n/a	n/a	n/a	5.0	n/a	11.028	-0.022	n/a	ScanWait	n/a
0.0	10.0	0.022	575.502	n/a	2	n/a	n/a	n/a	n/a	n/a	n/a	n/a	n/a	n/a	n/a	n/a	n/a	n/a	n/a	n/a	GetReady	n/a
10.03	3.0	0.03	585.532	28.0	2	1.24	0.62	21.9274	70.0	2.22	Outcome2	9.1	1.24	0.0	No	2.0	-7.857142857142861	1.591	11.621	n/a	GetAnswer	Gain
11.635	4.0	0.014	587.137	28.0	2	1.24	0.62	21.9274	70.0	2.22	Outcome2	9.1	1.24	0.0	No	n/a	-7.857142857142861	n/a	n/a	n/a	ShowChoice	Gain
15.663	1.0	0.028	591.165	28.0	2	1.24	0.62	21.9274	70.0	2.22	Outcome2	9.1	1.24	0.0	No	n/a	-7.857142857142861	n/a	n/a	n/a	ShowResult	Gain
16.683	3.575	0.02	592.185	28.0	2	1.24	0.62	21.9274	70.0	2.22	Outcome2	9.1	1.24	0.0	No	n/a	-7.857142857142861	n/a	n/a	n/a	ISITrial	Gain
20.277	3.0	0.019	595.779	29.0	2	3.72	1.86	22.3924	70.0	4.2	Outcome1	3.72	12.1	3.529	Yes	2.0	-8.38095238095238	1.363	21.64	n/a	GetAnswer	Loss
21.665	4.0	0.025	597.167	29.0	2	3.72	1.86	22.3924	70.0	4.2	Outcome1	3.72	12.1	3.529	Yes	n/a	-8.38095238095238	n/a	n/a	n/a	ShowChoice	Loss
25.693	1.0	0.028	601.195	29.0	2	3.72	1.86	22.3924	70.0	4.2	Outcome1	3.72	12.1	3.529	Yes	n/a	-8.38095238095238	n/a	n/a	n/a	ShowResult	Loss
26.713	3.955	0.02	602.215	29.0	2	3.72	1.86	22.3924	70.0	4.2	Outcome1	3.72	12.1	3.529	Yes	n/a	-8.38095238095238	n/a	n/a	n/a	ISITrial	Loss
30.692	3.529	0.024	606.194	29.0	2	3.72	1.86	22.3924	70.0	4.2	Outcome1	3.72	12.1	3.529	Yes	n/a	-8.38095238095238	n/a	n/a	n/a	TrialHappPreview	Loss
34.252	4.012	0.031	609.754	29.0	2	3.72	1.86	22.3924	70.0	4.2	Outcome1	3.72	12.1	3.529	Yes	n/a	-8.38095238095238	n/a	n/a	512.0	TrialHappiness	Loss
34.253	0.0	n/a	609.755	29.0	2	3.72	1.86	22.3924	70.0	4.2	Outcome1	3.72	12.1	3.529	Yes	n/a	-8.38095238095238	n/a	n/a	512.0	TrialHappinessSliderResponse	Loss
38.264	6.116	4.012	613.766	29.0	2	3.72	1.86	22.3924	70.0	4.2	Outcome1	3.72	12.1	3.529	Yes	n/a	-8.38095238095238	n/a	n/a	n/a	ISIRate	Loss
44.399	3.0	0.019	619.901	30.0	2	2.74	1.37	22.7349	70.0	2.48	Outcome2	11.3	2.74	0.0	No	2.0	-8.56462585034014	1.236	45.635	n/a	GetAnswer	Loss
45.653	4.0	0.018	621.155	30.0	2	2.74	1.37	22.7349	70.0	2.48	Outcome2	11.3	2.74	0.0	No	n/a	-8.56462585034014	n/a	n/a	n/a	ShowChoice	Loss
49.665	1.0	0.012	625.167	30.0	2	2.74	1.37	22.7349	70.0	2.48	Outcome2	11.3	2.74	0.0	No	n/a	-8.56462585034014	n/a	n/a	n/a	ShowResult	Loss
50.685	4.453	0.02	626.187	30.0	2	2.74	1.37	22.7349	70.0	2.48	Outcome2	11.3	2.74	0.0	No	n/a	-8.56462585034014	n/a	n/a	n/a	ISITrial	Loss
55.165	3.0	0.027	630.667	31.0	2	4.43	2.22	23.2887	70.0	2.8	Outcome1	4.43	13.5	2.50325	Yes	2.0	-9.06575963718821	1.318	56.483	n/a	GetAnswer	Loss
56.502	4.0	0.019	632.004	31.0	2	4.43	2.22	23.2887	70.0	2.8	Outcome1	4.43	13.5	2.50325	Yes	n/a	-9.06575963718821	n/a	n/a	n/a	ShowChoice	Loss
60.531	1.0	0.029	636.033	31.0	2	4.43	2.22	23.2887	70.0	2.8	Outcome1	4.43	13.5	2.50325	Yes	n/a	-9.06575963718821	n/a	n/a	n/a	ShowResult	Loss
61.551	4.786	0.02	637.053	31.0	2	4.43	2.22	23.2887	70.0	2.8	Outcome1	4.43	13.5	2.50325	Yes	n/a	-9.06575963718821	n/a	n/a	n/a	ISITrial	Loss
66.365	2.503	0.028	641.867	31.0	2	4.43	2.22	23.2887	70.0	2.8	Outcome1	4.43	13.5	2.50325	Yes	n/a	-9.06575963718821	n/a	n/a	n/a	TrialHappPreview	Loss
68.889	4.029	0.021	644.391	31.0	2	4.43	2.22	23.2887	70.0	2.8	Outcome1	4.43	13.5	2.50325	Yes	n/a	-9.06575963718821	n/a	n/a	512.0	TrialHappiness	Loss
68.89	0.467	n/a	646.148	31.0	2	4.43	2.22	23.2887	70.0	2.8	Outcome1	4.43	13.5	2.50325	Yes	n/a	-9.06575963718821	n/a	n/a	512.0	TrialHappinessSliderResponse	Loss
72.918	2.013	4.029	648.42	31.0	2	4.43	2.22	23.2887	70.0	2.8	Outcome1	4.43	13.5	2.50325	Yes	n/a	-9.06575963718821	n/a	n/a	n/a	ISIRate	Loss
74.958	3.0	0.027	650.46	32.0	2	0.0	0.0	23.2887	70.0	1.5	Certain	-5.47	4.1	0.0	No	4.0	-9.566893424036278	2.072	77.03	n/a	GetAnswer	Mixed
77.047	4.0	0.017	652.549	32.0	2	0.0	0.0	23.2887	70.0	1.5	Certain	-5.47	4.1	0.0	No	n/a	-9.566893424036278	n/a	n/a	n/a	ShowChoice	Mixed
81.076	1.0	0.029	656.578	32.0	2	0.0	0.0	23.2887	70.0	1.5	Certain	-5.47	4.1	0.0	No	n/a	-9.566893424036278	n/a	n/a	n/a	ShowResult	Mixed
82.096	2.0	0.02	657.598	32.0	2	0.0	0.0	23.2887	70.0	1.5	Certain	-5.47	4.1	0.0	No	n/a	-9.566893424036278	n/a	n/a	n/a	ISITrial	Mixed
84.118	3.0	0.022	659.62	33.0	2	-7.17	-2.0	22.3925	70.0	0.4	Outcome2	2.9	-7.17	0.0	No	n/a	-10.0680272108844	n/a	n/a	n/a	GetAnswer	Mixed
87.144	4.0	0.026	662.646	33.0	2	-7.17	-2.0	22.3925	70.0	0.4	Outcome2	2.9	-7.17	0.0	No	n/a	-10.0680272108844	n/a	n/a	n/a	ShowChoice	Mixed
91.173	1.0	0.029	666.675	33.0	2	-7.17	-2.0	22.3925	70.0	0.4	Outcome2	2.9	-7.17	0.0	No	n/a	-10.0680272108844	n/a	n/a	n/a	ShowResult	Mixed
92.193	5.099	0.02	667.695	33.0	2	-7.17	-2.0	22.3925	70.0	0.4	Outcome2	2.9	-7.17	0.0	No	n/a	-10.0680272108844	n/a	n/a	n/a	ISITrial	Mixed
97.325	3.0	0.033	672.827	34.0	2	-2.0	-2.0	22.1425	70.0	0.82	Certain	-7.07	3.5	3.2315	Yes	4.0	-10.569160997732402	2.025	99.35	n/a	GetAnswer	Mixed
99.364	4.0	0.014	674.866	34.0	2	-2.0	-2.0	22.1425	70.0	0.82	Certain	-7.07	3.5	3.2315	Yes	n/a	-10.569160997732402	n/a	n/a	n/a	ShowChoice	Mixed
103.376	1.0	0.012	678.878	34.0	2	-2.0	-2.0	22.1425	70.0	0.82	Certain	-7.07	3.5	3.2315	Yes	n/a	-10.569160997732402	n/a	n/a	n/a	ShowResult	Mixed
104.396	4.784	0.02	679.898	34.0	2	-2.0	-2.0	22.1425	70.0	0.82	Certain	-7.07	3.5	3.2315	Yes	n/a	-10.569160997732402	n/a	n/a	n/a	ISITrial	Mixed
109.21	3.232	0.03	684.712	34.0	2	-2.0	-2.0	22.1425	70.0	0.82	Certain	-7.07	3.5	3.2315	Yes	n/a	-10.569160997732402	n/a	n/a	n/a	TrialHappPreview	Mixed
112.47	4.029	0.028	687.972	34.0	2	-2.0	-2.0	22.1425	70.0	0.82	Certain	-7.07	3.5	3.2315	Yes	n/a	-10.569160997732402	n/a	n/a	492.0	TrialHappiness	Mixed
112.471	0.102	n/a	689.657	34.0	2	-2.0	-2.0	22.1425	70.0	0.82	Certain	-7.07	3.5	3.2315	Yes	n/a	-10.569160997732402	n/a	n/a	492.0	TrialHappinessSliderResponse	Mixed
116.499	4.926	4.029	692.001	34.0	2	-2.0	-2.0	22.1425	70.0	0.82	Certain	-7.07	3.5	3.2315	Yes	n/a	-10.569160997732402	n/a	n/a	n/a	ISIRate	Mixed
121.447	3.0	0.022	696.949	35.0	2	-5.23	0.0	21.4887	70.0	2.8	Outcome2	5.5	-5.23	0.0	No	2.0	-10.7301587301587	2.307	123.754	n/a	GetAnswer	Gain
123.771	4.0	0.017	699.273	35.0	2	-5.23	0.0	21.4887	70.0	2.8	Outcome2	5.5	-5.23	0.0	No	n/a	-10.7301587301587	n/a	n/a	n/a	ShowChoice	Gain
127.799	1.0	0.028	703.301	35.0	2	-5.23	0.0	21.4887	70.0	2.8	Outcome2	5.5	-5.23	0.0	No	n/a	-10.7301587301587	n/a	n/a	n/a	ShowResult	Gain
128.819	2.098	0.02	704.321	35.0	2	-5.23	0.0	21.4887	70.0	2.8	Outcome2	5.5	-5.23	0.0	No	n/a	-10.7301587301587	n/a	n/a	n/a	ISITrial	Gain
130.942	3.0	0.025	706.444	36.0	2	-1.11	-0.56	21.3499	70.0	4.2	Outcome1	-1.11	10.1	3.33575	Yes	2.0	-11.2086167800454	1.915	132.857	n/a	GetAnswer	Gain
132.881	4.0	0.024	708.383	36.0	2	-1.11	-0.56	21.3499	70.0	4.2	Outcome1	-1.11	10.1	3.33575	Yes	n/a	-11.2086167800454	n/a	n/a	n/a	ShowChoice	Gain
136.893	1.0	0.012	712.395	36.0	2	-1.11	-0.56	21.3499	70.0	4.2	Outcome1	-1.11	10.1	3.33575	Yes	n/a	-11.2086167800454	n/a	n/a	n/a	ShowResult	Gain
137.913	5.156	0.02	713.415	36.0	2	-1.11	-0.56	21.3499	70.0	4.2	Outcome1	-1.11	10.1	3.33575	Yes	n/a	-11.2086167800454	n/a	n/a	n/a	ISITrial	Gain
143.095	3.336	0.026	718.597	36.0	2	-1.11	-0.56	21.3499	70.0	4.2	Outcome1	-1.11	10.1	3.33575	Yes	n/a	-11.2086167800454	n/a	n/a	n/a	TrialHappPreview	Gain
146.455	4.029	0.024	721.957	36.0	2	-1.11	-0.56	21.3499	70.0	4.2	Outcome1	-1.11	10.1	3.33575	Yes	n/a	-11.2086167800454	n/a	n/a	492.0	TrialHappiness	Gain
146.456	0.127	n/a	722.399	36.0	2	-1.11	-0.56	21.3499	70.0	4.2	Outcome1	-1.11	10.1	3.33575	Yes	n/a	-11.2086167800454	n/a	n/a	492.0	TrialHappinessSliderResponse	Gain
150.484	5.343	4.029	725.986	36.0	2	-1.11	-0.56	21.3499	70.0	4.2	Outcome1	-1.11	10.1	3.33575	Yes	n/a	-11.2086167800454	n/a	n/a	n/a	ISIRate	Gain
155.85	3.0	0.023	731.352	37.0	2	-4.0	-4.0	20.8499	70.0	1.2	Certain	-9.79	1.9	0.0	No	4.0	-11.687074829932	2.518	158.368	n/a	GetAnswer	Mixed
158.391	4.0	0.023	733.893	37.0	2	-4.0	-4.0	20.8499	70.0	1.2	Certain	-9.79	1.9	0.0	No	n/a	-11.687074829932	n/a	n/a	n/a	ShowChoice	Mixed
162.42	1.0	0.029	737.922	37.0	2	-4.0	-4.0	20.8499	70.0	1.2	Certain	-9.79	1.9	0.0	No	n/a	-11.687074829932	n/a	n/a	n/a	ShowResult	Mixed
163.439	3.598	0.019	738.941	37.0	2	-4.0	-4.0	20.8499	70.0	1.2	Certain	-9.79	1.9	0.0	No	n/a	-11.687074829932	n/a	n/a	n/a	ISITrial	Mixed
167.067	3.0	0.03	742.569	38.0	2	-2.0	-2.0	20.5999	70.0	1.2	Certain	-8.27	3.9	0.0	No	4.0	-12.1655328798186	2.929	169.996	n/a	GetAnswer	Mixed
170.009	4.0	0.013	745.511	38.0	2	-2.0	-2.0	20.5999	70.0	1.2	Certain	-8.27	3.9	0.0	No	n/a	-12.1655328798186	n/a	n/a	n/a	ShowChoice	Mixed
174.021	1.0	0.012	749.523	38.0	2	-2.0	-2.0	20.5999	70.0	1.2	Certain	-8.27	3.9	0.0	No	n/a	-12.1655328798186	n/a	n/a	n/a	ShowResult	Mixed
175.041	4.787	0.02	750.543	38.0	2	-2.0	-2.0	20.5999	70.0	1.2	Certain	-8.27	3.9	0.0	No	n/a	-12.1655328798186	n/a	n/a	n/a	ISITrial	Mixed
179.855	3.0	0.027	755.357	39.0	2	-1.74	-0.87	20.3824	70.0	2.0	Outcome1	-1.74	10.9	2.86425	Yes	2.0	-12.6439909297052	1.579	181.434	n/a	GetAnswer	Loss
181.46	4.0	0.026	756.962	39.0	2	-1.74	-0.87	20.3824	70.0	2.0	Outcome1	-1.74	10.9	2.86425	Yes	n/a	-12.6439909297052	n/a	n/a	n/a	ShowChoice	Loss
185.472	1.0	0.012	760.974	39.0	2	-1.74	-0.87	20.3824	70.0	2.0	Outcome1	-1.74	10.9	2.86425	Yes	n/a	-12.6439909297052	n/a	n/a	n/a	ShowResult	Loss
186.492	2.348	0.02	761.994	39.0	2	-1.74	-0.87	20.3824	70.0	2.0	Outcome1	-1.74	10.9	2.86425	Yes	n/a	-12.6439909297052	n/a	n/a	n/a	ISITrial	Loss
188.866	2.864	0.026	764.368	39.0	2	-1.74	-0.87	20.3824	70.0	2.0	Outcome1	-1.74	10.9	2.86425	Yes	n/a	-12.6439909297052	n/a	n/a	n/a	TrialHappPreview	Loss
191.758	4.028	0.028	767.26	39.0	2	-1.74	-0.87	20.3824	70.0	2.0	Outcome1	-1.74	10.9	2.86425	Yes	n/a	-12.6439909297052	n/a	n/a	472.0	TrialHappiness	Loss
191.758	0.625	n/a	767.644	39.0	2	-1.74	-0.87	20.3824	70.0	2.0	Outcome1	-1.74	10.9	2.86425	Yes	n/a	-12.6439909297052	n/a	n/a	472.0	TrialHappinessSliderResponse	Loss
195.786	3.457	4.028	771.288	39.0	2	-1.74	-0.87	20.3824	70.0	2.0	Outcome1	-1.74	10.9	2.86425	Yes	n/a	-12.6439909297052	n/a	n/a	n/a	ISIRate	Loss
199.263	3.0	0.02	774.765	40.0	2	-6.0	-6.0	19.6324	70.0	1.2	Certain	-12.88	-0.1	0.0	No	4.0	-12.7823129251701	2.061	201.324	n/a	GetAnswer	Mixed
201.353	4.0	0.029	776.855	40.0	2	-6.0	-6.0	19.6324	70.0	1.2	Certain	-12.88	-0.1	0.0	No	n/a	-12.7823129251701	n/a	n/a	n/a	ShowChoice	Mixed
205.365	1.0	0.012	780.867	40.0	2	-6.0	-6.0	19.6324	70.0	1.2	Certain	-12.88	-0.1	0.0	No	n/a	-12.7823129251701	n/a	n/a	n/a	ShowResult	Mixed
206.385	3.158	0.02	781.887	40.0	2	-6.0	-6.0	19.6324	70.0	1.2	Certain	-12.88	-0.1	0.0	No	n/a	-12.7823129251701	n/a	n/a	n/a	ISITrial	Mixed
209.578	3.0	0.035	785.08	41.0	2	-3.0	-3.0	19.2574	70.0	0.52	Certain	3.1	-10.14	4.0	Yes	4.0	-13.2380952380952	2.049	211.627	n/a	GetAnswer	Mixed
211.651	4.0	0.024	787.153	41.0	2	-3.0	-3.0	19.2574	70.0	0.52	Certain	3.1	-10.14	4.0	Yes	n/a	-13.2380952380952	n/a	n/a	n/a	ShowChoice	Mixed
215.679	1.0	0.028	791.181	41.0	2	-3.0	-3.0	19.2574	70.0	0.52	Certain	3.1	-10.14	4.0	Yes	n/a	-13.2380952380952	n/a	n/a	n/a	ShowResult	Mixed
216.699	4.506	0.02	792.201	41.0	2	-3.0	-3.0	19.2574	70.0	0.52	Certain	3.1	-10.14	4.0	Yes	n/a	-13.2380952380952	n/a	n/a	n/a	ISITrial	Mixed
221.229	4.0	0.024	796.731	41.0	2	-3.0	-3.0	19.2574	70.0	0.52	Certain	3.1	-10.14	4.0	Yes	n/a	-13.2380952380952	n/a	n/a	n/a	TrialHappPreview	Mixed
225.258	4.029	0.029	800.76	41.0	2	-3.0	-3.0	19.2574	70.0	0.52	Certain	3.1	-10.14	4.0	Yes	n/a	-13.2380952380952	n/a	n/a	492.0	TrialHappiness	Mixed
225.259	0.142	n/a	801.227	41.0	2	-3.0	-3.0	19.2574	70.0	0.52	Certain	3.1	-10.14	4.0	Yes	n/a	-13.2380952380952	n/a	n/a	492.0	TrialHappinessSliderResponse	Mixed
229.287	8.0	4.029	804.789	41.0	2	-3.0	-3.0	19.2574	70.0	0.52	Certain	3.1	-10.14	4.0	Yes	n/a	-13.2380952380952	n/a	n/a	n/a	ISIRate	Mixed
237.311	3.0	0.024	812.813	42.0	2	-5.93	1.0	18.5161	70.0	4.2	Outcome2	8.1	-5.93	0.0	No	2.0	-14.0340136054422	2.046	239.357	n/a	GetAnswer	Gain
239.384	4.0	0.027	814.886	42.0	2	-5.93	1.0	18.5161	70.0	4.2	Outcome2	8.1	-5.93	0.0	No	n/a	-14.0340136054422	n/a	n/a	n/a	ShowChoice	Gain
243.412	1.0	0.028	818.914	42.0	2	-5.93	1.0	18.5161	70.0	4.2	Outcome2	8.1	-5.93	0.0	No	n/a	-14.0340136054422	n/a	n/a	n/a	ShowResult	Gain
244.432	6.248	0.02	819.934	42.0	2	-5.93	1.0	18.5161	70.0	4.2	Outcome2	8.1	-5.93	0.0	No	n/a	-14.0340136054422	n/a	n/a	n/a	ISITrial	Gain
250.701	3.0	0.021	826.203	43.0	2	-2.0	-2.0	18.2661	70.0	1.82	Certain	4.7	-9.81	2.77575	Yes	4.0	-14.5124716553288	1.568	252.269	n/a	GetAnswer	Gain
252.289	4.0	0.02	827.791	43.0	2	-2.0	-2.0	18.2661	70.0	1.82	Certain	4.7	-9.81	2.77575	Yes	n/a	-14.5124716553288	n/a	n/a	n/a	ShowChoice	Gain
256.301	1.0	0.012	831.803	43.0	2	-2.0	-2.0	18.2661	70.0	1.82	Certain	4.7	-9.81	2.77575	Yes	n/a	-14.5124716553288	n/a	n/a	n/a	ShowResult	Gain
257.321	4.596	0.02	832.823	43.0	2	-2.0	-2.0	18.2661	70.0	1.82	Certain	4.7	-9.81	2.77575	Yes	n/a	-14.5124716553288	n/a	n/a	n/a	ISITrial	Gain
261.934	2.776	0.017	837.436	43.0	2	-2.0	-2.0	18.2661	70.0	1.82	Certain	4.7	-9.81	2.77575	Yes	n/a	-14.5124716553288	n/a	n/a	n/a	TrialHappPreview	Gain
264.726	4.012	0.016	840.228	43.0	2	-2.0	-2.0	18.2661	70.0	1.82	Certain	4.7	-9.81	2.77575	Yes	n/a	-14.5124716553288	n/a	n/a	472.0	TrialHappiness	Gain
264.727	0.549	n/a	840.688	43.0	2	-2.0	-2.0	18.2661	70.0	1.82	Certain	4.7	-9.81	2.77575	Yes	n/a	-14.5124716553288	n/a	n/a	472.0	TrialHappinessSliderResponse	Gain
268.738	3.103	4.012	844.24	43.0	2	-2.0	-2.0	18.2661	70.0	1.82	Certain	4.7	-9.81	2.77575	Yes	n/a	-14.5124716553288	n/a	n/a	n/a	ISIRate	Gain
271.864	3.0	0.023	847.366	44.0	2	1.78	0.0	18.4886	70.0	2.22	Outcome2	-0.5	1.78	0.0	No	2.0	2.28439153439153	1.857	273.721	n/a	GetAnswer	Gain
273.737	4.0	0.016	849.239	44.0	2	1.78	0.0	18.4886	70.0	2.22	Outcome2	-0.5	1.78	0.0	No	n/a	2.28439153439153	n/a	n/a	n/a	ShowChoice	Gain
277.749	1.0	0.012	853.251	44.0	2	1.78	0.0	18.4886	70.0	2.22	Outcome2	-0.5	1.78	0.0	No	n/a	2.28439153439153	n/a	n/a	n/a	ShowResult	Gain
278.768	2.42	0.019	854.27	44.0	2	1.78	0.0	18.4886	70.0	2.22	Outcome2	-0.5	1.78	0.0	No	n/a	2.28439153439153	n/a	n/a	n/a	ISITrial	Gain
281.209	3.0	0.021	856.711	45.0	2	-7.0	-7.0	17.6136	70.0	0.3	Certain	0.7	-14.41	0.0	No	4.0	-15.1065759637188	2.436	283.645	n/a	GetAnswer	Mixed
283.666	4.0	0.021	859.168	45.0	2	-7.0	-7.0	17.6136	70.0	0.3	Certain	0.7	-14.41	0.0	No	n/a	-15.1065759637188	n/a	n/a	n/a	ShowChoice	Mixed
287.678	1.0	0.012	863.18	45.0	2	-7.0	-7.0	17.6136	70.0	0.3	Certain	0.7	-14.41	0.0	No	n/a	-15.1065759637188	n/a	n/a	n/a	ShowResult	Mixed
288.698	3.144	0.02	864.2	45.0	2	-7.0	-7.0	17.6136	70.0	0.3	Certain	0.7	-14.41	0.0	No	n/a	-15.1065759637188	n/a	n/a	n/a	ISITrial	Mixed
291.857	3.0	0.015	867.359	46.0	2	-6.66	1.0	16.7811	70.0	2.0	Outcome1	-6.66	8.9	3.84125	Yes	2.0	-15.562358276644002	1.507	293.364	n/a	GetAnswer	Gain
293.379	4.0	0.015	868.881	46.0	2	-6.66	1.0	16.7811	70.0	2.0	Outcome1	-6.66	8.9	3.84125	Yes	n/a	-15.562358276644002	n/a	n/a	n/a	ShowChoice	Gain
297.391	1.0	0.012	872.893	46.0	2	-6.66	1.0	16.7811	70.0	2.0	Outcome1	-6.66	8.9	3.84125	Yes	n/a	-15.562358276644002	n/a	n/a	n/a	ShowResult	Gain
298.41	2.246	0.019	873.912	46.0	2	-6.66	1.0	16.7811	70.0	2.0	Outcome1	-6.66	8.9	3.84125	Yes	n/a	-15.562358276644002	n/a	n/a	n/a	ISITrial	Gain
300.667	3.841	0.011	876.169	46.0	2	-6.66	1.0	16.7811	70.0	2.0	Outcome1	-6.66	8.9	3.84125	Yes	n/a	-15.562358276644002	n/a	n/a	n/a	TrialHappPreview	Gain
304.529	4.012	0.021	880.031	46.0	2	-6.66	1.0	16.7811	70.0	2.0	Outcome1	-6.66	8.9	3.84125	Yes	4{-4}	-15.562358276644002	0.446	304.975	492.0	TrialHappiness	Gain
304.529	0.126	n/a	880.351	46.0	2	-6.66	1.0	16.7811	70.0	2.0	Outcome1	-6.66	8.9	3.84125	Yes	n/a	-15.562358276644002	n/a	n/a	492.0	TrialHappinessSliderResponse	Gain
308.541	7.365	4.012	884.043	46.0	2	-6.66	1.0	16.7811	70.0	2.0	Outcome1	-6.66	8.9	3.84125	Yes	n/a	-15.562358276644002	n/a	n/a	n/a	ISIRate	Gain
315.93	3.0	0.024	891.432	47.0	2	-6.06	2.0	16.0236	70.0	5.0	Outcome1	-6.06	10.3	0.0	No	2.0	-16.3582766439909	1.616	317.546	n/a	GetAnswer	Gain
317.568	4.0	0.022	893.07	47.0	2	-6.06	2.0	16.0236	70.0	5.0	Outcome1	-6.06	10.3	0.0	No	n/a	-16.3582766439909	n/a	n/a	n/a	ShowChoice	Gain
321.58	1.0	0.012	897.082	47.0	2	-6.06	2.0	16.0236	70.0	5.0	Outcome1	-6.06	10.3	0.0	No	n/a	-16.3582766439909	n/a	n/a	n/a	ShowResult	Gain
322.6	2.0	0.02	898.102	47.0	2	-6.06	2.0	16.0236	70.0	5.0	Outcome1	-6.06	10.3	0.0	No	n/a	-16.3582766439909	n/a	n/a	n/a	ISITrial	Gain
324.622	3.0	0.022	900.124	48.0	2	2.0	2.0	16.2736	70.0	3.6	Certain	0.96	3.48	2.83175	Yes	4.0	2.5194633408919103	2.811	327.433	n/a	GetAnswer	Loss
327.447	4.0	0.014	902.949	48.0	2	2.0	2.0	16.2736	70.0	3.6	Certain	0.96	3.48	2.83175	Yes	n/a	2.5194633408919103	n/a	n/a	n/a	ShowChoice	Loss
331.459	1.0	0.012	906.961	48.0	2	2.0	2.0	16.2736	70.0	3.6	Certain	0.96	3.48	2.83175	Yes	n/a	2.5194633408919103	n/a	n/a	n/a	ShowResult	Loss
332.479	3.692	0.02	907.981	48.0	2	2.0	2.0	16.2736	70.0	3.6	Certain	0.96	3.48	2.83175	Yes	n/a	2.5194633408919103	n/a	n/a	n/a	ISITrial	Loss
336.19	2.832	0.019	911.692	48.0	2	2.0	2.0	16.2736	70.0	3.6	Certain	0.96	3.48	2.83175	Yes	n/a	2.5194633408919103	n/a	n/a	n/a	TrialHappPreview	Loss
339.049	4.012	0.027	914.551	48.0	2	2.0	2.0	16.2736	70.0	3.6	Certain	0.96	3.48	2.83175	Yes	n/a	2.5194633408919103	n/a	n/a	492.0	TrialHappiness	Loss
339.05	0.109	n/a	914.951	48.0	2	2.0	2.0	16.2736	70.0	3.6	Certain	0.96	3.48	2.83175	Yes	n/a	2.5194633408919103	n/a	n/a	492.0	TrialHappinessSliderResponse	Loss
343.061	3.327	4.012	918.563	48.0	2	2.0	2.0	16.2736	70.0	3.6	Certain	0.96	3.48	2.83175	Yes	n/a	2.5194633408919103	n/a	n/a	n/a	ISIRate	Loss
346.404	3.0	0.016	921.906	49.0	2	-2.0	-2.0	16.0236	70.0	4.2	Certain	-11.22	6.1	0.0	No	4.0	-17.3151927437642	2.354	348.758	n/a	GetAnswer	Gain
348.778	4.0	0.02	924.28	49.0	2	-2.0	-2.0	16.0236	70.0	4.2	Certain	-11.22	6.1	0.0	No	n/a	-17.3151927437642	n/a	n/a	n/a	ShowChoice	Gain
352.79	1.0	0.012	928.292	49.0	2	-2.0	-2.0	16.0236	70.0	4.2	Certain	-11.22	6.1	0.0	No	n/a	-17.3151927437642	n/a	n/a	n/a	ShowResult	Gain
353.81	8.0	0.02	929.312	49.0	2	-2.0	-2.0	16.0236	70.0	4.2	Certain	-11.22	6.1	0.0	No	n/a	-17.3151927437642	n/a	n/a	n/a	ISITrial	Gain
361.834	3.0	0.024	937.336	50.0	2	-5.09	-2.54	15.3874	70.0	1.82	Outcome1	-5.09	12.7	3.54725	Yes	2.0	-17.7936507936508	1.695	363.529	n/a	GetAnswer	Loss
363.556	4.0	0.026	939.058	50.0	2	-5.09	-2.54	15.3874	70.0	1.82	Outcome1	-5.09	12.7	3.54725	Yes	n/a	-17.7936507936508	n/a	n/a	n/a	ShowChoice	Loss
367.568	1.0	0.012	943.07	50.0	2	-5.09	-2.54	15.3874	70.0	1.82	Outcome1	-5.09	12.7	3.54725	Yes	n/a	-17.7936507936508	n/a	n/a	n/a	ShowResult	Loss
368.587	7.537	0.019	944.089	50.0	2	-5.09	-2.54	15.3874	70.0	1.82	Outcome1	-5.09	12.7	3.54725	Yes	n/a	-17.7936507936508	n/a	n/a	n/a	ISITrial	Loss
376.143	3.547	0.019	951.645	50.0	2	-5.09	-2.54	15.3874	70.0	1.82	Outcome1	-5.09	12.7	3.54725	Yes	n/a	-17.7936507936508	n/a	n/a	n/a	TrialHappPreview	Loss
379.721	4.012	0.031	955.223	50.0	2	-5.09	-2.54	15.3874	70.0	1.82	Outcome1	-5.09	12.7	3.54725	Yes	n/a	-17.7936507936508	n/a	n/a	472.0	TrialHappiness	Loss
379.721	0.236	n/a	955.613	50.0	2	-5.09	-2.54	15.3874	70.0	1.82	Outcome1	-5.09	12.7	3.54725	Yes	n/a	-17.7936507936508	n/a	n/a	472.0	TrialHappinessSliderResponse	Loss
383.733	6.189	4.012	959.235	50.0	2	-5.09	-2.54	15.3874	70.0	1.82	Outcome1	-5.09	12.7	3.54725	Yes	n/a	-17.7936507936508	n/a	n/a	n/a	ISIRate	Loss
389.951	3.0	0.029	965.453	51.0	2	0.0	0.0	15.3874	70.0	1.82	Certain	-9.23	8.7	0.0	No	4.0	-17.9319727891156	1.685	391.636	n/a	GetAnswer	Gain
391.657	4.0	0.021	967.159	51.0	2	0.0	0.0	15.3874	70.0	1.82	Certain	-9.23	8.7	0.0	No	n/a	-17.9319727891156	n/a	n/a	n/a	ShowChoice	Gain
395.669	1.0	0.012	971.171	51.0	2	0.0	0.0	15.3874	70.0	1.82	Certain	-9.23	8.7	0.0	No	n/a	-17.9319727891156	n/a	n/a	n/a	ShowResult	Gain
396.688	5.508	0.019	972.19	51.0	2	0.0	0.0	15.3874	70.0	1.82	Certain	-9.23	8.7	0.0	No	n/a	-17.9319727891156	n/a	n/a	n/a	ISITrial	Gain
402.222	3.0	0.026	977.724	52.0	2	2.48	1.0	15.6974	70.0	3.6	Outcome2	-0.12	2.48	0.0	No	2.0	2.5958049886621297	2.205	404.427	n/a	GetAnswer	Gain
404.445	4.0	0.018	979.947	52.0	2	2.48	1.0	15.6974	70.0	3.6	Outcome2	-0.12	2.48	0.0	No	n/a	2.5958049886621297	n/a	n/a	n/a	ShowChoice	Gain
408.457	1.0	0.012	983.959	52.0	2	2.48	1.0	15.6974	70.0	3.6	Outcome2	-0.12	2.48	0.0	No	n/a	2.5958049886621297	n/a	n/a	n/a	ShowResult	Gain
409.477	5.913	0.02	984.979	52.0	2	2.48	1.0	15.6974	70.0	3.6	Outcome2	-0.12	2.48	0.0	No	n/a	2.5958049886621297	n/a	n/a	n/a	ISITrial	Gain
415.411	3.0	0.021	990.913	53.0	2	-5.0	-5.0	15.0724	70.0	1.0	Certain	3.7	-15.14	2.99675	Yes	4.0	-18.843537414966	1.559	416.97	n/a	GetAnswer	Mixed
416.982	4.0	0.012	992.484	53.0	2	-5.0	-5.0	15.0724	70.0	1.0	Certain	3.7	-15.14	2.99675	Yes	n/a	-18.843537414966	n/a	n/a	n/a	ShowChoice	Mixed
420.994	1.0	0.012	996.496	53.0	2	-5.0	-5.0	15.0724	70.0	1.0	Certain	3.7	-15.14	2.99675	Yes	n/a	-18.843537414966	n/a	n/a	n/a	ShowResult	Mixed
422.014	3.66	0.02	997.516	53.0	2	-5.0	-5.0	15.0724	70.0	1.0	Certain	3.7	-15.14	2.99675	Yes	n/a	-18.843537414966	n/a	n/a	n/a	ISITrial	Mixed
425.692	2.997	0.018	1001.194	53.0	2	-5.0	-5.0	15.0724	70.0	1.0	Certain	3.7	-15.14	2.99675	Yes	n/a	-18.843537414966	n/a	n/a	n/a	TrialHappPreview	Mixed
428.718	4.012	0.029	1004.22	53.0	2	-5.0	-5.0	15.0724	70.0	1.0	Certain	3.7	-15.14	2.99675	Yes	n/a	-18.843537414966	n/a	n/a	472.0	TrialHappiness	Mixed
428.718	0.48	n/a	1004.697	53.0	2	-5.0	-5.0	15.0724	70.0	1.0	Certain	3.7	-15.14	2.99675	Yes	n/a	-18.843537414966	n/a	n/a	472.0	TrialHappinessSliderResponse	Mixed
432.73	3.987	4.012	1008.232	53.0	2	-5.0	-5.0	15.0724	70.0	1.0	Certain	3.7	-15.14	2.99675	Yes	n/a	-18.843537414966	n/a	n/a	n/a	ISIRate	Mixed
436.742	3.0	0.025	1012.244	54.0	2	-8.8	1.0	13.9724	70.0	1.68	Outcome1	-8.8	10.5	0.0	No	2.0	-19.299319727891103	1.795	438.537	n/a	GetAnswer	Loss
438.564	4.0	0.027	1014.066	54.0	2	-8.8	1.0	13.9724	70.0	1.68	Outcome1	-8.8	10.5	0.0	No	n/a	-19.299319727891103	n/a	n/a	n/a	ShowChoice	Loss
442.576	1.0	0.012	1018.078	54.0	2	-8.8	1.0	13.9724	70.0	1.68	Outcome1	-8.8	10.5	0.0	No	n/a	-19.299319727891103	n/a	n/a	n/a	ShowResult	Loss
443.595	8.0	0.019	1019.097	54.0	2	-8.8	1.0	13.9724	70.0	1.68	Outcome1	-8.8	10.5	0.0	No	n/a	-19.299319727891103	n/a	n/a	n/a	ISITrial	Loss
505.632	0.0	n/a	1081.134	n/a	2	n/a	n/a	n/a	n/a	n/a	n/a	n/a	n/a	n/a	n/a	n/a	n/a	n/a	n/a	512.0	BlockStartHappinessSliderResponse	n/a
-67.184	-0.001	0.025	1027.122	n/a	3	n/a	n/a	n/a	n/a	n/a	n/a	n/a	n/a	n/a	n/a	{SPACE}	n/a	49.987	-17.197	n/a	Rest	n/a
-17.185	4.0	0.012	1077.121	n/a	3	n/a	n/a	n/a	n/a	n/a	n/a	n/a	n/a	n/a	n/a	n/a	n/a	n/a	n/a	n/a	BlockHappyPreview	n/a
-13.173	0.0	0.012	1081.133	n/a	3	n/a	n/a	n/a	n/a	n/a	n/a	n/a	n/a	n/a	n/a	n/a	n/a	n/a	n/a	512.0	BlockStartHappiness	n/a
-6.787	-0.001	0.01	1087.519	n/a	3	n/a	n/a	n/a	n/a	n/a	n/a	n/a	n/a	n/a	n/a	5.0	n/a	6.763	-0.024	n/a	ScanWait	n/a
0.0	10.0	0.024	1094.306	n/a	3	n/a	n/a	n/a	n/a	n/a	n/a	n/a	n/a	n/a	n/a	n/a	n/a	n/a	n/a	n/a	GetReady	n/a
10.014	3.0	0.014	1104.32	55.0	3	12.9	2.68	15.5849	955.0	2.0	Outcome2	5.37	12.9	2.53325	Yes	2.0	7.52548131370328	1.131	11.145	n/a	GetAnswer	Loss
11.167	4.0	0.022	1105.473	55.0	3	12.9	2.68	15.5849	955.0	2.0	Outcome2	5.37	12.9	2.53325	Yes	n/a	7.52548131370328	n/a	n/a	n/a	ShowChoice	Loss
15.179	1.0	0.012	1109.485	55.0	3	12.9	2.68	15.5849	955.0	2.0	Outcome2	5.37	12.9	2.53325	Yes	n/a	7.52548131370328	n/a	n/a	n/a	ShowResult	Loss
16.199	7.709	0.02	1110.505	55.0	3	12.9	2.68	15.5849	955.0	2.0	Outcome2	5.37	12.9	2.53325	Yes	n/a	7.52548131370328	n/a	n/a	n/a	ISITrial	Loss
23.922	2.533	0.014	1118.228	55.0	3	12.9	2.68	15.5849	955.0	2.0	Outcome2	5.37	12.9	2.53325	Yes	n/a	7.52548131370328	n/a	n/a	n/a	TrialHappPreview	Loss
26.48	4.012	0.025	1120.786	55.0	3	12.9	2.68	15.5849	955.0	2.0	Outcome2	5.37	12.9	2.53325	Yes	n/a	7.52548131370328	n/a	n/a	512.0	TrialHappiness	Loss
26.48	0.0	n/a	1120.786	55.0	3	12.9	2.68	15.5849	955.0	2.0	Outcome2	5.37	12.9	2.53325	Yes	n/a	7.52548131370328	n/a	n/a	512.0	TrialHappinessSliderResponse	Loss
30.492	2.133	4.012	1124.798	55.0	3	12.9	2.68	15.5849	955.0	2.0	Outcome2	5.37	12.9	2.53325	Yes	n/a	7.52548131370328	n/a	n/a	n/a	ISIRate	Loss
32.648	3.0	0.023	1126.954	56.0	3	4.3	0.0	16.1224	955.0	2.0	Outcome2	-3.73	4.3	0.0	No	2.0	8.02718006795017	1.361	34.009	n/a	GetAnswer	Mixed
34.036	4.0	0.027	1128.342	56.0	3	4.3	0.0	16.1224	955.0	2.0	Outcome2	-3.73	4.3	0.0	No	n/a	8.02718006795017	n/a	n/a	n/a	ShowChoice	Mixed
38.048	1.0	0.012	1132.354	56.0	3	4.3	0.0	16.1224	955.0	2.0	Outcome2	-3.73	4.3	0.0	No	n/a	8.02718006795017	n/a	n/a	n/a	ShowResult	Mixed
39.067	4.697	0.019	1133.373	56.0	3	4.3	0.0	16.1224	955.0	2.0	Outcome2	-3.73	4.3	0.0	No	n/a	8.02718006795017	n/a	n/a	n/a	ISITrial	Mixed
43.781	3.0	0.017	1138.087	57.0	3	0.42	1.0	16.1749	955.0	2.0	Outcome2	2.3	0.42	0.0	No	2.0	-1.88137032842582	2.465	46.246	n/a	GetAnswer	Mixed
46.272	4.0	0.026	1140.578	57.0	3	0.42	1.0	16.1749	955.0	2.0	Outcome2	2.3	0.42	0.0	No	n/a	-1.88137032842582	n/a	n/a	n/a	ShowChoice	Mixed
50.284	1.0	0.012	1144.59	57.0	3	0.42	1.0	16.1749	955.0	2.0	Outcome2	2.3	0.42	0.0	No	n/a	-1.88137032842582	n/a	n/a	n/a	ShowResult	Mixed
51.304	4.291	0.02	1145.61	57.0	3	0.42	1.0	16.1749	955.0	2.0	Outcome2	2.3	0.42	0.0	No	n/a	-1.88137032842582	n/a	n/a	n/a	ISITrial	Mixed
55.617	3.0	0.022	1149.923	58.0	3	-1.1	-5.0	16.0374	955.0	0.4	Outcome1	-1.1	-10.13	3.04575	Yes	n/a	9.03057757644394	n/a	n/a	n/a	GetAnswer	Mixed
58.643	4.0	0.026	1152.949	58.0	3	-1.1	-5.0	16.0374	955.0	0.4	Outcome1	-1.1	-10.13	3.04575	Yes	n/a	9.03057757644394	n/a	n/a	n/a	ShowChoice	Mixed
62.655	1.0	0.012	1156.961	58.0	3	-1.1	-5.0	16.0374	955.0	0.4	Outcome1	-1.1	-10.13	3.04575	Yes	n/a	9.03057757644394	n/a	n/a	n/a	ShowResult	Mixed
63.674	2.037	0.019	1157.98	58.0	3	-1.1	-5.0	16.0374	955.0	0.4	Outcome1	-1.1	-10.13	3.04575	Yes	n/a	9.03057757644394	n/a	n/a	n/a	ISITrial	Mixed
65.73	3.046	0.019	1160.036	58.0	3	-1.1	-5.0	16.0374	955.0	0.4	Outcome1	-1.1	-10.13	3.04575	Yes	n/a	9.03057757644394	n/a	n/a	n/a	TrialHappPreview	Mixed
68.806	4.012	0.03	1163.112	58.0	3	-1.1	-5.0	16.0374	955.0	0.4	Outcome1	-1.1	-10.13	3.04575	Yes	n/a	9.03057757644394	n/a	n/a	512.0	TrialHappiness	Mixed
68.807	0.0	n/a	1163.113	58.0	3	-1.1	-5.0	16.0374	955.0	0.4	Outcome1	-1.1	-10.13	3.04575	Yes	n/a	9.03057757644394	n/a	n/a	512.0	TrialHappinessSliderResponse	Mixed
72.818	4.183	4.012	1167.124	58.0	3	-1.1	-5.0	16.0374	955.0	0.4	Outcome1	-1.1	-10.13	3.04575	Yes	n/a	9.03057757644394	n/a	n/a	n/a	ISIRate	Mixed
77.031	3.0	0.03	1171.337	59.0	3	9.7	0.08	17.2499	955.0	3.16	Outcome1	9.7	0.17	0.0	No	2.0	9.532276330690827	2.316	79.347	n/a	GetAnswer	Gain
79.371	4.0	0.024	1173.677	59.0	3	9.7	0.08	17.2499	955.0	3.16	Outcome1	9.7	0.17	0.0	No	n/a	9.532276330690827	n/a	n/a	n/a	ShowChoice	Gain
83.383	1.0	0.012	1177.689	59.0	3	9.7	0.08	17.2499	955.0	3.16	Outcome1	9.7	0.17	0.0	No	n/a	9.532276330690827	n/a	n/a	n/a	ShowResult	Gain
84.403	5.064	0.02	1178.709	59.0	3	9.7	0.08	17.2499	955.0	3.16	Outcome1	9.7	0.17	0.0	No	n/a	9.532276330690827	n/a	n/a	n/a	ISITrial	Gain
89.485	3.0	0.018	1183.791	60.0	3	5.1	0.0	17.8874	955.0	2.22	Outcome1	5.1	-4.93	3.5625	Yes	2.0	10.0339750849377	2.206	91.691	n/a	GetAnswer	Gain
91.708	4.0	0.017	1186.014	60.0	3	5.1	0.0	17.8874	955.0	2.22	Outcome1	5.1	-4.93	3.5625	Yes	n/a	10.0339750849377	n/a	n/a	n/a	ShowChoice	Gain
95.72	1.0	0.012	1190.026	60.0	3	5.1	0.0	17.8874	955.0	2.22	Outcome1	5.1	-4.93	3.5625	Yes	n/a	10.0339750849377	n/a	n/a	n/a	ShowResult	Gain
96.74	8.0	0.02	1191.046	60.0	3	5.1	0.0	17.8874	955.0	2.22	Outcome1	5.1	-4.93	3.5625	Yes	n/a	10.0339750849377	n/a	n/a	n/a	ISITrial	Gain
104.764	3.562	0.024	1199.07	60.0	3	5.1	0.0	17.8874	955.0	2.22	Outcome1	5.1	-4.93	3.5625	Yes	n/a	10.0339750849377	n/a	n/a	n/a	TrialHappPreview	Gain
108.341	4.013	0.015	1202.647	60.0	3	5.1	0.0	17.8874	955.0	2.22	Outcome1	5.1	-4.93	3.5625	Yes	n/a	10.0339750849377	n/a	n/a	532.0	TrialHappiness	Gain
108.342	0.07	n/a	1203.352	60.0	3	5.1	0.0	17.8874	955.0	2.22	Outcome1	5.1	-4.93	3.5625	Yes	n/a	10.0339750849377	n/a	n/a	532.0	TrialHappinessSliderResponse	Gain
112.354	6.25	4.013	1206.66	60.0	3	5.1	0.0	17.8874	955.0	2.22	Outcome1	5.1	-4.93	3.5625	Yes	n/a	10.0339750849377	n/a	n/a	n/a	ISIRate	Gain
118.622	3.0	0.018	1212.928	61.0	3	-3.0	-3.0	17.5124	955.0	1.0	Certain	1.7	-8.5	0.0	No	4.0	10.1959229898075	1.318	119.94	n/a	GetAnswer	Mixed
119.96	4.0	0.02	1214.266	61.0	3	-3.0	-3.0	17.5124	955.0	1.0	Certain	1.7	-8.5	0.0	No	n/a	10.1959229898075	n/a	n/a	n/a	ShowChoice	Mixed
123.972	1.0	0.012	1218.278	61.0	3	-3.0	-3.0	17.5124	955.0	1.0	Certain	1.7	-8.5	0.0	No	n/a	10.1959229898075	n/a	n/a	n/a	ShowResult	Mixed
124.991	4.586	0.019	1219.297	61.0	3	-3.0	-3.0	17.5124	955.0	1.0	Certain	1.7	-8.5	0.0	No	n/a	10.1959229898075	n/a	n/a	n/a	ISITrial	Mixed
129.605	3.0	0.028	1223.911	62.0	3	4.29	2.14	18.0486	955.0	5.0	Outcome2	6.3	4.29	3.74875	Yes	2.0	-2.00736126840317	1.139	130.744	n/a	GetAnswer	Gain
130.759	4.0	0.015	1225.065	62.0	3	4.29	2.14	18.0486	955.0	5.0	Outcome2	6.3	4.29	3.74875	Yes	n/a	-2.00736126840317	n/a	n/a	n/a	ShowChoice	Gain
134.771	1.0	0.012	1229.077	62.0	3	4.29	2.14	18.0486	955.0	5.0	Outcome2	6.3	4.29	3.74875	Yes	n/a	-2.00736126840317	n/a	n/a	n/a	ShowResult	Gain
135.79	5.212	0.019	1230.096	62.0	3	4.29	2.14	18.0486	955.0	5.0	Outcome2	6.3	4.29	3.74875	Yes	n/a	-2.00736126840317	n/a	n/a	n/a	ISITrial	Gain
141.023	3.749	0.021	1235.329	62.0	3	4.29	2.14	18.0486	955.0	5.0	Outcome2	6.3	4.29	3.74875	Yes	n/a	-2.00736126840317	n/a	n/a	n/a	TrialHappPreview	Gain
144.801	4.012	0.029	1239.107	62.0	3	4.29	2.14	18.0486	955.0	5.0	Outcome2	6.3	4.29	3.74875	Yes	n/a	-2.00736126840317	n/a	n/a	532.0	TrialHappiness	Gain
144.801	0.129	n/a	1241.389	62.0	3	4.29	2.14	18.0486	955.0	5.0	Outcome2	6.3	4.29	3.74875	Yes	n/a	-2.00736126840317	n/a	n/a	532.0	TrialHappinessSliderResponse	Gain
148.813	6.995	4.012	1243.119	62.0	3	4.29	2.14	18.0486	955.0	5.0	Outcome2	6.3	4.29	3.74875	Yes	n/a	-2.00736126840317	n/a	n/a	n/a	ISIRate	Gain
155.834	3.0	0.026	1250.14	63.0	3	11.25	5.62	19.4548	955.0	2.48	Outcome2	13.3	11.25	0.0	No	2.0	-2.04728199320498	1.266	157.1	n/a	GetAnswer	Loss
157.121	4.0	0.021	1251.427	63.0	3	11.25	5.62	19.4548	955.0	2.48	Outcome2	13.3	11.25	0.0	No	n/a	-2.04728199320498	n/a	n/a	n/a	ShowChoice	Loss
161.133	1.0	0.012	1255.439	63.0	3	11.25	5.62	19.4548	955.0	2.48	Outcome2	13.3	11.25	0.0	No	n/a	-2.04728199320498	n/a	n/a	n/a	ShowResult	Loss
162.153	5.595	0.02	1256.459	63.0	3	11.25	5.62	19.4548	955.0	2.48	Outcome2	13.3	11.25	0.0	No	n/a	-2.04728199320498	n/a	n/a	n/a	ISITrial	Loss
167.77	3.0	0.022	1262.076	64.0	3	6.9	1.0	20.3173	955.0	2.0	Outcome1	6.9	-4.73	0.0	No	2.0	11.633069082672698	1.39	169.16	n/a	GetAnswer	Gain
169.174	4.0	0.014	1263.48	64.0	3	6.9	1.0	20.3173	955.0	2.0	Outcome1	6.9	-4.73	0.0	No	n/a	11.633069082672698	n/a	n/a	n/a	ShowChoice	Gain
173.186	1.0	0.012	1267.492	64.0	3	6.9	1.0	20.3173	955.0	2.0	Outcome1	6.9	-4.73	0.0	No	n/a	11.633069082672698	n/a	n/a	n/a	ShowResult	Gain
174.206	5.47	0.02	1268.512	64.0	3	6.9	1.0	20.3173	955.0	2.0	Outcome1	6.9	-4.73	0.0	No	n/a	11.633069082672698	n/a	n/a	n/a	ISITrial	Gain
179.705	3.0	0.029	1274.011	65.0	3	1.1	-5.0	20.4548	955.0	0.52	Outcome1	1.1	-11.01	2.99675	Yes	2.0	12.1121177802945	1.864	181.569	n/a	GetAnswer	Mixed
181.594	4.0	0.025	1275.9	65.0	3	1.1	-5.0	20.4548	955.0	0.52	Outcome1	1.1	-11.01	2.99675	Yes	n/a	12.1121177802945	n/a	n/a	n/a	ShowChoice	Mixed
185.606	1.0	0.012	1279.912	65.0	3	1.1	-5.0	20.4548	955.0	0.52	Outcome1	1.1	-11.01	2.99675	Yes	n/a	12.1121177802945	n/a	n/a	n/a	ShowResult	Mixed
186.626	3.344	0.02	1280.932	65.0	3	1.1	-5.0	20.4548	955.0	0.52	Outcome1	1.1	-11.01	2.99675	Yes	n/a	12.1121177802945	n/a	n/a	n/a	ISITrial	Mixed
189.986	2.997	0.016	1284.292	65.0	3	1.1	-5.0	20.4548	955.0	0.52	Outcome1	1.1	-11.01	2.99675	Yes	n/a	12.1121177802945	n/a	n/a	n/a	TrialHappPreview	Mixed
193.012	4.029	0.029	1287.318	65.0	3	1.1	-5.0	20.4548	955.0	0.52	Outcome1	1.1	-11.01	2.99675	Yes	n/a	12.1121177802945	n/a	n/a	532.0	TrialHappiness	Mixed
193.012	0.057	n/a	1287.696	65.0	3	1.1	-5.0	20.4548	955.0	0.52	Outcome1	1.1	-11.01	2.99675	Yes	n/a	12.1121177802945	n/a	n/a	532.0	TrialHappinessSliderResponse	Mixed
197.041	3.987	4.029	1291.347	65.0	3	1.1	-5.0	20.4548	955.0	0.52	Outcome1	1.1	-11.01	2.99675	Yes	n/a	12.1121177802945	n/a	n/a	n/a	ISIRate	Mixed
201.053	3.0	0.025	1295.359	66.0	3	-2.07	-1.0	20.196	955.0	1.5	Outcome2	0.1	-2.07	0.0	No	2.0	-2.16704416761042	2.794	203.847	n/a	GetAnswer	Mixed
203.878	4.0	0.03	1298.184	66.0	3	-2.07	-1.0	20.196	955.0	1.5	Outcome2	0.1	-2.07	0.0	No	n/a	-2.16704416761042	n/a	n/a	n/a	ShowChoice	Mixed
207.906	1.0	0.028	1302.212	66.0	3	-2.07	-1.0	20.196	955.0	1.5	Outcome2	0.1	-2.07	0.0	No	n/a	-2.16704416761042	n/a	n/a	n/a	ShowResult	Mixed
208.926	3.959	0.02	1303.232	66.0	3	-2.07	-1.0	20.196	955.0	1.5	Outcome2	0.1	-2.07	0.0	No	n/a	-2.16704416761042	n/a	n/a	n/a	ISITrial	Mixed
212.905	3.0	0.02	1307.211	67.0	3	13.1	0.02	21.8335	955.0	2.22	Outcome1	13.1	0.03	2.9185	Yes	2.0	13.070215175537902	1.488	214.393	n/a	GetAnswer	Loss
214.409	4.0	0.016	1308.715	67.0	3	13.1	0.02	21.8335	955.0	2.22	Outcome1	13.1	0.03	2.9185	Yes	n/a	13.070215175537902	n/a	n/a	n/a	ShowChoice	Loss
218.438	1.0	0.029	1312.744	67.0	3	13.1	0.02	21.8335	955.0	2.22	Outcome1	13.1	0.03	2.9185	Yes	n/a	13.070215175537902	n/a	n/a	n/a	ShowResult	Loss
219.458	4.199	0.02	1313.764	67.0	3	13.1	0.02	21.8335	955.0	2.22	Outcome1	13.1	0.03	2.9185	Yes	n/a	13.070215175537902	n/a	n/a	n/a	ISITrial	Loss
223.67	2.918	0.013	1317.976	67.0	3	13.1	0.02	21.8335	955.0	2.22	Outcome1	13.1	0.03	2.9185	Yes	n/a	13.070215175537902	n/a	n/a	n/a	TrialHappPreview	Loss
226.613	4.028	0.025	1320.919	67.0	3	13.1	0.02	21.8335	955.0	2.22	Outcome1	13.1	0.03	2.9185	Yes	2{-2}	13.070215175537902	0.51	227.123	528.0	TrialHappiness	Loss
226.613	0.177	n/a	1321.252	67.0	3	13.1	0.02	21.8335	955.0	2.22	Outcome1	13.1	0.03	2.9185	Yes	n/a	13.070215175537902	n/a	n/a	528.0	TrialHappinessSliderResponse	Loss
230.641	3.674	4.028	1324.947	67.0	3	13.1	0.02	21.8335	955.0	2.22	Outcome1	13.1	0.03	2.9185	Yes	n/a	13.070215175537902	n/a	n/a	n/a	ISIRate	Loss
234.336	3.0	0.021	1328.642	68.0	3	0.5	-6.0	21.896	955.0	0.2	Outcome1	0.5	-13.12	0.0	No	2.0	13.6172140430351	1.996	236.332	n/a	GetAnswer	Mixed
236.358	4.0	0.026	1330.664	68.0	3	0.5	-6.0	21.896	955.0	0.2	Outcome1	0.5	-13.12	0.0	No	n/a	13.6172140430351	n/a	n/a	n/a	ShowChoice	Mixed
240.37	1.0	0.012	1334.676	68.0	3	0.5	-6.0	21.896	955.0	0.2	Outcome1	0.5	-13.12	0.0	No	n/a	13.6172140430351	n/a	n/a	n/a	ShowResult	Mixed
241.39	2.185	0.02	1335.696	68.0	3	0.5	-6.0	21.896	955.0	0.2	Outcome1	0.5	-13.12	0.0	No	n/a	13.6172140430351	n/a	n/a	n/a	ISITrial	Mixed
243.597	3.0	0.022	1337.903	69.0	3	9.5	2.0	23.0835	955.0	2.8	Outcome2	-4.6	9.5	0.0	No	2.0	14.1007927519819	1.331	244.928	n/a	GetAnswer	Gain
244.951	4.0	0.023	1339.257	69.0	3	9.5	2.0	23.0835	955.0	2.8	Outcome2	-4.6	9.5	0.0	No	n/a	14.1007927519819	n/a	n/a	n/a	ShowChoice	Gain
248.963	1.0	0.012	1343.269	69.0	3	9.5	2.0	23.0835	955.0	2.8	Outcome2	-4.6	9.5	0.0	No	n/a	14.1007927519819	n/a	n/a	n/a	ShowResult	Gain
249.983	2.0	0.02	1344.289	69.0	3	9.5	2.0	23.0835	955.0	2.8	Outcome2	-4.6	9.5	0.0	No	n/a	14.1007927519819	n/a	n/a	n/a	ISITrial	Gain
252.005	3.0	0.022	1346.311	70.0	3	-0.3	-7.0	23.046	955.0	1.0	Outcome2	-14.88	-0.3	3.65125	Yes	2.0	14.5843714609287	2.477	254.482	n/a	GetAnswer	Mixed
254.496	4.0	0.014	1348.802	70.0	3	-0.3	-7.0	23.046	955.0	1.0	Outcome2	-14.88	-0.3	3.65125	Yes	n/a	14.5843714609287	n/a	n/a	n/a	ShowChoice	Mixed
258.508	1.0	0.012	1352.814	70.0	3	-0.3	-7.0	23.046	955.0	1.0	Outcome2	-14.88	-0.3	3.65125	Yes	n/a	14.5843714609287	n/a	n/a	n/a	ShowResult	Mixed
259.528	2.623	0.02	1353.834	70.0	3	-0.3	-7.0	23.046	955.0	1.0	Outcome2	-14.88	-0.3	3.65125	Yes	n/a	14.5843714609287	n/a	n/a	n/a	ISITrial	Mixed
262.169	3.651	0.018	1356.475	70.0	3	-0.3	-7.0	23.046	955.0	1.0	Outcome2	-14.88	-0.3	3.65125	Yes	n/a	14.5843714609287	n/a	n/a	n/a	TrialHappPreview	Mixed
265.847	4.029	0.027	1360.153	70.0	3	-0.3	-7.0	23.046	955.0	1.0	Outcome2	-14.88	-0.3	3.65125	Yes	n/a	14.5843714609287	n/a	n/a	524.0	TrialHappiness	Mixed
265.847	3.172	n/a	1360.659	70.0	3	-0.3	-7.0	23.046	955.0	1.0	Outcome2	-14.88	-0.3	3.65125	Yes	n/a	14.5843714609287	n/a	n/a	524.0	TrialHappinessSliderResponse	Mixed
269.876	6.605	4.029	1364.182	70.0	3	-0.3	-7.0	23.046	955.0	1.0	Outcome2	-14.88	-0.3	3.65125	Yes	n/a	14.5843714609287	n/a	n/a	n/a	ISIRate	Mixed
276.512	3.0	0.031	1370.818	71.0	3	0.9	2.0	23.1585	955.0	0.66	Outcome2	3.3	0.9	0.0	No	2.0	-2.40024537561344	1.501	278.013	n/a	GetAnswer	Mixed
278.033	4.0	0.02	1372.339	71.0	3	0.9	2.0	23.1585	955.0	0.66	Outcome2	3.3	0.9	0.0	No	n/a	-2.40024537561344	n/a	n/a	n/a	ShowChoice	Mixed
282.045	1.0	0.012	1376.351	71.0	3	0.9	2.0	23.1585	955.0	0.66	Outcome2	3.3	0.9	0.0	No	n/a	-2.40024537561344	n/a	n/a	n/a	ShowResult	Mixed
283.065	5.499	0.02	1377.371	71.0	3	0.9	2.0	23.1585	955.0	0.66	Outcome2	3.3	0.9	0.0	No	n/a	-2.40024537561344	n/a	n/a	n/a	ISITrial	Mixed
288.582	3.0	0.018	1382.888	72.0	3	5.7	-2.0	23.871	955.0	3.16	Outcome2	-9.92	5.7	3.0805	Yes	2.0	15.6240090600226	1.933	290.515	n/a	GetAnswer	Gain
290.537	4.0	0.022	1384.843	72.0	3	5.7	-2.0	23.871	955.0	3.16	Outcome2	-9.92	5.7	3.0805	Yes	n/a	15.6240090600226	n/a	n/a	n/a	ShowChoice	Gain
294.549	1.0	0.012	1388.855	72.0	3	5.7	-2.0	23.871	955.0	3.16	Outcome2	-9.92	5.7	3.0805	Yes	n/a	15.6240090600226	n/a	n/a	n/a	ShowResult	Gain
295.569	5.672	0.02	1389.875	72.0	3	5.7	-2.0	23.871	955.0	3.16	Outcome2	-9.92	5.7	3.0805	Yes	n/a	15.6240090600226	n/a	n/a	n/a	ISITrial	Gain
301.27	3.08	0.029	1395.576	72.0	3	5.7	-2.0	23.871	955.0	3.16	Outcome2	-9.92	5.7	3.0805	Yes	n/a	15.6240090600226	n/a	n/a	n/a	TrialHappPreview	Gain
304.379	4.029	0.029	1398.685	72.0	3	5.7	-2.0	23.871	955.0	3.16	Outcome2	-9.92	5.7	3.0805	Yes	n/a	15.6240090600226	n/a	n/a	552.0	TrialHappiness	Gain
304.379	0.783	n/a	1399.12	72.0	3	5.7	-2.0	23.871	955.0	3.16	Outcome2	-9.92	5.7	3.0805	Yes	n/a	15.6240090600226	n/a	n/a	552.0	TrialHappinessSliderResponse	Gain
308.408	4.322	4.029	1402.714	72.0	3	5.7	-2.0	23.871	955.0	3.16	Outcome2	-9.92	5.7	3.0805	Yes	n/a	15.6240090600226	n/a	n/a	n/a	ISIRate	Gain
312.754	3.0	0.024	1407.06	73.0	3	-1.3	-9.0	23.7085	955.0	0.3	Outcome2	-16.94	-1.3	0.0	No	2.0	15.6364665911665	2.516	315.27	n/a	GetAnswer	Mixed
315.295	4.0	0.025	1409.601	73.0	3	-1.3	-9.0	23.7085	955.0	0.3	Outcome2	-16.94	-1.3	0.0	No	n/a	15.6364665911665	n/a	n/a	n/a	ShowChoice	Mixed
319.307	1.0	0.012	1413.613	73.0	3	-1.3	-9.0	23.7085	955.0	0.3	Outcome2	-16.94	-1.3	0.0	No	n/a	15.6364665911665	n/a	n/a	n/a	ShowResult	Mixed
320.327	4.616	0.02	1414.633	73.0	3	-1.3	-9.0	23.7085	955.0	0.3	Outcome2	-16.94	-1.3	0.0	No	n/a	15.6364665911665	n/a	n/a	n/a	ISITrial	Mixed
324.974	3.0	0.031	1419.28	74.0	3	10.7	2.0	25.046	955.0	1.82	Outcome2	-5.39	10.7	3.05625	Yes	2.0	16.0928652321631	1.017	325.991	n/a	GetAnswer	Loss
326.01	4.0	0.019	1420.316	74.0	3	10.7	2.0	25.046	955.0	1.82	Outcome2	-5.39	10.7	3.05625	Yes	n/a	16.0928652321631	n/a	n/a	n/a	ShowChoice	Loss
330.022	1.0	0.012	1424.328	74.0	3	10.7	2.0	25.046	955.0	1.82	Outcome2	-5.39	10.7	3.05625	Yes	n/a	16.0928652321631	n/a	n/a	n/a	ShowResult	Loss
331.042	3.909	0.02	1425.348	74.0	3	10.7	2.0	25.046	955.0	1.82	Outcome2	-5.39	10.7	3.05625	Yes	n/a	16.0928652321631	n/a	n/a	n/a	ISITrial	Loss
334.971	3.056	0.02	1429.277	74.0	3	10.7	2.0	25.046	955.0	1.82	Outcome2	-5.39	10.7	3.05625	Yes	n/a	16.0928652321631	n/a	n/a	n/a	TrialHappPreview	Loss
338.046	4.029	0.019	1432.352	74.0	3	10.7	2.0	25.046	955.0	1.82	Outcome2	-5.39	10.7	3.05625	Yes	2{-2}2{-2}	16.0928652321631	1.55	339.596	540.0	TrialHappiness	Loss
338.047	0.823	n/a	1433.08	74.0	3	10.7	2.0	25.046	955.0	1.82	Outcome2	-5.39	10.7	3.05625	Yes	n/a	16.0928652321631	n/a	n/a	540.0	TrialHappinessSliderResponse	Loss
342.075	4.225	4.029	1436.381	74.0	3	10.7	2.0	25.046	955.0	1.82	Outcome2	-5.39	10.7	3.05625	Yes	n/a	16.0928652321631	n/a	n/a	n/a	ISIRate	Loss
346.321	3.0	0.021	1440.627	75.0	3	-2.19	-1.0	24.7722	955.0	2.0	Outcome1	-2.19	0.3	0.0	No	2.0	-2.49273310683277	1.81	348.131	n/a	GetAnswer	Mixed
348.16	4.0	0.029	1442.466	75.0	3	-2.19	-1.0	24.7722	955.0	2.0	Outcome1	-2.19	0.3	0.0	No	n/a	-2.49273310683277	n/a	n/a	n/a	ShowChoice	Mixed
352.172	1.0	0.012	1446.478	75.0	3	-2.19	-1.0	24.7722	955.0	2.0	Outcome1	-2.19	0.3	0.0	No	n/a	-2.49273310683277	n/a	n/a	n/a	ShowResult	Mixed
353.192	4.979	0.02	1447.498	75.0	3	-2.19	-1.0	24.7722	955.0	2.0	Outcome1	-2.19	0.3	0.0	No	n/a	-2.49273310683277	n/a	n/a	n/a	ISITrial	Mixed
358.19	3.0	0.019	1452.496	76.0	3	9.3	0.0	25.9347	955.0	2.48	Outcome1	9.3	-7.92	0.0	No	2.0	17.223103057757598	1.568	359.758	n/a	GetAnswer	Gain
359.778	4.0	0.02	1454.084	76.0	3	9.3	0.0	25.9347	955.0	2.48	Outcome1	9.3	-7.92	0.0	No	n/a	17.223103057757598	n/a	n/a	n/a	ShowChoice	Gain
363.79	1.0	0.012	1458.096	76.0	3	9.3	0.0	25.9347	955.0	2.48	Outcome1	9.3	-7.92	0.0	No	n/a	17.223103057757598	n/a	n/a	n/a	ShowResult	Gain
364.81	3.931	0.02	1459.116	76.0	3	9.3	0.0	25.9347	955.0	2.48	Outcome1	9.3	-7.92	0.0	No	n/a	17.223103057757598	n/a	n/a	n/a	ISITrial	Gain
368.772	3.0	0.031	1463.078	77.0	3	-1.27	0.0	25.7759	955.0	0.66	Outcome2	1.3	-1.27	4.0	Yes	2.0	-2.57106455266138	1.93	370.702	n/a	GetAnswer	Mixed
370.728	4.0	0.026	1465.034	77.0	3	-1.27	0.0	25.7759	955.0	0.66	Outcome2	1.3	-1.27	4.0	Yes	n/a	-2.57106455266138	n/a	n/a	n/a	ShowChoice	Mixed
374.756	1.0	0.028	1469.062	77.0	3	-1.27	0.0	25.7759	955.0	0.66	Outcome2	1.3	-1.27	4.0	Yes	n/a	-2.57106455266138	n/a	n/a	n/a	ShowResult	Mixed
375.776	7.022	0.02	1470.082	77.0	3	-1.27	0.0	25.7759	955.0	0.66	Outcome2	1.3	-1.27	4.0	Yes	n/a	-2.57106455266138	n/a	n/a	n/a	ISITrial	Mixed
382.814	4.0	0.016	1477.12	77.0	3	-1.27	0.0	25.7759	955.0	0.66	Outcome2	1.3	-1.27	4.0	Yes	n/a	-2.57106455266138	n/a	n/a	n/a	TrialHappPreview	Mixed
386.843	4.028	0.029	1481.149	77.0	3	-1.27	0.0	25.7759	955.0	0.66	Outcome2	1.3	-1.27	4.0	Yes	n/a	-2.57106455266138	n/a	n/a	536.0	TrialHappiness	Mixed
386.843	0.193	n/a	1481.564	77.0	3	-1.27	0.0	25.7759	955.0	0.66	Outcome2	1.3	-1.27	4.0	Yes	n/a	-2.57106455266138	n/a	n/a	536.0	TrialHappinessSliderResponse	Mixed
390.871	8.0	4.028	1485.177	77.0	3	-1.27	0.0	25.7759	955.0	0.66	Outcome2	1.3	-1.27	4.0	Yes	n/a	-2.57106455266138	n/a	n/a	n/a	ISIRate	Mixed
398.895	3.0	0.024	1493.201	78.0	3	12.5	-2.86	27.3384	955.0	1.68	Outcome1	12.5	-5.73	0.0	No	2.0	18.2310305775764	1.372	400.267	n/a	GetAnswer	Loss
400.283	4.0	0.016	1494.589	78.0	3	12.5	-2.86	27.3384	955.0	1.68	Outcome1	12.5	-5.73	0.0	No	n/a	18.2310305775764	n/a	n/a	n/a	ShowChoice	Loss
404.312	1.0	0.029	1498.618	78.0	3	12.5	-2.86	27.3384	955.0	1.68	Outcome1	12.5	-5.73	0.0	No	n/a	18.2310305775764	n/a	n/a	n/a	ShowResult	Loss
405.331	2.078	0.019	1499.637	78.0	3	12.5	-2.86	27.3384	955.0	1.68	Outcome1	12.5	-5.73	0.0	No	n/a	18.2310305775764	n/a	n/a	n/a	ISITrial	Loss
407.438	3.0	0.029	1501.744	79.0	3	8.3	-1.0	28.3759	955.0	5.0	Outcome2	-10.41	8.3	2.7295	Yes	2.0	18.7055492638732	2.989	410.427	n/a	GetAnswer	Gain
410.447	4.0	0.02	1504.753	79.0	3	8.3	-1.0	28.3759	955.0	5.0	Outcome2	-10.41	8.3	2.7295	Yes	n/a	18.7055492638732	n/a	n/a	n/a	ShowChoice	Gain
414.475	1.0	0.028	1508.781	79.0	3	8.3	-1.0	28.3759	955.0	5.0	Outcome2	-10.41	8.3	2.7295	Yes	n/a	18.7055492638732	n/a	n/a	n/a	ShowResult	Gain
415.495	3.829	0.02	1509.801	79.0	3	8.3	-1.0	28.3759	955.0	5.0	Outcome2	-10.41	8.3	2.7295	Yes	n/a	18.7055492638732	n/a	n/a	n/a	ISITrial	Gain
419.34	2.73	0.016	1513.646	79.0	3	8.3	-1.0	28.3759	955.0	5.0	Outcome2	-10.41	8.3	2.7295	Yes	n/a	18.7055492638732	n/a	n/a	n/a	TrialHappPreview	Gain
422.098	4.029	0.028	1516.404	79.0	3	8.3	-1.0	28.3759	955.0	5.0	Outcome2	-10.41	8.3	2.7295	Yes	n/a	18.7055492638732	n/a	n/a	532.0	TrialHappiness	Gain
422.099	0.115	n/a	1516.747	79.0	3	8.3	-1.0	28.3759	955.0	5.0	Outcome2	-10.41	8.3	2.7295	Yes	n/a	18.7055492638732	n/a	n/a	532.0	TrialHappinessSliderResponse	Gain
426.127	2.918	4.029	1520.433	79.0	3	8.3	-1.0	28.3759	955.0	5.0	Outcome2	-10.41	8.3	2.7295	Yes	n/a	18.7055492638732	n/a	n/a	n/a	ISIRate	Gain
429.069	3.0	0.024	1523.375	80.0	3	1.3	-8.0	28.5384	955.0	0.66	Outcome2	-17.95	1.3	0.0	No	n/a	19.2480181200453	n/a	n/a	n/a	GetAnswer	Mixed
432.095	4.0	0.026	1526.401	80.0	3	1.3	-8.0	28.5384	955.0	0.66	Outcome2	-17.95	1.3	0.0	No	n/a	19.2480181200453	n/a	n/a	n/a	ShowChoice	Mixed
436.124	1.0	0.029	1530.43	80.0	3	1.3	-8.0	28.5384	955.0	0.66	Outcome2	-17.95	1.3	0.0	No	n/a	19.2480181200453	n/a	n/a	n/a	ShowResult	Mixed
437.143	3.336	0.019	1531.449	80.0	3	1.3	-8.0	28.5384	955.0	0.66	Outcome2	-17.95	1.3	0.0	No	n/a	19.2480181200453	n/a	n/a	n/a	ISITrial	Mixed
440.503	3.0	0.024	1534.809	81.0	3	3.14	1.57	28.9309	955.0	3.6	Outcome1	3.14	5.9	3.92375	Yes	n/a	-2.76170252925632	n/a	n/a	n/a	GetAnswer	Gain
443.529	4.0	0.026	1537.835	81.0	3	3.14	1.57	28.9309	955.0	3.6	Outcome1	3.14	5.9	3.92375	Yes	n/a	-2.76170252925632	n/a	n/a	n/a	ShowChoice	Gain
447.541	1.0	0.012	1541.847	81.0	3	3.14	1.57	28.9309	955.0	3.6	Outcome1	3.14	5.9	3.92375	Yes	n/a	-2.76170252925632	n/a	n/a	n/a	ShowResult	Gain
448.561	3.919	0.02	1542.867	81.0	3	3.14	1.57	28.9309	955.0	3.6	Outcome1	3.14	5.9	3.92375	Yes	n/a	-2.76170252925632	n/a	n/a	n/a	ISITrial	Gain
452.506	3.924	0.026	1546.812	81.0	3	3.14	1.57	28.9309	955.0	3.6	Outcome1	3.14	5.9	3.92375	Yes	n/a	-2.76170252925632	n/a	n/a	n/a	TrialHappPreview	Gain
456.451	4.012	0.021	1550.757	81.0	3	3.14	1.57	28.9309	955.0	3.6	Outcome1	3.14	5.9	3.92375	Yes	n/a	-2.76170252925632	n/a	n/a	532.0	TrialHappiness	Gain
456.452	0.14	n/a	1551.119	81.0	3	3.14	1.57	28.9309	955.0	3.6	Outcome1	3.14	5.9	3.92375	Yes	n/a	-2.76170252925632	n/a	n/a	532.0	TrialHappinessSliderResponse	Gain
460.463	7.695	4.012	1554.769	81.0	3	3.14	1.57	28.9309	955.0	3.6	Outcome1	3.14	5.9	3.92375	Yes	n/a	-2.76170252925632	n/a	n/a	n/a	ISIRate	Gain
468.186	3.0	0.028	1562.492	n/a	3	n/a	n/a	n/a	n/a	n/a	n/a	n/a	n/a	n/a	n/a	n/a	n/a	n/a	n/a	n/a	CurrentEarnings	n/a
471.212	-0.001	0.026	1565.518	n/a	3	n/a	n/a	n/a	n/a	n/a	n/a	n/a	n/a	n/a	n/a	{SPACE}	n/a	62.446	533.658	n/a	Goodbye	n/a
