onset	duration	onset_delay	onset_unadjusted	trial_number	block	amount_change	certain_amount	current_amount	mood_target	multiplier	outcome	outcome1_amount	outcome2_amount	question_duration	rating	response	rpe	rt	rt_time	slider_response	trial_phase	trial_type
-48.7	-0.001	0.02	22.458	n/a	0	n/a	n/a	n/a	n/a	n/a	n/a	n/a	n/a	n/a	n/a	{SPACE}	n/a	4.556	-44.144	n/a	Welcome	n/a
-44.118	5.0	0.026	27.04	n/a	0	n/a	n/a	n/a	n/a	n/a	n/a	n/a	n/a	n/a	n/a	n/a	n/a	n/a	n/a	n/a	LifeHappyPreview	n/a
-39.087	1.09	0.031	32.071	n/a	0	n/a	n/a	n/a	n/a	n/a	n/a	n/a	n/a	n/a	n/a	n/a	n/a	n/a	n/a	304.0	LifeHappiness	n/a
-39.086	0.574	n/a	32.588	n/a	0	n/a	n/a	n/a	n/a	n/a	n/a	n/a	n/a	n/a	n/a	n/a	n/a	n/a	n/a	304.0	LifeHappinessSliderResponse	n/a
-21.043	4.0	0.03	50.115	n/a	0	n/a	n/a	n/a	n/a	n/a	n/a	n/a	n/a	n/a	n/a	n/a	n/a	n/a	n/a	n/a	BlockHappyPreview	n/a
-17.028	1.611	0.015	54.13	n/a	0	n/a	n/a	n/a	n/a	n/a	n/a	n/a	n/a	n/a	n/a	n/a	n/a	n/a	n/a	412.0	BlockStartHappiness	n/a
-17.027	1.277	n/a	54.465	n/a	0	n/a	n/a	n/a	n/a	n/a	n/a	n/a	n/a	n/a	n/a	n/a	n/a	n/a	n/a	412.0	BlockStartHappinessSliderResponse	n/a
-1.4	-0.001	0.025	69.758	n/a	0	n/a	n/a	n/a	n/a	n/a	n/a	n/a	n/a	n/a	n/a	5.0	n/a	1.382	-0.018	n/a	ScanWait	n/a
0.0	10.0	0.018	71.158	n/a	1	n/a	n/a	n/a	n/a	n/a	n/a	n/a	n/a	n/a	n/a	n/a	n/a	n/a	n/a	n/a	GetReady	n/a
10.029	3.0	0.029	81.187	1.0	1	-0.1	1.0	9.9875	955.0	1.5	Outcome2	2.1	-0.1	0.0	No	2.0	-2.20356738391846	1.723	11.752	n/a	GetAnswer	Mixed
11.779	4.0	0.027	82.937	1.0	1	-0.1	1.0	9.9875	955.0	1.5	Outcome2	2.1	-0.1	0.0	No	n/a	-2.20356738391846	n/a	n/a	n/a	ShowChoice	Mixed
15.794	1.0	0.015	86.952	1.0	1	-0.1	1.0	9.9875	955.0	1.5	Outcome2	2.1	-0.1	0.0	No	n/a	-2.20356738391846	n/a	n/a	n/a	ShowResult	Mixed
16.81	2.431	0.016	87.968	1.0	1	-0.1	1.0	9.9875	955.0	1.5	Outcome2	2.1	-0.1	0.0	No	n/a	-2.20356738391846	n/a	n/a	n/a	ISITrial	Mixed
19.26	3.0	0.019	90.418	2.0	1	-5.0	-5.0	9.3625	955.0	0.82	Certain	-10.34	-0.5	0.0	No	4.0	9.83918459796149	2.247	21.507	n/a	GetAnswer	Mixed
21.525	4.0	0.018	92.683	2.0	1	-5.0	-5.0	9.3625	955.0	0.82	Certain	-10.34	-0.5	0.0	No	n/a	9.83918459796149	n/a	n/a	n/a	ShowChoice	Mixed
25.541	1.0	0.016	96.699	2.0	1	-5.0	-5.0	9.3625	955.0	0.82	Certain	-10.34	-0.5	0.0	No	n/a	9.83918459796149	n/a	n/a	n/a	ShowResult	Mixed
26.557	4.568	0.016	97.715	2.0	1	-5.0	-5.0	9.3625	955.0	0.82	Certain	-10.34	-0.5	0.0	No	n/a	9.83918459796149	n/a	n/a	n/a	ISITrial	Mixed
31.155	3.0	0.03	102.313	3.0	1	5.5	0.0	10.05	955.0	2.8	Outcome2	-4.95	5.5	2.868	Yes	2.0	10.4541336353341	2.149	33.304	n/a	GetAnswer	Gain
33.321	4.0	0.017	104.479	3.0	1	5.5	0.0	10.05	955.0	2.8	Outcome2	-4.95	5.5	2.868	Yes	n/a	10.4541336353341	n/a	n/a	n/a	ShowChoice	Gain
37.337	1.0	0.016	108.495	3.0	1	5.5	0.0	10.05	955.0	2.8	Outcome2	-4.95	5.5	2.868	Yes	n/a	10.4541336353341	n/a	n/a	n/a	ShowResult	Gain
38.353	3.243	0.016	109.511	3.0	1	5.5	0.0	10.05	955.0	2.8	Outcome2	-4.95	5.5	2.868	Yes	n/a	10.4541336353341	n/a	n/a	n/a	ISITrial	Gain
41.618	2.868	0.022	112.776	3.0	1	5.5	0.0	10.05	955.0	2.8	Outcome2	-4.95	5.5	2.868	Yes	n/a	10.4541336353341	n/a	n/a	n/a	TrialHappPreview	Gain
44.517	4.016	0.031	115.675	3.0	1	5.5	0.0	10.05	955.0	2.8	Outcome2	-4.95	5.5	2.868	Yes	n/a	10.4541336353341	n/a	n/a	480.0	TrialHappiness	Gain
44.518	0.88	n/a	116.353	3.0	1	5.5	0.0	10.05	955.0	2.8	Outcome2	-4.95	5.5	2.868	Yes	n/a	10.4541336353341	n/a	n/a	480.0	TrialHappinessSliderResponse	Gain
48.533	3.472	4.016	119.691	3.0	1	5.5	0.0	10.05	955.0	2.8	Outcome2	-4.95	5.5	2.868	Yes	n/a	10.4541336353341	n/a	n/a	n/a	ISIRate	Gain
52.031	3.0	0.026	123.189	4.0	1	8.5	-0.7	11.1125	955.0	1.68	Outcome1	8.5	-1.41	0.0	No	n/a	9.91392978482446	n/a	n/a	n/a	GetAnswer	Gain
55.047	4.0	0.016	126.205	4.0	1	8.5	-0.7	11.1125	955.0	1.68	Outcome1	8.5	-1.41	0.0	No	n/a	9.91392978482446	n/a	n/a	n/a	ShowChoice	Gain
59.062	1.0	0.015	130.22	4.0	1	8.5	-0.7	11.1125	955.0	1.68	Outcome1	8.5	-1.41	0.0	No	n/a	9.91392978482446	n/a	n/a	n/a	ShowResult	Gain
60.079	2.011	0.017	131.237	4.0	1	8.5	-0.7	11.1125	955.0	1.68	Outcome1	8.5	-1.41	0.0	No	n/a	9.91392978482446	n/a	n/a	n/a	ISITrial	Gain
62.111	3.0	0.021	133.269	5.0	1	-0.88	-0.88	11.0025	955.0	1.82	Certain	-1.75	8.7	2.5825	Yes	4.0	10.4518686296716	1.421	63.532	n/a	GetAnswer	Gain
63.561	4.0	0.029	134.719	5.0	1	-0.88	-0.88	11.0025	955.0	1.82	Certain	-1.75	8.7	2.5825	Yes	n/a	10.4518686296716	n/a	n/a	n/a	ShowChoice	Gain
67.576	1.0	0.015	138.734	5.0	1	-0.88	-0.88	11.0025	955.0	1.82	Certain	-1.75	8.7	2.5825	Yes	n/a	10.4518686296716	n/a	n/a	n/a	ShowResult	Gain
68.592	5.129	0.016	139.75	5.0	1	-0.88	-0.88	11.0025	955.0	1.82	Certain	-1.75	8.7	2.5825	Yes	n/a	10.4518686296716	n/a	n/a	n/a	ISITrial	Gain
73.741	2.582	0.02	144.899	5.0	1	-0.88	-0.88	11.0025	955.0	1.82	Certain	-1.75	8.7	2.5825	Yes	n/a	10.4518686296716	n/a	n/a	n/a	TrialHappPreview	Gain
76.356	4.016	0.033	147.514	5.0	1	-0.88	-0.88	11.0025	955.0	1.82	Certain	-1.75	8.7	2.5825	Yes	n/a	10.4518686296716	n/a	n/a	488.0	TrialHappiness	Gain
76.357	0.19	n/a	148.698	5.0	1	-0.88	-0.88	11.0025	955.0	1.82	Certain	-1.75	8.7	2.5825	Yes	n/a	10.4518686296716	n/a	n/a	488.0	TrialHappinessSliderResponse	Gain
80.372	2.33	4.016	151.53	5.0	1	-0.88	-0.88	11.0025	955.0	1.82	Certain	-1.75	8.7	2.5825	Yes	n/a	10.4518686296716	n/a	n/a	n/a	ISIRate	Gain
82.721	3.0	0.019	153.879	6.0	1	9.5	-0.68	12.19	955.0	2.8	Outcome2	-1.35	9.5	0.0	No	2.0	10.853907134767802	1.73	84.451	n/a	GetAnswer	Gain
84.47	4.0	0.019	155.628	6.0	1	9.5	-0.68	12.19	955.0	2.8	Outcome2	-1.35	9.5	0.0	No	n/a	10.853907134767802	n/a	n/a	n/a	ShowChoice	Gain
88.485	1.0	0.015	159.643	6.0	1	9.5	-0.68	12.19	955.0	2.8	Outcome2	-1.35	9.5	0.0	No	n/a	10.853907134767802	n/a	n/a	n/a	ShowResult	Gain
89.502	6.232	0.017	160.66	6.0	1	9.5	-0.68	12.19	955.0	2.8	Outcome2	-1.35	9.5	0.0	No	n/a	10.853907134767802	n/a	n/a	n/a	ISITrial	Gain
95.766	3.0	0.032	166.924	7.0	1	-2.0	-2.0	11.94	955.0	0.52	Certain	3.1	-8.28	0.0	No	4.0	11.3827859569649	1.932	97.698	n/a	GetAnswer	Mixed
97.715	4.0	0.017	168.873	7.0	1	-2.0	-2.0	11.94	955.0	0.52	Certain	3.1	-8.28	0.0	No	n/a	11.3827859569649	n/a	n/a	n/a	ShowChoice	Mixed
101.731	1.0	0.016	172.889	7.0	1	-2.0	-2.0	11.94	955.0	0.52	Certain	3.1	-8.28	0.0	No	n/a	11.3827859569649	n/a	n/a	n/a	ShowResult	Mixed
102.747	2.305	0.016	173.905	7.0	1	-2.0	-2.0	11.94	955.0	0.52	Certain	3.1	-8.28	0.0	No	n/a	11.3827859569649	n/a	n/a	n/a	ISITrial	Mixed
105.08	3.0	0.028	176.238	8.0	1	-0.3	-6.0	11.9025	955.0	1.0	Outcome1	-0.3	-12.21	3.1125	Yes	n/a	11.9116647791619	n/a	n/a	n/a	GetAnswer	Mixed
108.095	4.0	0.015	179.253	8.0	1	-0.3	-6.0	11.9025	955.0	1.0	Outcome1	-0.3	-12.21	3.1125	Yes	n/a	11.9116647791619	n/a	n/a	n/a	ShowChoice	Mixed
112.11	1.0	0.015	183.268	8.0	1	-0.3	-6.0	11.9025	955.0	1.0	Outcome1	-0.3	-12.21	3.1125	Yes	n/a	11.9116647791619	n/a	n/a	n/a	ShowResult	Mixed
113.127	3.506	0.017	184.285	8.0	1	-0.3	-6.0	11.9025	955.0	1.0	Outcome1	-0.3	-12.21	3.1125	Yes	n/a	11.9116647791619	n/a	n/a	n/a	ISITrial	Mixed
116.659	3.112	0.026	187.817	8.0	1	-0.3	-6.0	11.9025	955.0	1.0	Outcome1	-0.3	-12.21	3.1125	Yes	n/a	11.9116647791619	n/a	n/a	n/a	TrialHappPreview	Mixed
119.791	4.015	0.02	190.949	8.0	1	-0.3	-6.0	11.9025	955.0	1.0	Outcome1	-0.3	-12.21	3.1125	Yes	n/a	11.9116647791619	n/a	n/a	620.0	TrialHappiness	Mixed
119.792	1.733	n/a	191.344	8.0	1	-0.3	-6.0	11.9025	955.0	1.0	Outcome1	-0.3	-12.21	3.1125	Yes	n/a	11.9116647791619	n/a	n/a	620.0	TrialHappinessSliderResponse	Mixed
123.806	4.45	4.015	194.964	8.0	1	-0.3	-6.0	11.9025	955.0	1.0	Outcome1	-0.3	-12.21	3.1125	Yes	n/a	11.9116647791619	n/a	n/a	n/a	ISIRate	Mixed
128.288	3.0	0.032	199.446	9.0	1	11.5	0.65	13.34	955.0	2.8	Outcome2	1.3	11.5	0.0	No	2.0	10.19818799547	1.549	129.837	n/a	GetAnswer	Loss
129.854	4.0	0.017	201.012	9.0	1	11.5	0.65	13.34	955.0	2.8	Outcome2	1.3	11.5	0.0	No	n/a	10.19818799547	n/a	n/a	n/a	ShowChoice	Loss
133.87	1.0	0.016	205.028	9.0	1	11.5	0.65	13.34	955.0	2.8	Outcome2	1.3	11.5	0.0	No	n/a	10.19818799547	n/a	n/a	n/a	ShowResult	Loss
134.886	2.0	0.016	206.044	9.0	1	11.5	0.65	13.34	955.0	2.8	Outcome2	1.3	11.5	0.0	No	n/a	10.19818799547	n/a	n/a	n/a	ISITrial	Loss
136.918	3.0	0.032	208.076	10.0	1	13.7	1.56	15.0525	955.0	3.16	Outcome1	13.7	3.12	4.0	Yes	2.0	10.5775764439411	2.438	139.356	n/a	GetAnswer	Loss
139.384	4.0	0.028	210.542	10.0	1	13.7	1.56	15.0525	955.0	3.16	Outcome1	13.7	3.12	4.0	Yes	n/a	10.5775764439411	n/a	n/a	n/a	ShowChoice	Loss
143.4	1.0	0.016	214.558	10.0	1	13.7	1.56	15.0525	955.0	3.16	Outcome1	13.7	3.12	4.0	Yes	n/a	10.5775764439411	n/a	n/a	n/a	ShowResult	Loss
144.416	2.0	0.016	215.574	10.0	1	13.7	1.56	15.0525	955.0	3.16	Outcome1	13.7	3.12	4.0	Yes	n/a	10.5775764439411	n/a	n/a	n/a	ISITrial	Loss
146.432	4.0	0.016	217.59	10.0	1	13.7	1.56	15.0525	955.0	3.16	Outcome1	13.7	3.12	4.0	Yes	n/a	10.5775764439411	n/a	n/a	n/a	TrialHappPreview	Loss
150.464	4.015	0.032	221.622	10.0	1	13.7	1.56	15.0525	955.0	3.16	Outcome1	13.7	3.12	4.0	Yes	n/a	10.5775764439411	n/a	n/a	712.0	TrialHappiness	Loss
150.464	2.814	n/a	221.75	10.0	1	13.7	1.56	15.0525	955.0	3.16	Outcome1	13.7	3.12	4.0	Yes	n/a	10.5775764439411	n/a	n/a	712.0	TrialHappinessSliderResponse	Loss
154.479	8.0	4.015	225.637	10.0	1	13.7	1.56	15.0525	955.0	3.16	Outcome1	13.7	3.12	4.0	Yes	n/a	10.5775764439411	n/a	n/a	n/a	ISIRate	Loss
162.51	3.0	0.031	233.668	11.0	1	-3.0	-3.0	14.6775	955.0	1.2	Certain	-7.49	1.9	0.0	No	4.0	9.39411098527746	1.594	164.104	n/a	GetAnswer	Mixed
164.126	4.0	0.022	235.284	11.0	1	-3.0	-3.0	14.6775	955.0	1.2	Certain	-7.49	1.9	0.0	No	n/a	9.39411098527746	n/a	n/a	n/a	ShowChoice	Mixed
168.141	1.0	0.015	239.299	11.0	1	-3.0	-3.0	14.6775	955.0	1.2	Certain	-7.49	1.9	0.0	No	n/a	9.39411098527746	n/a	n/a	n/a	ShowResult	Mixed
169.157	3.324	0.016	240.315	11.0	1	-3.0	-3.0	14.6775	955.0	1.2	Certain	-7.49	1.9	0.0	No	n/a	9.39411098527746	n/a	n/a	n/a	ISITrial	Mixed
172.506	3.0	0.025	243.664	12.0	1	3.25	1.62	15.0837	955.0	1.82	Outcome2	4.7	3.25	2.61875	Yes	2.0	-1.44790486976217	1.41	173.916	n/a	GetAnswer	Gain
173.939	4.0	0.023	245.097	12.0	1	3.25	1.62	15.0837	955.0	1.82	Outcome2	4.7	3.25	2.61875	Yes	n/a	-1.44790486976217	n/a	n/a	n/a	ShowChoice	Gain
177.954	1.0	0.015	249.112	12.0	1	3.25	1.62	15.0837	955.0	1.82	Outcome2	4.7	3.25	2.61875	Yes	n/a	-1.44790486976217	n/a	n/a	n/a	ShowResult	Gain
178.971	6.642	0.017	250.129	12.0	1	3.25	1.62	15.0837	955.0	1.82	Outcome2	4.7	3.25	2.61875	Yes	n/a	-1.44790486976217	n/a	n/a	n/a	ISITrial	Gain
185.635	2.619	0.022	256.793	12.0	1	3.25	1.62	15.0837	955.0	1.82	Outcome2	4.7	3.25	2.61875	Yes	n/a	-1.44790486976217	n/a	n/a	n/a	TrialHappPreview	Gain
188.284	4.015	0.03	259.442	12.0	1	3.25	1.62	15.0837	955.0	1.82	Outcome2	4.7	3.25	2.61875	Yes	n/a	-1.44790486976217	n/a	n/a	628.0	TrialHappiness	Gain
188.285	0.611	n/a	259.771	12.0	1	3.25	1.62	15.0837	955.0	1.82	Outcome2	4.7	3.25	2.61875	Yes	n/a	-1.44790486976217	n/a	n/a	628.0	TrialHappinessSliderResponse	Gain
192.299	2.475	4.015	263.457	12.0	1	3.25	1.62	15.0837	955.0	1.82	Outcome2	4.7	3.25	2.61875	Yes	n/a	-1.44790486976217	n/a	n/a	n/a	ISIRate	Gain
194.798	3.0	0.024	265.956	13.0	1	10.89	5.44	16.4449	955.0	1.82	Outcome2	12.7	10.89	0.0	No	2.0	-1.81172140430351	1.173	195.971	n/a	GetAnswer	Loss
195.998	4.0	0.027	267.156	13.0	1	10.89	5.44	16.4449	955.0	1.82	Outcome2	12.7	10.89	0.0	No	n/a	-1.81172140430351	n/a	n/a	n/a	ShowChoice	Loss
200.013	1.0	0.015	271.171	13.0	1	10.89	5.44	16.4449	955.0	1.82	Outcome2	12.7	10.89	0.0	No	n/a	-1.81172140430351	n/a	n/a	n/a	ShowResult	Loss
201.029	3.48	0.016	272.187	13.0	1	10.89	5.44	16.4449	955.0	1.82	Outcome2	12.7	10.89	0.0	No	n/a	-1.81172140430351	n/a	n/a	n/a	ISITrial	Loss
204.528	3.0	0.019	275.686	14.0	1	10.26	5.13	17.7274	955.0	4.2	Outcome2	12.1	10.26	0.0	No	2.0	-1.84258210645527	1.09	205.618	n/a	GetAnswer	Loss
205.645	4.0	0.027	276.803	14.0	1	10.26	5.13	17.7274	955.0	4.2	Outcome2	12.1	10.26	0.0	No	n/a	-1.84258210645527	n/a	n/a	n/a	ShowChoice	Loss
209.66	1.0	0.015	280.818	14.0	1	10.26	5.13	17.7274	955.0	4.2	Outcome2	12.1	10.26	0.0	No	n/a	-1.84258210645527	n/a	n/a	n/a	ShowResult	Loss
210.676	5.019	0.016	281.834	14.0	1	10.26	5.13	17.7274	955.0	4.2	Outcome2	12.1	10.26	0.0	No	n/a	-1.84258210645527	n/a	n/a	n/a	ISITrial	Loss
215.724	3.0	0.029	286.882	15.0	1	1.0	1.0	17.8524	955.0	2.22	Certain	7.1	-5.01	3.3485	Yes	4.0	12.1121177802945	1.417	217.141	n/a	GetAnswer	Gain
217.157	4.0	0.016	288.315	15.0	1	1.0	1.0	17.8524	955.0	2.22	Certain	7.1	-5.01	3.3485	Yes	n/a	12.1121177802945	n/a	n/a	n/a	ShowChoice	Gain
221.172	1.0	0.015	292.33	15.0	1	1.0	1.0	17.8524	955.0	2.22	Certain	7.1	-5.01	3.3485	Yes	n/a	12.1121177802945	n/a	n/a	n/a	ShowResult	Gain
222.189	7.614	0.017	293.347	15.0	1	1.0	1.0	17.8524	955.0	2.22	Certain	7.1	-5.01	3.3485	Yes	n/a	12.1121177802945	n/a	n/a	n/a	ISITrial	Gain
229.819	3.348	0.016	300.977	15.0	1	1.0	1.0	17.8524	955.0	2.22	Certain	7.1	-5.01	3.3485	Yes	n/a	12.1121177802945	n/a	n/a	n/a	TrialHappPreview	Gain
233.185	4.015	0.018	304.343	15.0	1	1.0	1.0	17.8524	955.0	2.22	Certain	7.1	-5.01	3.3485	Yes	n/a	12.1121177802945	n/a	n/a	756.0	TrialHappiness	Gain
233.186	3.294	n/a	304.555	15.0	1	1.0	1.0	17.8524	955.0	2.22	Certain	7.1	-5.01	3.3485	Yes	n/a	12.1121177802945	n/a	n/a	756.0	TrialHappinessSliderResponse	Gain
237.2	5.394	4.015	308.358	15.0	1	1.0	1.0	17.8524	955.0	2.22	Certain	7.1	-5.01	3.3485	Yes	n/a	12.1121177802945	n/a	n/a	n/a	ISIRate	Gain
242.615	3.0	0.021	313.773	16.0	1	-5.0	-5.0	17.2274	955.0	1.5	Certain	-10.21	0.1	0.0	No	4.0	10.3080407701019	1.941	244.556	n/a	GetAnswer	Mixed
244.581	4.0	0.025	315.739	16.0	1	-5.0	-5.0	17.2274	955.0	1.5	Certain	-10.21	0.1	0.0	No	n/a	10.3080407701019	n/a	n/a	n/a	ShowChoice	Mixed
248.596	1.0	0.015	319.754	16.0	1	-5.0	-5.0	17.2274	955.0	1.5	Certain	-10.21	0.1	0.0	No	n/a	10.3080407701019	n/a	n/a	n/a	ShowResult	Mixed
249.613	3.008	0.017	320.771	16.0	1	-5.0	-5.0	17.2274	955.0	1.5	Certain	-10.21	0.1	0.0	No	n/a	10.3080407701019	n/a	n/a	n/a	ISITrial	Mixed
252.645	3.0	0.024	323.803	17.0	1	11.9	0.68	18.7149	955.0	3.6	Outcome2	1.37	11.9	3.0415	Yes	2.0	10.5334088335221	1.207	253.852	n/a	GetAnswer	Loss
253.878	4.0	0.026	325.036	17.0	1	11.9	0.68	18.7149	955.0	3.6	Outcome2	1.37	11.9	3.0415	Yes	n/a	10.5334088335221	n/a	n/a	n/a	ShowChoice	Loss
257.893	1.0	0.015	329.051	17.0	1	11.9	0.68	18.7149	955.0	3.6	Outcome2	1.37	11.9	3.0415	Yes	n/a	10.5334088335221	n/a	n/a	n/a	ShowResult	Loss
258.909	3.566	0.016	330.067	17.0	1	11.9	0.68	18.7149	955.0	3.6	Outcome2	1.37	11.9	3.0415	Yes	n/a	10.5334088335221	n/a	n/a	n/a	ISITrial	Loss
262.491	3.042	0.016	333.649	17.0	1	11.9	0.68	18.7149	955.0	3.6	Outcome2	1.37	11.9	3.0415	Yes	n/a	10.5334088335221	n/a	n/a	n/a	TrialHappPreview	Loss
265.557	4.015	0.024	336.715	17.0	1	11.9	0.68	18.7149	955.0	3.6	Outcome2	1.37	11.9	3.0415	Yes	n/a	10.5334088335221	n/a	n/a	628.0	TrialHappiness	Loss
265.558	1.226	n/a	336.979	17.0	1	11.9	0.68	18.7149	955.0	3.6	Outcome2	1.37	11.9	3.0415	Yes	n/a	10.5334088335221	n/a	n/a	628.0	TrialHappinessSliderResponse	Loss
269.572	4.166	4.015	340.73	17.0	1	11.9	0.68	18.7149	955.0	3.6	Outcome2	1.37	11.9	3.0415	Yes	n/a	10.5334088335221	n/a	n/a	n/a	ISIRate	Loss
273.771	3.0	0.033	344.929	18.0	1	11.96	5.98	20.2099	955.0	3.6	Outcome2	13.9	11.96	0.0	No	2.0	-1.94186485466214	0.956	274.727	n/a	GetAnswer	Loss
274.754	4.0	0.027	345.912	18.0	1	11.96	5.98	20.2099	955.0	3.6	Outcome2	13.9	11.96	0.0	No	n/a	-1.94186485466214	n/a	n/a	n/a	ShowChoice	Loss
278.769	1.0	0.015	349.927	18.0	1	11.96	5.98	20.2099	955.0	3.6	Outcome2	13.9	11.96	0.0	No	n/a	-1.94186485466214	n/a	n/a	n/a	ShowResult	Loss
279.785	6.787	0.016	350.943	18.0	1	11.96	5.98	20.2099	955.0	3.6	Outcome2	13.9	11.96	0.0	No	n/a	-1.94186485466214	n/a	n/a	n/a	ISITrial	Loss
286.6	3.0	0.028	357.758	19.0	1	12.9	-0.2	21.8224	955.0	2.0	Outcome2	-0.4	12.9	0.0	No	2.0	13.3035107587769	1.574	288.174	n/a	GetAnswer	Loss
288.199	4.0	0.025	359.357	19.0	1	12.9	-0.2	21.8224	955.0	2.0	Outcome2	-0.4	12.9	0.0	No	n/a	13.3035107587769	n/a	n/a	n/a	ShowChoice	Loss
292.214	1.0	0.015	363.372	19.0	1	12.9	-0.2	21.8224	955.0	2.0	Outcome2	-0.4	12.9	0.0	No	n/a	13.3035107587769	n/a	n/a	n/a	ShowResult	Loss
293.231	2.0	0.017	364.389	19.0	1	12.9	-0.2	21.8224	955.0	2.0	Outcome2	-0.4	12.9	0.0	No	n/a	13.3035107587769	n/a	n/a	n/a	ISITrial	Loss
295.263	3.0	0.032	366.421	20.0	1	7.3	3.65	22.7349	955.0	2.48	Outcome2	9.3	7.3	2.92125	Yes	2.0	-2.00358625896565	1.067	296.33	n/a	GetAnswer	Gain
296.346	4.0	0.016	367.504	20.0	1	7.3	3.65	22.7349	955.0	2.48	Outcome2	9.3	7.3	2.92125	Yes	n/a	-2.00358625896565	n/a	n/a	n/a	ShowChoice	Gain
300.361	1.0	0.015	371.519	20.0	1	7.3	3.65	22.7349	955.0	2.48	Outcome2	9.3	7.3	2.92125	Yes	n/a	-2.00358625896565	n/a	n/a	n/a	ShowResult	Gain
301.378	8.0	0.017	372.536	20.0	1	7.3	3.65	22.7349	955.0	2.48	Outcome2	9.3	7.3	2.92125	Yes	n/a	-2.00358625896565	n/a	n/a	n/a	ISITrial	Gain
309.392	2.921	0.014	380.55	20.0	1	7.3	3.65	22.7349	955.0	2.48	Outcome2	9.3	7.3	2.92125	Yes	n/a	-2.00358625896565	n/a	n/a	n/a	TrialHappPreview	Gain
312.341	4.015	0.028	383.499	20.0	1	7.3	3.65	22.7349	955.0	2.48	Outcome2	9.3	7.3	2.92125	Yes	n/a	-2.00358625896565	n/a	n/a	652.0	TrialHappiness	Gain
312.341	2.298	n/a	383.871	20.0	1	7.3	3.65	22.7349	955.0	2.48	Outcome2	9.3	7.3	2.92125	Yes	n/a	-2.00358625896565	n/a	n/a	652.0	TrialHappinessSliderResponse	Gain
316.356	3.685	4.015	387.514	20.0	1	7.3	3.65	22.7349	955.0	2.48	Outcome2	9.3	7.3	2.92125	Yes	n/a	-2.00358625896565	n/a	n/a	n/a	ISIRate	Gain
320.071	3.0	0.03	391.229	21.0	1	10.7	-1.47	24.0724	955.0	1.82	Outcome2	-2.94	10.7	0.0	No	2.0	13.6364665911665	1.376	321.447	n/a	GetAnswer	Loss
321.471	4.0	0.024	392.629	21.0	1	10.7	-1.47	24.0724	955.0	1.82	Outcome2	-2.94	10.7	0.0	No	n/a	13.6364665911665	n/a	n/a	n/a	ShowChoice	Loss
325.486	1.0	0.015	396.644	21.0	1	10.7	-1.47	24.0724	955.0	1.82	Outcome2	-2.94	10.7	0.0	No	n/a	13.6364665911665	n/a	n/a	n/a	ShowResult	Loss
326.502	3.555	0.016	397.66	21.0	1	10.7	-1.47	24.0724	955.0	1.82	Outcome2	-2.94	10.7	0.0	No	n/a	13.6364665911665	n/a	n/a	n/a	ISITrial	Loss
330.084	3.0	0.027	401.242	22.0	1	1.73	2.0	24.2886	955.0	1.0	Outcome1	1.73	3.7	3.2195	Yes	2.0	-1.96564741411854	2.235	332.319	n/a	GetAnswer	Mixed
332.334	4.0	0.015	403.492	22.0	1	1.73	2.0	24.2886	955.0	1.0	Outcome1	1.73	3.7	3.2195	Yes	n/a	-1.96564741411854	n/a	n/a	n/a	ShowChoice	Mixed
336.349	1.0	0.015	407.507	22.0	1	1.73	2.0	24.2886	955.0	1.0	Outcome1	1.73	3.7	3.2195	Yes	n/a	-1.96564741411854	n/a	n/a	n/a	ShowResult	Mixed
337.365	6.793	0.016	408.523	22.0	1	1.73	2.0	24.2886	955.0	1.0	Outcome1	1.73	3.7	3.2195	Yes	n/a	-1.96564741411854	n/a	n/a	n/a	ISITrial	Mixed
344.18	3.22	0.022	415.338	22.0	1	1.73	2.0	24.2886	955.0	1.0	Outcome1	1.73	3.7	3.2195	Yes	n/a	-1.96564741411854	n/a	n/a	n/a	TrialHappPreview	Mixed
347.428	4.016	0.028	418.586	22.0	1	1.73	2.0	24.2886	955.0	1.0	Outcome1	1.73	3.7	3.2195	Yes	2{-2}2{-2}2{-2}2{-2}	-1.96564741411854	1.584	349.012	652.0	TrialHappiness	Mixed
347.429	1.304	n/a	418.867	22.0	1	1.73	2.0	24.2886	955.0	1.0	Outcome1	1.73	3.7	3.2195	Yes	n/a	-1.96564741411854	n/a	n/a	652.0	TrialHappinessSliderResponse	Mixed
351.444	4.878	4.016	422.602	22.0	1	1.73	2.0	24.2886	955.0	1.0	Outcome1	1.73	3.7	3.2195	Yes	n/a	-1.96564741411854	n/a	n/a	n/a	ISIRate	Mixed
356.342	3.0	0.02	427.5	23.0	1	-3.0	-3.0	23.9136	955.0	0.82	Certain	3.5	-10.82	0.0	No	4.0	14.3227633069083	1.23	357.572	n/a	GetAnswer	Mixed
357.592	4.0	0.02	428.75	23.0	1	-3.0	-3.0	23.9136	955.0	0.82	Certain	3.5	-10.82	0.0	No	n/a	14.3227633069083	n/a	n/a	n/a	ShowChoice	Mixed
361.607	1.0	0.015	432.765	23.0	1	-3.0	-3.0	23.9136	955.0	0.82	Certain	3.5	-10.82	0.0	No	n/a	14.3227633069083	n/a	n/a	n/a	ShowResult	Mixed
362.623	8.0	0.016	433.781	23.0	1	-3.0	-3.0	23.9136	955.0	0.82	Certain	3.5	-10.82	0.0	No	n/a	14.3227633069083	n/a	n/a	n/a	ISITrial	Mixed
370.654	3.0	0.031	441.812	24.0	1	11.08	5.54	25.2986	955.0	2.22	Outcome1	11.08	13.1	3.255	Yes	2.0	-2.02283880709702	1.132	371.786	n/a	GetAnswer	Loss
371.803	4.0	0.017	442.961	24.0	1	11.08	5.54	25.2986	955.0	2.22	Outcome1	11.08	13.1	3.255	Yes	n/a	-2.02283880709702	n/a	n/a	n/a	ShowChoice	Loss
375.818	1.0	0.015	446.976	24.0	1	11.08	5.54	25.2986	955.0	2.22	Outcome1	11.08	13.1	3.255	Yes	n/a	-2.02283880709702	n/a	n/a	n/a	ShowResult	Loss
376.835	2.0	0.017	447.993	24.0	1	11.08	5.54	25.2986	955.0	2.22	Outcome1	11.08	13.1	3.255	Yes	n/a	-2.02283880709702	n/a	n/a	n/a	ISITrial	Loss
378.851	3.255	0.016	450.009	24.0	1	11.08	5.54	25.2986	955.0	2.22	Outcome1	11.08	13.1	3.255	Yes	n/a	-2.02283880709702	n/a	n/a	n/a	TrialHappPreview	Loss
382.133	4.015	0.027	453.291	24.0	1	11.08	5.54	25.2986	955.0	2.22	Outcome1	11.08	13.1	3.255	Yes	n/a	-2.02283880709702	n/a	n/a	632.0	TrialHappiness	Loss
382.134	2.966	n/a	453.521	24.0	1	11.08	5.54	25.2986	955.0	2.22	Outcome1	11.08	13.1	3.255	Yes	n/a	-2.02283880709702	n/a	n/a	632.0	TrialHappinessSliderResponse	Loss
386.148	5.02	4.015	457.306	24.0	1	11.08	5.54	25.2986	955.0	2.22	Outcome1	11.08	13.1	3.255	Yes	n/a	-2.02283880709702	n/a	n/a	n/a	ISIRate	Loss
391.196	3.0	0.028	462.354	25.0	1	1.0	1.0	25.4236	955.0	2.0	Certain	-6.45	8.9	0.0	No	4.0	15.3488108720272	1.509	392.705	n/a	GetAnswer	Gain
392.729	4.0	0.023	463.887	25.0	1	1.0	1.0	25.4236	955.0	2.0	Certain	-6.45	8.9	0.0	No	n/a	15.3488108720272	n/a	n/a	n/a	ShowChoice	Gain
396.745	1.0	0.016	467.903	25.0	1	1.0	1.0	25.4236	955.0	2.0	Certain	-6.45	8.9	0.0	No	n/a	15.3488108720272	n/a	n/a	n/a	ShowResult	Gain
397.761	3.749	0.016	468.919	25.0	1	1.0	1.0	25.4236	955.0	2.0	Certain	-6.45	8.9	0.0	No	n/a	15.3488108720272	n/a	n/a	n/a	ISITrial	Gain
401.543	3.0	0.033	472.701	26.0	1	-2.0	-2.0	25.1736	955.0	4.2	Certain	-9.61	6.1	0.0	No	4.0	15.7146092865232	2.376	403.919	n/a	GetAnswer	Gain
403.942	4.0	0.023	475.1	26.0	1	-2.0	-2.0	25.1736	955.0	4.2	Certain	-9.61	6.1	0.0	No	n/a	15.7146092865232	n/a	n/a	n/a	ShowChoice	Gain
407.957	1.0	0.015	479.115	26.0	1	-2.0	-2.0	25.1736	955.0	4.2	Certain	-9.61	6.1	0.0	No	n/a	15.7146092865232	n/a	n/a	n/a	ShowResult	Gain
408.974	7.834	0.017	480.132	26.0	1	-2.0	-2.0	25.1736	955.0	4.2	Certain	-9.61	6.1	0.0	No	n/a	15.7146092865232	n/a	n/a	n/a	ISITrial	Gain
416.838	3.0	0.03	487.996	27.0	1	-3.0	-3.0	24.7986	955.0	2.0	Certain	-11.18	4.9	2.54975	Yes	4.0	16.0804077010193	1.991	418.829	n/a	GetAnswer	Gain
418.853	4.0	0.024	490.011	27.0	1	-3.0	-3.0	24.7986	955.0	2.0	Certain	-11.18	4.9	2.54975	Yes	n/a	16.0804077010193	n/a	n/a	n/a	ShowChoice	Gain
422.869	1.0	0.016	494.027	27.0	1	-3.0	-3.0	24.7986	955.0	2.0	Certain	-11.18	4.9	2.54975	Yes	n/a	16.0804077010193	n/a	n/a	n/a	ShowResult	Gain
423.885	4.225	0.016	495.043	27.0	1	-3.0	-3.0	24.7986	955.0	2.0	Certain	-11.18	4.9	2.54975	Yes	n/a	16.0804077010193	n/a	n/a	n/a	ISITrial	Gain
428.134	2.55	0.024	499.292	27.0	1	-3.0	-3.0	24.7986	955.0	2.0	Certain	-11.18	4.9	2.54975	Yes	n/a	16.0804077010193	n/a	n/a	n/a	TrialHappPreview	Gain
430.716	4.015	0.032	501.874	27.0	1	-3.0	-3.0	24.7986	955.0	2.0	Certain	-11.18	4.9	2.54975	Yes	n/a	16.0804077010193	n/a	n/a	420.0	TrialHappiness	Gain
430.717	3.191	n/a	502.146	27.0	1	-3.0	-3.0	24.7986	955.0	2.0	Certain	-11.18	4.9	2.54975	Yes	n/a	16.0804077010193	n/a	n/a	420.0	TrialHappinessSliderResponse	Gain
434.731	2.199	4.015	505.889	27.0	1	-3.0	-3.0	24.7986	955.0	2.0	Certain	-11.18	4.9	2.54975	Yes	n/a	16.0804077010193	n/a	n/a	n/a	ISIRate	Gain
498.31	2.278	n/a	570.046	n/a	1	n/a	n/a	n/a	n/a	n/a	n/a	n/a	n/a	n/a	n/a	n/a	n/a	n/a	n/a	432.0	BlockStartHappinessSliderResponse	n/a
-71.891	-0.001	0.034	508.122	n/a	2	n/a	n/a	n/a	n/a	n/a	n/a	n/a	n/a	n/a	n/a	{SPACE}	n/a	57.313	-14.578	n/a	Rest	n/a
-14.561	4.0	0.016	565.452	n/a	2	n/a	n/a	n/a	n/a	n/a	n/a	n/a	n/a	n/a	n/a	n/a	n/a	n/a	n/a	n/a	BlockHappyPreview	n/a
-10.546	2.856	0.015	569.467	n/a	2	n/a	n/a	n/a	n/a	n/a	n/a	n/a	n/a	n/a	n/a	n/a	n/a	n/a	n/a	432.0	BlockStartHappiness	n/a
-1.716	-0.001	0.014	578.297	n/a	2	n/a	n/a	n/a	n/a	n/a	n/a	n/a	n/a	n/a	n/a	5.0	n/a	1.701	-0.015	n/a	ScanWait	n/a
0.0	10.0	0.015	580.013	n/a	2	n/a	n/a	n/a	n/a	n/a	n/a	n/a	n/a	n/a	n/a	n/a	n/a	n/a	n/a	n/a	GetReady	n/a
10.03	3.0	0.03	590.043	28.0	2	-5.06	-2.0	24.1661	70.0	0.52	Outcome1	-5.06	1.1	0.0	No	2.0	-6.156462585034009	1.805	11.835	n/a	GetAnswer	Mixed
11.863	4.0	0.028	591.876	28.0	2	-5.06	-2.0	24.1661	70.0	0.52	Outcome1	-5.06	1.1	0.0	No	n/a	-6.156462585034009	n/a	n/a	n/a	ShowChoice	Mixed
15.878	1.0	0.015	595.891	28.0	2	-5.06	-2.0	24.1661	70.0	0.52	Outcome1	-5.06	1.1	0.0	No	n/a	-6.156462585034009	n/a	n/a	n/a	ShowResult	Mixed
16.895	3.575	0.017	596.908	28.0	2	-5.06	-2.0	24.1661	70.0	0.52	Outcome1	-5.06	1.1	0.0	No	n/a	-6.156462585034009	n/a	n/a	n/a	ISITrial	Mixed
20.493	3.0	0.023	600.506	29.0	2	1.0	1.0	24.2911	70.0	5.0	Certain	1.58	0.08	3.529	Yes	4.0	1.5049130763416498	1.548	22.041	n/a	GetAnswer	Gain
22.059	4.0	0.018	602.072	29.0	2	1.0	1.0	24.2911	70.0	5.0	Certain	1.58	0.08	3.529	Yes	n/a	1.5049130763416498	n/a	n/a	n/a	ShowChoice	Gain
26.075	1.0	0.016	606.088	29.0	2	1.0	1.0	24.2911	70.0	5.0	Certain	1.58	0.08	3.529	Yes	n/a	1.5049130763416498	n/a	n/a	n/a	ShowResult	Gain
27.091	3.955	0.016	607.104	29.0	2	1.0	1.0	24.2911	70.0	5.0	Certain	1.58	0.08	3.529	Yes	n/a	1.5049130763416498	n/a	n/a	n/a	ISITrial	Gain
31.056	3.529	0.01	611.069	29.0	2	1.0	1.0	24.2911	70.0	5.0	Certain	1.58	0.08	3.529	Yes	n/a	1.5049130763416498	n/a	n/a	n/a	TrialHappPreview	Gain
34.605	4.015	0.02	614.618	29.0	2	1.0	1.0	24.2911	70.0	5.0	Certain	1.58	0.08	3.529	Yes	n/a	1.5049130763416498	n/a	n/a	388.0	TrialHappiness	Gain
34.606	1.998	n/a	615.831	29.0	2	1.0	1.0	24.2911	70.0	5.0	Certain	1.58	0.08	3.529	Yes	n/a	1.5049130763416498	n/a	n/a	388.0	TrialHappinessSliderResponse	Gain
38.62	6.116	4.015	618.633	29.0	2	1.0	1.0	24.2911	70.0	5.0	Certain	1.58	0.08	3.529	Yes	n/a	1.5049130763416498	n/a	n/a	n/a	ISIRate	Gain
44.768	3.0	0.032	624.781	30.0	2	0.27	0.14	24.3249	70.0	1.68	Outcome1	0.27	6.5	0.0	No	2.0	-6.22902494331066	1.411	46.179	n/a	GetAnswer	Gain
46.201	4.0	0.022	626.214	30.0	2	0.27	0.14	24.3249	70.0	1.68	Outcome1	0.27	6.5	0.0	No	n/a	-6.22902494331066	n/a	n/a	n/a	ShowChoice	Gain
50.216	1.0	0.015	630.229	30.0	2	0.27	0.14	24.3249	70.0	1.68	Outcome1	0.27	6.5	0.0	No	n/a	-6.22902494331066	n/a	n/a	n/a	ShowResult	Gain
51.233	4.453	0.017	631.246	30.0	2	0.27	0.14	24.3249	70.0	1.68	Outcome1	0.27	6.5	0.0	No	n/a	-6.22902494331066	n/a	n/a	n/a	ISITrial	Gain
55.714	3.0	0.028	635.727	31.0	2	-0.32	-1.0	24.2849	70.0	0.3	Outcome1	-0.32	-1.71	2.50325	Yes	2.0	1.3904006046863202	1.943	57.657	n/a	GetAnswer	Mixed
57.68	4.0	0.023	637.693	31.0	2	-0.32	-1.0	24.2849	70.0	0.3	Outcome1	-0.32	-1.71	2.50325	Yes	n/a	1.3904006046863202	n/a	n/a	n/a	ShowChoice	Mixed
61.696	1.0	0.016	641.709	31.0	2	-0.32	-1.0	24.2849	70.0	0.3	Outcome1	-0.32	-1.71	2.50325	Yes	n/a	1.3904006046863202	n/a	n/a	n/a	ShowResult	Mixed
62.712	4.786	0.016	642.725	31.0	2	-0.32	-1.0	24.2849	70.0	0.3	Outcome1	-0.32	-1.71	2.50325	Yes	n/a	1.3904006046863202	n/a	n/a	n/a	ISITrial	Mixed
67.51	2.503	0.012	647.523	31.0	2	-0.32	-1.0	24.2849	70.0	0.3	Outcome1	-0.32	-1.71	2.50325	Yes	n/a	1.3904006046863202	n/a	n/a	n/a	TrialHappPreview	Mixed
70.043	4.015	0.03	650.056	31.0	2	-0.32	-1.0	24.2849	70.0	0.3	Outcome1	-0.32	-1.71	2.50325	Yes	4{-4}4{-4}4{-4}	1.3904006046863202	1.256	71.299	440.0	TrialHappiness	Mixed
70.043	0.933	n/a	650.379	31.0	2	-0.32	-1.0	24.2849	70.0	0.3	Outcome1	-0.32	-1.71	2.50325	Yes	n/a	1.3904006046863202	n/a	n/a	440.0	TrialHappinessSliderResponse	Mixed
74.058	2.013	4.015	654.071	31.0	2	-0.32	-1.0	24.2849	70.0	0.3	Outcome1	-0.32	-1.71	2.50325	Yes	n/a	1.3904006046863202	n/a	n/a	n/a	ISIRate	Mixed
76.091	3.0	0.02	656.104	32.0	2	0.47	0.24	24.3437	70.0	5.0	Outcome2	8.3	0.47	0.0	No	2.0	-7.834467120181411	1.215	77.306	n/a	GetAnswer	Gain
77.323	4.0	0.017	657.336	32.0	2	0.47	0.24	24.3437	70.0	5.0	Outcome2	8.3	0.47	0.0	No	n/a	-7.834467120181411	n/a	n/a	n/a	ShowChoice	Gain
81.339	1.0	0.016	661.352	32.0	2	0.47	0.24	24.3437	70.0	5.0	Outcome2	8.3	0.47	0.0	No	n/a	-7.834467120181411	n/a	n/a	n/a	ShowResult	Gain
82.355	2.0	0.016	662.368	32.0	2	0.47	0.24	24.3437	70.0	5.0	Outcome2	8.3	0.47	0.0	No	n/a	-7.834467120181411	n/a	n/a	n/a	ISITrial	Gain
84.371	3.0	0.016	664.384	33.0	2	0.0	0.0	24.3437	70.0	1.5	Certain	4.1	-4.15	0.0	No	4.0	-8.25396825396825	1.824	86.195	n/a	GetAnswer	Mixed
86.22	4.0	0.025	666.233	33.0	2	0.0	0.0	24.3437	70.0	1.5	Certain	4.1	-4.15	0.0	No	n/a	-8.25396825396825	n/a	n/a	n/a	ShowChoice	Mixed
90.236	1.0	0.016	670.249	33.0	2	0.0	0.0	24.3437	70.0	1.5	Certain	4.1	-4.15	0.0	No	n/a	-8.25396825396825	n/a	n/a	n/a	ShowResult	Mixed
91.252	5.099	0.016	671.265	33.0	2	0.0	0.0	24.3437	70.0	1.5	Certain	4.1	-4.15	0.0	No	n/a	-8.25396825396825	n/a	n/a	n/a	ISITrial	Mixed
96.367	3.0	0.016	676.38	34.0	2	3.63	1.82	24.7975	70.0	5.0	Outcome2	12.3	3.63	3.2315	Yes	2.0	-8.6734693877551	1.278	97.645	n/a	GetAnswer	Loss
97.666	4.0	0.021	677.679	34.0	2	3.63	1.82	24.7975	70.0	5.0	Outcome2	12.3	3.63	3.2315	Yes	n/a	-8.6734693877551	n/a	n/a	n/a	ShowChoice	Loss
101.682	1.0	0.016	681.695	34.0	2	3.63	1.82	24.7975	70.0	5.0	Outcome2	12.3	3.63	3.2315	Yes	n/a	-8.6734693877551	n/a	n/a	n/a	ShowResult	Loss
102.698	4.784	0.016	682.711	34.0	2	3.63	1.82	24.7975	70.0	5.0	Outcome2	12.3	3.63	3.2315	Yes	n/a	-8.6734693877551	n/a	n/a	n/a	ISITrial	Loss
107.496	3.232	0.014	687.509	34.0	2	3.63	1.82	24.7975	70.0	5.0	Outcome2	12.3	3.63	3.2315	Yes	n/a	-8.6734693877551	n/a	n/a	n/a	TrialHappPreview	Loss
110.745	4.015	0.017	690.758	34.0	2	3.63	1.82	24.7975	70.0	5.0	Outcome2	12.3	3.63	3.2315	Yes	n/a	-8.6734693877551	n/a	n/a	388.0	TrialHappiness	Loss
110.746	2.527	n/a	690.969	34.0	2	3.63	1.82	24.7975	70.0	5.0	Outcome2	12.3	3.63	3.2315	Yes	n/a	-8.6734693877551	n/a	n/a	388.0	TrialHappinessSliderResponse	Loss
114.76	4.926	4.015	694.773	34.0	2	3.63	1.82	24.7975	70.0	5.0	Outcome2	12.3	3.63	3.2315	Yes	n/a	-8.6734693877551	n/a	n/a	n/a	ISIRate	Loss
119.709	3.0	0.023	699.722	35.0	2	-2.0	-2.0	24.5475	70.0	2.0	Certain	-5.91	2.3	0.0	No	4.0	-8.20861678004535	1.931	121.64	n/a	GetAnswer	Mixed
121.658	4.0	0.018	701.671	35.0	2	-2.0	-2.0	24.5475	70.0	2.0	Certain	-5.91	2.3	0.0	No	n/a	-8.20861678004535	n/a	n/a	n/a	ShowChoice	Mixed
125.673	1.0	0.015	705.686	35.0	2	-2.0	-2.0	24.5475	70.0	2.0	Certain	-5.91	2.3	0.0	No	n/a	-8.20861678004535	n/a	n/a	n/a	ShowResult	Mixed
126.69	2.098	0.017	706.703	35.0	2	-2.0	-2.0	24.5475	70.0	2.0	Certain	-5.91	2.3	0.0	No	n/a	-8.20861678004535	n/a	n/a	n/a	ISITrial	Mixed
128.805	3.0	0.017	708.818	36.0	2	-1.67	2.0	24.3387	70.0	2.0	Outcome2	6.9	-1.67	3.33575	Yes	2.0	-8.56916099773243	2.132	130.937	n/a	GetAnswer	Gain
130.955	4.0	0.018	710.968	36.0	2	-1.67	2.0	24.3387	70.0	2.0	Outcome2	6.9	-1.67	3.33575	Yes	n/a	-8.56916099773243	n/a	n/a	n/a	ShowChoice	Gain
134.97	1.0	0.015	714.983	36.0	2	-1.67	2.0	24.3387	70.0	2.0	Outcome2	6.9	-1.67	3.33575	Yes	n/a	-8.56916099773243	n/a	n/a	n/a	ShowResult	Gain
135.986	5.156	0.016	715.999	36.0	2	-1.67	2.0	24.3387	70.0	2.0	Outcome2	6.9	-1.67	3.33575	Yes	n/a	-8.56916099773243	n/a	n/a	n/a	ISITrial	Gain
141.168	3.336	0.026	721.181	36.0	2	-1.67	2.0	24.3387	70.0	2.0	Outcome2	6.9	-1.67	3.33575	Yes	n/a	-8.56916099773243	n/a	n/a	n/a	TrialHappPreview	Gain
144.533	4.016	0.029	724.546	36.0	2	-1.67	2.0	24.3387	70.0	2.0	Outcome2	6.9	-1.67	3.33575	Yes	n/a	-8.56916099773243	n/a	n/a	344.0	TrialHappiness	Gain
144.534	2.295	n/a	724.921	36.0	2	-1.67	2.0	24.3387	70.0	2.0	Outcome2	6.9	-1.67	3.33575	Yes	n/a	-8.56916099773243	n/a	n/a	344.0	TrialHappinessSliderResponse	Gain
148.549	5.343	4.016	728.562	36.0	2	-1.67	2.0	24.3387	70.0	2.0	Outcome2	6.9	-1.67	3.33575	Yes	n/a	-8.56916099773243	n/a	n/a	n/a	ISIRate	Gain
153.913	3.0	0.021	733.926	37.0	2	-0.08	-0.04	24.3287	70.0	4.2	Outcome1	-0.08	8.1	0.0	No	2.0	-8.181405895691611	1.46	155.373	n/a	GetAnswer	Gain
155.396	4.0	0.023	735.409	37.0	2	-0.08	-0.04	24.3287	70.0	4.2	Outcome1	-0.08	8.1	0.0	No	n/a	-8.181405895691611	n/a	n/a	n/a	ShowChoice	Gain
159.411	1.0	0.015	739.424	37.0	2	-0.08	-0.04	24.3287	70.0	4.2	Outcome1	-0.08	8.1	0.0	No	n/a	-8.181405895691611	n/a	n/a	n/a	ShowResult	Gain
160.428	3.598	0.017	740.441	37.0	2	-0.08	-0.04	24.3287	70.0	4.2	Outcome1	-0.08	8.1	0.0	No	n/a	-8.181405895691611	n/a	n/a	n/a	ISITrial	Gain
164.043	3.0	0.017	744.056	38.0	2	1.0	1.0	24.4537	70.0	3.16	Certain	5.7	-2.79	0.0	No	4.0	-8.49206349206349	1.48	165.523	n/a	GetAnswer	Gain
165.543	4.0	0.02	745.556	38.0	2	1.0	1.0	24.4537	70.0	3.16	Certain	5.7	-2.79	0.0	No	n/a	-8.49206349206349	n/a	n/a	n/a	ShowChoice	Gain
169.558	1.0	0.015	749.571	38.0	2	1.0	1.0	24.4537	70.0	3.16	Certain	5.7	-2.79	0.0	No	n/a	-8.49206349206349	n/a	n/a	n/a	ShowResult	Gain
170.574	4.787	0.016	750.587	38.0	2	1.0	1.0	24.4537	70.0	3.16	Certain	5.7	-2.79	0.0	No	n/a	-8.49206349206349	n/a	n/a	n/a	ISITrial	Gain
175.389	3.0	0.028	755.402	39.0	2	1.5	0.75	24.6412	70.0	5.0	Outcome1	1.5	10.3	2.86425	Yes	2.0	-8.80272108843537	1.295	176.684	n/a	GetAnswer	Gain
176.705	4.0	0.021	756.718	39.0	2	1.5	0.75	24.6412	70.0	5.0	Outcome1	1.5	10.3	2.86425	Yes	n/a	-8.80272108843537	n/a	n/a	n/a	ShowChoice	Gain
180.721	1.0	0.016	760.734	39.0	2	1.5	0.75	24.6412	70.0	5.0	Outcome1	1.5	10.3	2.86425	Yes	n/a	-8.80272108843537	n/a	n/a	n/a	ShowResult	Gain
181.737	2.348	0.016	761.75	39.0	2	1.5	0.75	24.6412	70.0	5.0	Outcome1	1.5	10.3	2.86425	Yes	n/a	-8.80272108843537	n/a	n/a	n/a	ISITrial	Gain
184.103	2.864	0.018	764.116	39.0	2	1.5	0.75	24.6412	70.0	5.0	Outcome1	1.5	10.3	2.86425	Yes	n/a	-8.80272108843537	n/a	n/a	n/a	TrialHappPreview	Gain
186.985	4.015	0.018	766.998	39.0	2	1.5	0.75	24.6412	70.0	5.0	Outcome1	1.5	10.3	2.86425	Yes	4{-4}2{-2}2{-2}2{-2}	-8.80272108843537	2.41	189.395	412.0	TrialHappiness	Gain
186.986	2.12	n/a	767.289	39.0	2	1.5	0.75	24.6412	70.0	5.0	Outcome1	1.5	10.3	2.86425	Yes	n/a	-8.80272108843537	n/a	n/a	412.0	TrialHappinessSliderResponse	Gain
191.0	3.457	4.015	771.013	39.0	2	1.5	0.75	24.6412	70.0	5.0	Outcome1	1.5	10.3	2.86425	Yes	n/a	-8.80272108843537	n/a	n/a	n/a	ISIRate	Gain
194.483	3.0	0.026	774.496	40.0	2	1.0	1.0	24.7662	70.0	4.2	Certain	2.52	0.76	0.0	No	4.0	1.7605820105820102	1.713	196.196	n/a	GetAnswer	Gain
196.215	4.0	0.019	776.228	40.0	2	1.0	1.0	24.7662	70.0	4.2	Certain	2.52	0.76	0.0	No	n/a	1.7605820105820102	n/a	n/a	n/a	ShowChoice	Gain
200.231	1.0	0.016	780.244	40.0	2	1.0	1.0	24.7662	70.0	4.2	Certain	2.52	0.76	0.0	No	n/a	1.7605820105820102	n/a	n/a	n/a	ShowResult	Gain
201.247	3.158	0.016	781.26	40.0	2	1.0	1.0	24.7662	70.0	4.2	Certain	2.52	0.76	0.0	No	n/a	1.7605820105820102	n/a	n/a	n/a	ISITrial	Gain
204.429	3.0	0.024	784.442	41.0	2	1.0	1.0	24.8912	70.0	1.82	Certain	-3.96	6.7	4.0	Yes	4.0	-10.6575963718821	1.821	206.25	n/a	GetAnswer	Gain
206.262	4.0	0.012	786.275	41.0	2	1.0	1.0	24.8912	70.0	1.82	Certain	-3.96	6.7	4.0	Yes	n/a	-10.6575963718821	n/a	n/a	n/a	ShowChoice	Gain
210.277	1.0	0.015	790.29	41.0	2	1.0	1.0	24.8912	70.0	1.82	Certain	-3.96	6.7	4.0	Yes	n/a	-10.6575963718821	n/a	n/a	n/a	ShowResult	Gain
211.293	4.506	0.016	791.306	41.0	2	1.0	1.0	24.8912	70.0	1.82	Certain	-3.96	6.7	4.0	Yes	n/a	-10.6575963718821	n/a	n/a	n/a	ISITrial	Gain
215.825	4.0	0.026	795.838	41.0	2	1.0	1.0	24.8912	70.0	1.82	Certain	-3.96	6.7	4.0	Yes	n/a	-10.6575963718821	n/a	n/a	n/a	TrialHappPreview	Gain
219.84	4.016	0.015	799.853	41.0	2	1.0	1.0	24.8912	70.0	1.82	Certain	-3.96	6.7	4.0	Yes	n/a	-10.6575963718821	n/a	n/a	472.0	TrialHappiness	Gain
219.841	0.357	n/a	800.472	41.0	2	1.0	1.0	24.8912	70.0	1.82	Certain	-3.96	6.7	4.0	Yes	n/a	-10.6575963718821	n/a	n/a	472.0	TrialHappinessSliderResponse	Gain
223.856	8.0	4.016	803.869	41.0	2	1.0	1.0	24.8912	70.0	1.82	Certain	-3.96	6.7	4.0	Yes	n/a	-10.6575963718821	n/a	n/a	n/a	ISIRate	Gain
231.886	3.0	0.03	811.899	42.0	2	-13.17	-7.0	23.245	70.0	0.4	Outcome1	-13.17	-1.1	0.0	No	2.0	-12.0657596371882	2.349	234.235	n/a	GetAnswer	Mixed
234.252	4.0	0.017	814.265	42.0	2	-13.17	-7.0	23.245	70.0	0.4	Outcome1	-13.17	-1.1	0.0	No	n/a	-12.0657596371882	n/a	n/a	n/a	ShowChoice	Mixed
238.267	1.0	0.015	818.28	42.0	2	-13.17	-7.0	23.245	70.0	0.4	Outcome1	-13.17	-1.1	0.0	No	n/a	-12.0657596371882	n/a	n/a	n/a	ShowResult	Mixed
239.284	6.248	0.017	819.297	42.0	2	-13.17	-7.0	23.245	70.0	0.4	Outcome1	-13.17	-1.1	0.0	No	n/a	-12.0657596371882	n/a	n/a	n/a	ISITrial	Mixed
245.548	3.0	0.016	825.561	43.0	2	-0.02	-0.01	23.2425	70.0	1.68	Outcome2	12.5	-0.02	2.77575	Yes	2.0	-12.521541950113402	1.353	246.901	n/a	GetAnswer	Loss
246.914	4.0	0.013	826.927	43.0	2	-0.02	-0.01	23.2425	70.0	1.68	Outcome2	12.5	-0.02	2.77575	Yes	n/a	-12.521541950113402	n/a	n/a	n/a	ShowChoice	Loss
250.93	1.0	0.016	830.943	43.0	2	-0.02	-0.01	23.2425	70.0	1.68	Outcome2	12.5	-0.02	2.77575	Yes	n/a	-12.521541950113402	n/a	n/a	n/a	ShowResult	Loss
251.946	4.596	0.016	831.959	43.0	2	-0.02	-0.01	23.2425	70.0	1.68	Outcome2	12.5	-0.02	2.77575	Yes	n/a	-12.521541950113402	n/a	n/a	n/a	ISITrial	Loss
256.561	2.776	0.019	836.574	43.0	2	-0.02	-0.01	23.2425	70.0	1.68	Outcome2	12.5	-0.02	2.77575	Yes	n/a	-12.521541950113402	n/a	n/a	n/a	TrialHappPreview	Loss
259.36	4.015	0.023	839.373	43.0	2	-0.02	-0.01	23.2425	70.0	1.68	Outcome2	12.5	-0.02	2.77575	Yes	n/a	-12.521541950113402	n/a	n/a	220.0	TrialHappiness	Loss
259.361	1.827	n/a	840.302	43.0	2	-0.02	-0.01	23.2425	70.0	1.68	Outcome2	12.5	-0.02	2.77575	Yes	n/a	-12.521541950113402	n/a	n/a	220.0	TrialHappinessSliderResponse	Loss
263.375	3.103	4.015	843.388	43.0	2	-0.02	-0.01	23.2425	70.0	1.68	Outcome2	12.5	-0.02	2.77575	Yes	n/a	-12.521541950113402	n/a	n/a	n/a	ISIRate	Loss
266.507	3.0	0.029	846.52	44.0	2	2.72	2.0	23.5825	70.0	2.0	Outcome2	1.6	2.72	0.0	No	2.0	1.12112622826909	1.181	267.688	n/a	GetAnswer	Loss
267.707	4.0	0.019	847.72	44.0	2	2.72	2.0	23.5825	70.0	2.0	Outcome2	1.6	2.72	0.0	No	n/a	1.12112622826909	n/a	n/a	n/a	ShowChoice	Loss
271.722	1.0	0.015	851.735	44.0	2	2.72	2.0	23.5825	70.0	2.0	Outcome2	1.6	2.72	0.0	No	n/a	1.12112622826909	n/a	n/a	n/a	ShowResult	Loss
272.739	2.42	0.017	852.752	44.0	2	2.72	2.0	23.5825	70.0	2.0	Outcome2	1.6	2.72	0.0	No	n/a	1.12112622826909	n/a	n/a	n/a	ISITrial	Loss
275.188	3.0	0.029	855.201	45.0	2	-2.0	-2.0	23.3325	70.0	0.2	Certain	-6.36	2.5	0.0	No	4.0	-8.86167800453515	2.309	277.497	n/a	GetAnswer	Mixed
277.52	4.0	0.023	857.533	45.0	2	-2.0	-2.0	23.3325	70.0	0.2	Certain	-6.36	2.5	0.0	No	n/a	-8.86167800453515	n/a	n/a	n/a	ShowChoice	Mixed
281.536	1.0	0.016	861.549	45.0	2	-2.0	-2.0	23.3325	70.0	0.2	Certain	-6.36	2.5	0.0	No	n/a	-8.86167800453515	n/a	n/a	n/a	ShowResult	Mixed
282.552	3.144	0.016	862.565	45.0	2	-2.0	-2.0	23.3325	70.0	0.2	Certain	-6.36	2.5	0.0	No	n/a	-8.86167800453515	n/a	n/a	n/a	ISITrial	Mixed
285.717	3.0	0.021	865.73	46.0	2	0.87	0.44	23.4413	70.0	3.6	Outcome1	0.87	9.9	3.84125	Yes	2.0	-9.03174603174603	1.172	286.889	n/a	GetAnswer	Gain
286.917	4.0	0.028	866.93	46.0	2	0.87	0.44	23.4413	70.0	3.6	Outcome1	0.87	9.9	3.84125	Yes	n/a	-9.03174603174603	n/a	n/a	n/a	ShowChoice	Gain
290.932	1.0	0.015	870.945	46.0	2	0.87	0.44	23.4413	70.0	3.6	Outcome1	0.87	9.9	3.84125	Yes	n/a	-9.03174603174603	n/a	n/a	n/a	ShowResult	Gain
291.949	2.246	0.017	871.962	46.0	2	0.87	0.44	23.4413	70.0	3.6	Outcome1	0.87	9.9	3.84125	Yes	n/a	-9.03174603174603	n/a	n/a	n/a	ISITrial	Gain
294.214	3.841	0.019	874.227	46.0	2	0.87	0.44	23.4413	70.0	3.6	Outcome1	0.87	9.9	3.84125	Yes	n/a	-9.03174603174603	n/a	n/a	n/a	TrialHappPreview	Gain
298.08	4.015	0.025	878.093	46.0	2	0.87	0.44	23.4413	70.0	3.6	Outcome1	0.87	9.9	3.84125	Yes	n/a	-9.03174603174603	n/a	n/a	320.0	TrialHappiness	Gain
298.08	1.643	n/a	878.19	46.0	2	0.87	0.44	23.4413	70.0	3.6	Outcome1	0.87	9.9	3.84125	Yes	n/a	-9.03174603174603	n/a	n/a	320.0	TrialHappinessSliderResponse	Gain
302.095	7.365	4.015	882.108	46.0	2	0.87	0.44	23.4413	70.0	3.6	Outcome1	0.87	9.9	3.84125	Yes	n/a	-9.03174603174603	n/a	n/a	n/a	ISIRate	Gain
309.476	3.0	0.016	889.489	47.0	2	-4.0	-4.0	22.9413	70.0	0.82	Certain	-9.4	1.5	0.0	No	4.0	-10.9024943310658	2.414	311.89	n/a	GetAnswer	Mixed
311.908	4.0	0.018	891.921	47.0	2	-4.0	-4.0	22.9413	70.0	0.82	Certain	-9.4	1.5	0.0	No	n/a	-10.9024943310658	n/a	n/a	n/a	ShowChoice	Mixed
315.924	1.0	0.016	895.937	47.0	2	-4.0	-4.0	22.9413	70.0	0.82	Certain	-9.4	1.5	0.0	No	n/a	-10.9024943310658	n/a	n/a	n/a	ShowResult	Mixed
316.94	2.0	0.016	896.953	47.0	2	-4.0	-4.0	22.9413	70.0	0.82	Certain	-9.4	1.5	0.0	No	n/a	-10.9024943310658	n/a	n/a	n/a	ISITrial	Mixed
318.956	3.0	0.016	898.969	48.0	2	0.0	0.0	22.9413	70.0	0.4	Certain	0.72	-0.87	2.83175	Yes	4.0	1.59353741496599	1.891	320.847	n/a	GetAnswer	Mixed
320.872	4.0	0.025	900.885	48.0	2	0.0	0.0	22.9413	70.0	0.4	Certain	0.72	-0.87	2.83175	Yes	n/a	1.59353741496599	n/a	n/a	n/a	ShowChoice	Mixed
324.887	1.0	0.015	904.9	48.0	2	0.0	0.0	22.9413	70.0	0.4	Certain	0.72	-0.87	2.83175	Yes	n/a	1.59353741496599	n/a	n/a	n/a	ShowResult	Mixed
325.903	3.692	0.016	905.916	48.0	2	0.0	0.0	22.9413	70.0	0.4	Certain	0.72	-0.87	2.83175	Yes	n/a	1.59353741496599	n/a	n/a	n/a	ISITrial	Mixed
329.619	2.832	0.024	909.632	48.0	2	0.0	0.0	22.9413	70.0	0.4	Certain	0.72	-0.87	2.83175	Yes	n/a	1.59353741496599	n/a	n/a	n/a	TrialHappPreview	Mixed
332.468	4.015	0.017	912.481	48.0	2	0.0	0.0	22.9413	70.0	0.4	Certain	0.72	-0.87	2.83175	Yes	{-4}4{-4}4{-4}4{-4}4{-4}4{-4}4{-4}4{-4}4{-4}2{-2}	1.59353741496599	2.997	335.465	372.0	TrialHappiness	Mixed
332.468	2.876	n/a	912.602	48.0	2	0.0	0.0	22.9413	70.0	0.4	Certain	0.72	-0.87	2.83175	Yes	n/a	1.59353741496599	n/a	n/a	372.0	TrialHappinessSliderResponse	Mixed
336.483	3.327	4.015	916.496	48.0	2	0.0	0.0	22.9413	70.0	0.4	Certain	0.72	-0.87	2.83175	Yes	n/a	1.59353741496599	n/a	n/a	n/a	ISIRate	Mixed
339.832	3.0	0.022	919.845	49.0	2	0.0	0.0	22.9413	70.0	0.3	Certain	0.18	-1.65	0.0	No	4.0	1.8284202569916896	1.466	341.298	n/a	GetAnswer	Mixed
341.315	4.0	0.017	921.328	49.0	2	0.0	0.0	22.9413	70.0	0.3	Certain	0.18	-1.65	0.0	No	n/a	1.8284202569916896	n/a	n/a	n/a	ShowChoice	Mixed
345.33	1.0	0.015	925.343	49.0	2	0.0	0.0	22.9413	70.0	0.3	Certain	0.18	-1.65	0.0	No	n/a	1.8284202569916896	n/a	n/a	n/a	ShowResult	Mixed
346.346	8.0	0.016	926.359	49.0	2	0.0	0.0	22.9413	70.0	0.3	Certain	0.18	-1.65	0.0	No	n/a	1.8284202569916896	n/a	n/a	n/a	ISITrial	Mixed
354.377	3.0	0.031	934.39	50.0	2	-3.0	-3.0	22.5663	70.0	0.66	Certain	-9.4	3.3	3.54725	Yes	4.0	-12.6961451247166	2.576	356.953	n/a	GetAnswer	Mixed
356.976	4.0	0.023	936.989	50.0	2	-3.0	-3.0	22.5663	70.0	0.66	Certain	-9.4	3.3	3.54725	Yes	n/a	-12.6961451247166	n/a	n/a	n/a	ShowChoice	Mixed
360.991	1.0	0.015	941.004	50.0	2	-3.0	-3.0	22.5663	70.0	0.66	Certain	-9.4	3.3	3.54725	Yes	n/a	-12.6961451247166	n/a	n/a	n/a	ShowResult	Mixed
362.007	7.537	0.016	942.02	50.0	2	-3.0	-3.0	22.5663	70.0	0.66	Certain	-9.4	3.3	3.54725	Yes	n/a	-12.6961451247166	n/a	n/a	n/a	ISITrial	Mixed
369.555	3.547	0.011	949.568	50.0	2	-3.0	-3.0	22.5663	70.0	0.66	Certain	-9.4	3.3	3.54725	Yes	n/a	-12.6961451247166	n/a	n/a	n/a	TrialHappPreview	Mixed
373.12	4.016	0.018	953.133	50.0	2	-3.0	-3.0	22.5663	70.0	0.66	Certain	-9.4	3.3	3.54725	Yes	n/a	-12.6961451247166	n/a	n/a	352.0	TrialHappiness	Mixed
373.121	1.577	n/a	953.159	50.0	2	-3.0	-3.0	22.5663	70.0	0.66	Certain	-9.4	3.3	3.54725	Yes	n/a	-12.6961451247166	n/a	n/a	352.0	TrialHappinessSliderResponse	Mixed
377.136	6.189	4.016	957.149	50.0	2	-3.0	-3.0	22.5663	70.0	0.66	Certain	-9.4	3.3	3.54725	Yes	n/a	-12.6961451247166	n/a	n/a	n/a	ISIRate	Mixed
383.35	3.0	0.025	963.363	51.0	2	-1.0	-1.0	22.4413	70.0	2.0	Certain	-1.72	0.08	0.0	No	4.0	1.8042328042328	1.587	384.937	n/a	GetAnswer	Mixed
384.949	4.0	0.012	964.962	51.0	2	-1.0	-1.0	22.4413	70.0	2.0	Certain	-1.72	0.08	0.0	No	n/a	1.8042328042328	n/a	n/a	n/a	ShowChoice	Mixed
388.965	1.0	0.016	968.978	51.0	2	-1.0	-1.0	22.4413	70.0	2.0	Certain	-1.72	0.08	0.0	No	n/a	1.8042328042328	n/a	n/a	n/a	ShowResult	Mixed
389.981	5.508	0.016	969.994	51.0	2	-1.0	-1.0	22.4413	70.0	2.0	Certain	-1.72	0.08	0.0	No	n/a	1.8042328042328	n/a	n/a	n/a	ISITrial	Mixed
395.512	3.0	0.023	975.525	52.0	2	-1.0	-1.0	22.3163	70.0	2.48	Certain	-7.72	5.3	0.0	No	4.0	-13.0181405895692	1.759	397.271	n/a	GetAnswer	Gain
397.295	4.0	0.024	977.308	52.0	2	-1.0	-1.0	22.3163	70.0	2.48	Certain	-7.72	5.3	0.0	No	n/a	-13.0181405895692	n/a	n/a	n/a	ShowChoice	Gain
401.31	1.0	0.015	981.323	52.0	2	-1.0	-1.0	22.3163	70.0	2.48	Certain	-7.72	5.3	0.0	No	n/a	-13.0181405895692	n/a	n/a	n/a	ShowResult	Gain
402.327	5.913	0.017	982.34	52.0	2	-1.0	-1.0	22.3163	70.0	2.48	Certain	-7.72	5.3	0.0	No	n/a	-13.0181405895692	n/a	n/a	n/a	ISITrial	Gain
408.258	3.0	0.018	988.271	53.0	2	-10.64	-4.0	20.9863	70.0	0.3	Outcome1	-10.64	2.7	2.99675	Yes	2.0	-13.3378684807256	2.788	411.046	n/a	GetAnswer	Mixed
411.074	4.0	0.028	991.087	53.0	2	-10.64	-4.0	20.9863	70.0	0.3	Outcome1	-10.64	2.7	2.99675	Yes	n/a	-13.3378684807256	n/a	n/a	n/a	ShowChoice	Mixed
415.089	1.0	0.015	995.102	53.0	2	-10.64	-4.0	20.9863	70.0	0.3	Outcome1	-10.64	2.7	2.99675	Yes	n/a	-13.3378684807256	n/a	n/a	n/a	ShowResult	Mixed
416.105	3.66	0.016	996.118	53.0	2	-10.64	-4.0	20.9863	70.0	0.3	Outcome1	-10.64	2.7	2.99675	Yes	n/a	-13.3378684807256	n/a	n/a	n/a	ISITrial	Mixed
419.787	2.997	0.022	999.8	53.0	2	-10.64	-4.0	20.9863	70.0	0.3	Outcome1	-10.64	2.7	2.99675	Yes	n/a	-13.3378684807256	n/a	n/a	n/a	TrialHappPreview	Mixed
422.803	4.015	0.019	1002.816	53.0	2	-10.64	-4.0	20.9863	70.0	0.3	Outcome1	-10.64	2.7	2.99675	Yes	n/a	-13.3378684807256	n/a	n/a	260.0	TrialHappiness	Mixed
422.804	2.47	n/a	1002.834	53.0	2	-10.64	-4.0	20.9863	70.0	0.3	Outcome1	-10.64	2.7	2.99675	Yes	n/a	-13.3378684807256	n/a	n/a	260.0	TrialHappinessSliderResponse	Mixed
426.818	3.987	4.015	1006.831	53.0	2	-10.64	-4.0	20.9863	70.0	0.3	Outcome1	-10.64	2.7	2.99675	Yes	n/a	-13.3378684807256	n/a	n/a	n/a	ISIRate	Mixed
430.833	3.0	0.028	1010.846	54.0	2	1.0	1.0	21.1113	70.0	2.48	Certain	7.3	-4.79	0.0	No	4.0	-12.092970521542	1.535	432.368	n/a	GetAnswer	Gain
432.383	4.0	0.015	1012.396	54.0	2	1.0	1.0	21.1113	70.0	2.48	Certain	7.3	-4.79	0.0	No	n/a	-12.092970521542	n/a	n/a	n/a	ShowChoice	Gain
436.398	1.0	0.015	1016.411	54.0	2	1.0	1.0	21.1113	70.0	2.48	Certain	7.3	-4.79	0.0	No	n/a	-12.092970521542	n/a	n/a	n/a	ShowResult	Gain
437.414	8.0	0.016	1017.427	54.0	2	1.0	1.0	21.1113	70.0	2.48	Certain	7.3	-4.79	0.0	No	n/a	-12.092970521542	n/a	n/a	n/a	ISITrial	Gain
508.157	0.395	n/a	1088.181	n/a	2	n/a	n/a	n/a	n/a	n/a	n/a	n/a	n/a	n/a	n/a	n/a	n/a	n/a	n/a	392.0	BlockStartHappinessSliderResponse	n/a
-73.291	-0.001	0.031	1025.458	n/a	3	n/a	n/a	n/a	n/a	n/a	n/a	n/a	n/a	n/a	n/a	{SPACE}	n/a	58.671	-14.62	n/a	Rest	n/a
-14.595	4.0	0.025	1084.154	n/a	3	n/a	n/a	n/a	n/a	n/a	n/a	n/a	n/a	n/a	n/a	n/a	n/a	n/a	n/a	n/a	BlockHappyPreview	n/a
-10.58	0.406	0.015	1088.169	n/a	3	n/a	n/a	n/a	n/a	n/a	n/a	n/a	n/a	n/a	n/a	n/a	n/a	n/a	n/a	392.0	BlockStartHappiness	n/a
-3.799	-0.001	0.021	1094.95	n/a	3	n/a	n/a	n/a	n/a	n/a	n/a	n/a	n/a	n/a	n/a	5.0	n/a	3.779	-0.02	n/a	ScanWait	n/a
0.0	10.0	0.02	1098.749	n/a	3	n/a	n/a	n/a	n/a	n/a	n/a	n/a	n/a	n/a	n/a	n/a	n/a	n/a	n/a	n/a	GetReady	n/a
10.03	3.0	0.03	1108.779	55.0	3	2.02	1.01	21.3638	955.0	2.0	Outcome1	2.02	4.3	2.53325	Yes	2.0	-2.2847300868252205	1.212	11.242	n/a	GetAnswer	Mixed
11.263	4.0	0.021	1110.012	55.0	3	2.02	1.01	21.3638	955.0	2.0	Outcome1	2.02	4.3	2.53325	Yes	n/a	-2.2847300868252205	n/a	n/a	n/a	ShowChoice	Mixed
15.278	1.0	0.015	1114.027	55.0	3	2.02	1.01	21.3638	955.0	2.0	Outcome1	2.02	4.3	2.53325	Yes	n/a	-2.2847300868252205	n/a	n/a	n/a	ShowResult	Mixed
16.294	7.709	0.016	1115.043	55.0	3	2.02	1.01	21.3638	955.0	2.0	Outcome1	2.02	4.3	2.53325	Yes	n/a	-2.2847300868252205	n/a	n/a	n/a	ISITrial	Mixed
24.025	2.533	0.022	1122.774	55.0	3	2.02	1.01	21.3638	955.0	2.0	Outcome1	2.02	4.3	2.53325	Yes	n/a	-2.2847300868252205	n/a	n/a	n/a	TrialHappPreview	Mixed
26.574	4.015	0.016	1125.323	55.0	3	2.02	1.01	21.3638	955.0	2.0	Outcome1	2.02	4.3	2.53325	Yes	n/a	-2.2847300868252205	n/a	n/a	580.0	TrialHappiness	Mixed
26.575	0.919	n/a	1125.787	55.0	3	2.02	1.01	21.3638	955.0	2.0	Outcome1	2.02	4.3	2.53325	Yes	n/a	-2.2847300868252205	n/a	n/a	580.0	TrialHappinessSliderResponse	Mixed
30.589	2.133	4.015	1129.338	55.0	3	2.02	1.01	21.3638	955.0	2.0	Outcome1	2.02	4.3	2.53325	Yes	n/a	-2.2847300868252205	n/a	n/a	n/a	ISIRate	Mixed
32.739	3.0	0.017	1131.488	56.0	3	6.33	3.16	22.155	955.0	3.6	Outcome1	6.33	7.9	0.0	No	2.0	-1.57493393733484	1.059	33.798	n/a	GetAnswer	Gain
33.822	4.0	0.024	1132.571	56.0	3	6.33	3.16	22.155	955.0	3.6	Outcome1	6.33	7.9	0.0	No	n/a	-1.57493393733484	n/a	n/a	n/a	ShowChoice	Gain
37.837	1.0	0.015	1136.586	56.0	3	6.33	3.16	22.155	955.0	3.6	Outcome1	6.33	7.9	0.0	No	n/a	-1.57493393733484	n/a	n/a	n/a	ShowResult	Gain
38.853	4.697	0.016	1137.602	56.0	3	6.33	3.16	22.155	955.0	3.6	Outcome1	6.33	7.9	0.0	No	n/a	-1.57493393733484	n/a	n/a	n/a	ISITrial	Gain
43.568	3.0	0.018	1142.317	57.0	3	1.0	1.0	22.28	955.0	1.68	Certain	-2.93	4.5	0.0	No	4.0	7.432616081540201	1.974	45.542	n/a	GetAnswer	Gain
45.568	4.0	0.026	1144.317	57.0	3	1.0	1.0	22.28	955.0	1.68	Certain	-2.93	4.5	0.0	No	n/a	7.432616081540201	n/a	n/a	n/a	ShowChoice	Gain
49.583	1.0	0.015	1148.332	57.0	3	1.0	1.0	22.28	955.0	1.68	Certain	-2.93	4.5	0.0	No	n/a	7.432616081540201	n/a	n/a	n/a	ShowResult	Gain
50.599	4.291	0.016	1149.348	57.0	3	1.0	1.0	22.28	955.0	1.68	Certain	-2.93	4.5	0.0	No	n/a	7.432616081540201	n/a	n/a	n/a	ISITrial	Gain
54.914	3.0	0.024	1153.663	58.0	3	0.0	0.0	22.28	955.0	0.2	Certain	-1.15	0.5	3.04575	Yes	4.0	-1.64571536428841	1.976	56.89	n/a	GetAnswer	Mixed
56.914	4.0	0.024	1155.663	58.0	3	0.0	0.0	22.28	955.0	0.2	Certain	-1.15	0.5	3.04575	Yes	n/a	-1.64571536428841	n/a	n/a	n/a	ShowChoice	Mixed
60.929	1.0	0.015	1159.678	58.0	3	0.0	0.0	22.28	955.0	0.2	Certain	-1.15	0.5	3.04575	Yes	n/a	-1.64571536428841	n/a	n/a	n/a	ShowResult	Mixed
61.945	2.037	0.016	1160.694	58.0	3	0.0	0.0	22.28	955.0	0.2	Certain	-1.15	0.5	3.04575	Yes	n/a	-1.64571536428841	n/a	n/a	n/a	ISITrial	Mixed
63.994	3.046	0.012	1162.743	58.0	3	0.0	0.0	22.28	955.0	0.2	Certain	-1.15	0.5	3.04575	Yes	n/a	-1.64571536428841	n/a	n/a	n/a	TrialHappPreview	Mixed
67.06	4.015	0.02	1165.809	58.0	3	0.0	0.0	22.28	955.0	0.2	Certain	-1.15	0.5	3.04575	Yes	n/a	-1.64571536428841	n/a	n/a	652.0	TrialHappiness	Mixed
67.061	1.82	n/a	1166.324	58.0	3	0.0	0.0	22.28	955.0	0.2	Certain	-1.15	0.5	3.04575	Yes	n/a	-1.64571536428841	n/a	n/a	652.0	TrialHappinessSliderResponse	Mixed
71.075	4.183	4.015	1169.824	58.0	3	0.0	0.0	22.28	955.0	0.2	Certain	-1.15	0.5	3.04575	Yes	n/a	-1.64571536428841	n/a	n/a	n/a	ISIRate	Mixed
75.274	3.0	0.016	1174.023	59.0	3	-2.0	-2.0	22.03	955.0	0.4	Certain	-6.16	0.9	0.0	No	4.0	7.05889014722537	2.303	77.577	n/a	GetAnswer	Mixed
77.59	4.0	0.013	1176.339	59.0	3	-2.0	-2.0	22.03	955.0	0.4	Certain	-6.16	0.9	0.0	No	n/a	7.05889014722537	n/a	n/a	n/a	ShowChoice	Mixed
81.605	1.0	0.015	1180.354	59.0	3	-2.0	-2.0	22.03	955.0	0.4	Certain	-6.16	0.9	0.0	No	n/a	7.05889014722537	n/a	n/a	n/a	ShowResult	Mixed
82.621	5.064	0.016	1181.37	59.0	3	-2.0	-2.0	22.03	955.0	0.4	Certain	-6.16	0.9	0.0	No	n/a	7.05889014722537	n/a	n/a	n/a	ISITrial	Mixed
87.703	3.0	0.018	1186.452	60.0	3	11.3	1.95	23.4425	955.0	2.48	Outcome2	3.9	11.3	3.5625	Yes	2.0	7.40203850509626	0.988	88.691	n/a	GetAnswer	Loss
88.702	4.0	0.011	1187.451	60.0	3	11.3	1.95	23.4425	955.0	2.48	Outcome2	3.9	11.3	3.5625	Yes	n/a	7.40203850509626	n/a	n/a	n/a	ShowChoice	Loss
92.718	1.0	0.016	1191.467	60.0	3	11.3	1.95	23.4425	955.0	2.48	Outcome2	3.9	11.3	3.5625	Yes	n/a	7.40203850509626	n/a	n/a	n/a	ShowResult	Loss
93.734	8.0	0.016	1192.483	60.0	3	11.3	1.95	23.4425	955.0	2.48	Outcome2	3.9	11.3	3.5625	Yes	n/a	7.40203850509626	n/a	n/a	n/a	ISITrial	Loss
101.748	3.562	0.014	1200.497	60.0	3	11.3	1.95	23.4425	955.0	2.48	Outcome2	3.9	11.3	3.5625	Yes	n/a	7.40203850509626	n/a	n/a	n/a	TrialHappPreview	Loss
105.33	4.015	0.02	1204.079	60.0	3	11.3	1.95	23.4425	955.0	2.48	Outcome2	3.9	11.3	3.5625	Yes	n/a	7.40203850509626	n/a	n/a	772.0	TrialHappiness	Loss
105.331	3.082	n/a	1204.27	60.0	3	11.3	1.95	23.4425	955.0	2.48	Outcome2	3.9	11.3	3.5625	Yes	n/a	7.40203850509626	n/a	n/a	772.0	TrialHappinessSliderResponse	Loss
109.345	6.25	4.015	1208.094	60.0	3	11.3	1.95	23.4425	955.0	2.48	Outcome2	3.9	11.3	3.5625	Yes	n/a	7.40203850509626	n/a	n/a	n/a	ISIRate	Loss
115.626	3.0	0.031	1214.375	61.0	3	-4.0	-4.0	22.9425	955.0	0.2	Certain	-7.21	-1.5	0.0	No	4.0	5.70668176670442	1.269	116.895	n/a	GetAnswer	Mixed
116.909	4.0	0.014	1215.658	61.0	3	-4.0	-4.0	22.9425	955.0	0.2	Certain	-7.21	-1.5	0.0	No	n/a	5.70668176670442	n/a	n/a	n/a	ShowChoice	Mixed
120.925	1.0	0.016	1219.674	61.0	3	-4.0	-4.0	22.9425	955.0	0.2	Certain	-7.21	-1.5	0.0	No	n/a	5.70668176670442	n/a	n/a	n/a	ShowResult	Mixed
121.941	4.586	0.016	1220.69	61.0	3	-4.0	-4.0	22.9425	955.0	0.2	Certain	-7.21	-1.5	0.0	No	n/a	5.70668176670442	n/a	n/a	n/a	ISITrial	Mixed
126.556	3.0	0.029	1225.305	62.0	3	1.0	1.0	23.0675	955.0	0.66	Certain	0.32	1.3	3.74875	Yes	4.0	-0.976406191015478	1.608	128.164	n/a	GetAnswer	Mixed
128.189	4.0	0.025	1226.938	62.0	3	1.0	1.0	23.0675	955.0	0.66	Certain	0.32	1.3	3.74875	Yes	n/a	-0.976406191015478	n/a	n/a	n/a	ShowChoice	Mixed
132.204	1.0	0.015	1230.953	62.0	3	1.0	1.0	23.0675	955.0	0.66	Certain	0.32	1.3	3.74875	Yes	n/a	-0.976406191015478	n/a	n/a	n/a	ShowResult	Mixed
133.22	5.212	0.016	1231.969	62.0	3	1.0	1.0	23.0675	955.0	0.66	Certain	0.32	1.3	3.74875	Yes	n/a	-0.976406191015478	n/a	n/a	n/a	ISITrial	Mixed
138.452	3.749	0.02	1237.201	62.0	3	1.0	1.0	23.0675	955.0	0.66	Certain	0.32	1.3	3.74875	Yes	n/a	-0.976406191015478	n/a	n/a	n/a	TrialHappPreview	Mixed
142.217	4.015	0.016	1240.966	62.0	3	1.0	1.0	23.0675	955.0	0.66	Certain	0.32	1.3	3.74875	Yes	n/a	-0.976406191015478	n/a	n/a	620.0	TrialHappiness	Mixed
142.218	1.428	n/a	1241.423	62.0	3	1.0	1.0	23.0675	955.0	0.66	Certain	0.32	1.3	3.74875	Yes	n/a	-0.976406191015478	n/a	n/a	620.0	TrialHappinessSliderResponse	Mixed
146.232	6.995	4.015	1244.981	62.0	3	1.0	1.0	23.0675	955.0	0.66	Certain	0.32	1.3	3.74875	Yes	n/a	-0.976406191015478	n/a	n/a	n/a	ISIRate	Mixed
153.247	3.0	0.02	1251.996	63.0	3	10.5	0.9	24.38	955.0	1.68	Outcome1	10.5	1.8	0.0	No	2.0	8.703284258210651	1.094	154.341	n/a	GetAnswer	Loss
154.363	4.0	0.022	1253.112	63.0	3	10.5	0.9	24.38	955.0	1.68	Outcome1	10.5	1.8	0.0	No	n/a	8.703284258210651	n/a	n/a	n/a	ShowChoice	Loss
158.378	1.0	0.015	1257.127	63.0	3	10.5	0.9	24.38	955.0	1.68	Outcome1	10.5	1.8	0.0	No	n/a	8.703284258210651	n/a	n/a	n/a	ShowResult	Loss
159.395	5.595	0.017	1258.144	63.0	3	10.5	0.9	24.38	955.0	1.68	Outcome1	10.5	1.8	0.0	No	n/a	8.703284258210651	n/a	n/a	n/a	ISITrial	Loss
165.009	3.0	0.019	1263.758	64.0	3	11.1	1.01	25.7675	955.0	2.22	Outcome1	11.1	2.02	0.0	No	2.0	9.08267270668177	0.978	165.987	n/a	GetAnswer	Loss
166.009	4.0	0.022	1264.758	64.0	3	11.1	1.01	25.7675	955.0	2.22	Outcome1	11.1	2.02	0.0	No	n/a	9.08267270668177	n/a	n/a	n/a	ShowChoice	Loss
170.024	1.0	0.015	1268.773	64.0	3	11.1	1.01	25.7675	955.0	2.22	Outcome1	11.1	2.02	0.0	No	n/a	9.08267270668177	n/a	n/a	n/a	ShowResult	Loss
171.04	5.47	0.016	1269.789	64.0	3	11.1	1.01	25.7675	955.0	2.22	Outcome1	11.1	2.02	0.0	No	n/a	9.08267270668177	n/a	n/a	n/a	ISITrial	Loss
176.539	3.0	0.029	1275.288	65.0	3	13.5	2.02	27.455	955.0	2.8	Outcome1	13.5	4.04	2.99675	Yes	2.0	9.46206115515289	1.153	177.692	n/a	GetAnswer	Loss
177.705	4.0	0.013	1276.454	65.0	3	13.5	2.02	27.455	955.0	2.8	Outcome1	13.5	4.04	2.99675	Yes	n/a	9.46206115515289	n/a	n/a	n/a	ShowChoice	Loss
181.72	1.0	0.015	1280.469	65.0	3	13.5	2.02	27.455	955.0	2.8	Outcome1	13.5	4.04	2.99675	Yes	n/a	9.46206115515289	n/a	n/a	n/a	ShowResult	Loss
182.736	3.344	0.016	1281.485	65.0	3	13.5	2.02	27.455	955.0	2.8	Outcome1	13.5	4.04	2.99675	Yes	n/a	9.46206115515289	n/a	n/a	n/a	ISITrial	Loss
186.102	2.997	0.022	1284.851	65.0	3	13.5	2.02	27.455	955.0	2.8	Outcome1	13.5	4.04	2.99675	Yes	n/a	9.46206115515289	n/a	n/a	n/a	TrialHappPreview	Loss
189.117	4.016	0.018	1287.866	65.0	3	13.5	2.02	27.455	955.0	2.8	Outcome1	13.5	4.04	2.99675	Yes	n/a	9.46206115515289	n/a	n/a	860.0	TrialHappiness	Loss
189.118	2.547	n/a	1287.92	65.0	3	13.5	2.02	27.455	955.0	2.8	Outcome1	13.5	4.04	2.99675	Yes	n/a	9.46206115515289	n/a	n/a	860.0	TrialHappinessSliderResponse	Loss
193.133	3.987	4.016	1291.882	65.0	3	13.5	2.02	27.455	955.0	2.8	Outcome1	13.5	4.04	2.99675	Yes	n/a	9.46206115515289	n/a	n/a	n/a	ISIRate	Loss
197.148	3.0	0.028	1295.897	66.0	3	9.1	1.67	28.5925	955.0	2.22	Outcome2	3.34	9.1	0.0	No	2.0	5.764439411098531	1.071	198.219	n/a	GetAnswer	Gain
198.248	4.0	0.029	1296.997	66.0	3	9.1	1.67	28.5925	955.0	2.22	Outcome2	3.34	9.1	0.0	No	n/a	5.764439411098531	n/a	n/a	n/a	ShowChoice	Gain
202.263	1.0	0.015	1301.012	66.0	3	9.1	1.67	28.5925	955.0	2.22	Outcome2	3.34	9.1	0.0	No	n/a	5.764439411098531	n/a	n/a	n/a	ShowResult	Gain
203.279	3.959	0.016	1302.028	66.0	3	9.1	1.67	28.5925	955.0	2.22	Outcome2	3.34	9.1	0.0	No	n/a	5.764439411098531	n/a	n/a	n/a	ISITrial	Gain
207.261	3.0	0.023	1306.01	67.0	3	-1.44	-1.0	28.4125	955.0	0.66	Outcome1	-1.44	-0.7	2.9185	Yes	2.0	-0.7403737259343148	2.523	209.784	n/a	GetAnswer	Mixed
209.81	4.0	0.026	1308.559	67.0	3	-1.44	-1.0	28.4125	955.0	0.66	Outcome1	-1.44	-0.7	2.9185	Yes	n/a	-0.7403737259343148	n/a	n/a	n/a	ShowChoice	Mixed
213.826	1.0	0.016	1312.575	67.0	3	-1.44	-1.0	28.4125	955.0	0.66	Outcome1	-1.44	-0.7	2.9185	Yes	n/a	-0.7403737259343148	n/a	n/a	n/a	ShowResult	Mixed
214.842	4.199	0.016	1313.591	67.0	3	-1.44	-1.0	28.4125	955.0	0.66	Outcome1	-1.44	-0.7	2.9185	Yes	n/a	-0.7403737259343148	n/a	n/a	n/a	ISITrial	Mixed
219.057	2.918	0.016	1317.806	67.0	3	-1.44	-1.0	28.4125	955.0	0.66	Outcome1	-1.44	-0.7	2.9185	Yes	n/a	-0.7403737259343148	n/a	n/a	n/a	TrialHappPreview	Mixed
222.006	4.015	0.031	1320.755	67.0	3	-1.44	-1.0	28.4125	955.0	0.66	Outcome1	-1.44	-0.7	2.9185	Yes	n/a	-0.7403737259343148	n/a	n/a	732.0	TrialHappiness	Mixed
222.007	3.848	n/a	1320.767	67.0	3	-1.44	-1.0	28.4125	955.0	0.66	Outcome1	-1.44	-0.7	2.9185	Yes	n/a	-0.7403737259343148	n/a	n/a	732.0	TrialHappinessSliderResponse	Mixed
226.021	3.674	4.015	1324.77	67.0	3	-1.44	-1.0	28.4125	955.0	0.66	Outcome1	-1.44	-0.7	2.9185	Yes	n/a	-0.7403737259343148	n/a	n/a	n/a	ISIRate	Mixed
229.72	3.0	0.025	1328.469	68.0	3	-4.0	-4.0	27.9125	955.0	1.2	Certain	-8.25	-0.1	0.0	No	4.0	8.15402038505096	1.508	231.228	n/a	GetAnswer	Mixed
231.253	4.0	0.025	1330.002	68.0	3	-4.0	-4.0	27.9125	955.0	1.2	Certain	-8.25	-0.1	0.0	No	n/a	8.15402038505096	n/a	n/a	n/a	ShowChoice	Mixed
235.268	1.0	0.015	1334.017	68.0	3	-4.0	-4.0	27.9125	955.0	1.2	Certain	-8.25	-0.1	0.0	No	n/a	8.15402038505096	n/a	n/a	n/a	ShowResult	Mixed
236.284	2.185	0.016	1335.033	68.0	3	-4.0	-4.0	27.9125	955.0	1.2	Certain	-8.25	-0.1	0.0	No	n/a	8.15402038505096	n/a	n/a	n/a	ISITrial	Mixed
238.5	3.0	0.031	1337.249	69.0	3	10.41	5.2	29.2137	955.0	3.16	Outcome1	10.41	11.7	0.0	No	2.0	-1.2898263495658702	1.05	239.55	n/a	GetAnswer	Loss
239.567	4.0	0.017	1338.316	69.0	3	10.41	5.2	29.2137	955.0	3.16	Outcome1	10.41	11.7	0.0	No	n/a	-1.2898263495658702	n/a	n/a	n/a	ShowChoice	Loss
243.582	1.0	0.015	1342.331	69.0	3	10.41	5.2	29.2137	955.0	3.16	Outcome1	10.41	11.7	0.0	No	n/a	-1.2898263495658702	n/a	n/a	n/a	ShowResult	Loss
244.598	2.0	0.016	1343.347	69.0	3	10.41	5.2	29.2137	955.0	3.16	Outcome1	10.41	11.7	0.0	No	n/a	-1.2898263495658702	n/a	n/a	n/a	ISITrial	Loss
246.631	3.0	0.033	1345.38	70.0	3	0.0	0.0	29.2137	955.0	1.2	Certain	-4.76	3.9	3.65125	Yes	4.0	8.65911664779162	1.494	248.125	n/a	GetAnswer	Mixed
248.147	4.0	0.022	1346.896	70.0	3	0.0	0.0	29.2137	955.0	1.2	Certain	-4.76	3.9	3.65125	Yes	n/a	8.65911664779162	n/a	n/a	n/a	ShowChoice	Mixed
252.162	1.0	0.015	1350.911	70.0	3	0.0	0.0	29.2137	955.0	1.2	Certain	-4.76	3.9	3.65125	Yes	n/a	8.65911664779162	n/a	n/a	n/a	ShowResult	Mixed
253.178	2.623	0.016	1351.927	70.0	3	0.0	0.0	29.2137	955.0	1.2	Certain	-4.76	3.9	3.65125	Yes	n/a	8.65911664779162	n/a	n/a	n/a	ISITrial	Mixed
255.828	3.651	0.027	1354.577	70.0	3	0.0	0.0	29.2137	955.0	1.2	Certain	-4.76	3.9	3.65125	Yes	n/a	8.65911664779162	n/a	n/a	n/a	TrialHappPreview	Mixed
259.51	4.015	0.031	1358.259	70.0	3	0.0	0.0	29.2137	955.0	1.2	Certain	-4.76	3.9	3.65125	Yes	2{-2}2{-2}4{-4}2{-2}2{-2}2{-2}2{-2}2{-2}	8.65911664779162	3.49	263.0	660.0	TrialHappiness	Mixed
259.51	3.254	n/a	1358.495	70.0	3	0.0	0.0	29.2137	955.0	1.2	Certain	-4.76	3.9	3.65125	Yes	n/a	8.65911664779162	n/a	n/a	660.0	TrialHappinessSliderResponse	Mixed
263.525	6.605	4.015	1362.274	70.0	3	0.0	0.0	29.2137	955.0	1.2	Certain	-4.76	3.9	3.65125	Yes	n/a	8.65911664779162	n/a	n/a	n/a	ISIRate	Mixed
270.156	3.0	0.026	1368.905	71.0	3	5.88	2.94	29.9487	955.0	2.8	Outcome1	5.88	7.5	0.0	No	2.0	-1.62410343525859	0.964	271.12	n/a	GetAnswer	Gain
271.139	4.0	0.019	1369.888	71.0	3	5.88	2.94	29.9487	955.0	2.8	Outcome1	5.88	7.5	0.0	No	n/a	-1.62410343525859	n/a	n/a	n/a	ShowChoice	Gain
275.154	1.0	0.015	1373.903	71.0	3	5.88	2.94	29.9487	955.0	2.8	Outcome1	5.88	7.5	0.0	No	n/a	-1.62410343525859	n/a	n/a	n/a	ShowResult	Gain
276.17	5.499	0.016	1374.919	71.0	3	5.88	2.94	29.9487	955.0	2.8	Outcome1	5.88	7.5	0.0	No	n/a	-1.62410343525859	n/a	n/a	n/a	ISITrial	Gain
281.702	3.0	0.033	1380.451	72.0	3	8.05	4.03	30.9549	955.0	3.16	Outcome2	9.7	8.05	3.0805	Yes	2.0	-1.65194412986032	0.963	282.665	n/a	GetAnswer	Gain
282.685	4.0	0.02	1381.434	72.0	3	8.05	4.03	30.9549	955.0	3.16	Outcome2	9.7	8.05	3.0805	Yes	n/a	-1.65194412986032	n/a	n/a	n/a	ShowChoice	Gain
286.7	1.0	0.015	1385.449	72.0	3	8.05	4.03	30.9549	955.0	3.16	Outcome2	9.7	8.05	3.0805	Yes	n/a	-1.65194412986032	n/a	n/a	n/a	ShowResult	Gain
287.716	5.672	0.016	1386.465	72.0	3	8.05	4.03	30.9549	955.0	3.16	Outcome2	9.7	8.05	3.0805	Yes	n/a	-1.65194412986032	n/a	n/a	n/a	ISITrial	Gain
293.414	3.08	0.026	1392.163	72.0	3	8.05	4.03	30.9549	955.0	3.16	Outcome2	9.7	8.05	3.0805	Yes	n/a	-1.65194412986032	n/a	n/a	n/a	TrialHappPreview	Gain
296.513	4.016	0.019	1395.262	72.0	3	8.05	4.03	30.9549	955.0	3.16	Outcome2	9.7	8.05	3.0805	Yes	n/a	-1.65194412986032	n/a	n/a	768.0	TrialHappiness	Gain
296.514	2.928	n/a	1395.544	72.0	3	8.05	4.03	30.9549	955.0	3.16	Outcome2	9.7	8.05	3.0805	Yes	n/a	-1.65194412986032	n/a	n/a	768.0	TrialHappinessSliderResponse	Gain
300.529	4.322	4.016	1399.278	72.0	3	8.05	4.03	30.9549	955.0	3.16	Outcome2	9.7	8.05	3.0805	Yes	n/a	-1.65194412986032	n/a	n/a	n/a	ISIRate	Gain
304.877	3.0	0.026	1403.626	73.0	3	7.7	-0.64	31.9174	955.0	3.16	Outcome2	-1.27	7.7	0.0	No	2.0	8.968289920724802	1.472	306.349	n/a	GetAnswer	Gain
306.377	4.0	0.028	1405.126	73.0	3	7.7	-0.64	31.9174	955.0	3.16	Outcome2	-1.27	7.7	0.0	No	n/a	8.968289920724802	n/a	n/a	n/a	ShowChoice	Gain
310.392	1.0	0.015	1409.141	73.0	3	7.7	-0.64	31.9174	955.0	3.16	Outcome2	-1.27	7.7	0.0	No	n/a	8.968289920724802	n/a	n/a	n/a	ShowResult	Gain
311.408	4.616	0.016	1410.157	73.0	3	7.7	-0.64	31.9174	955.0	3.16	Outcome2	-1.27	7.7	0.0	No	n/a	8.968289920724802	n/a	n/a	n/a	ISITrial	Gain
316.04	3.0	0.016	1414.789	74.0	3	-5.0	-5.0	31.2924	955.0	0.52	Certain	-10.08	-0.9	3.05625	Yes	4.0	9.18006795016988	1.512	317.552	n/a	GetAnswer	Mixed
317.573	4.0	0.021	1416.322	74.0	3	-5.0	-5.0	31.2924	955.0	0.52	Certain	-10.08	-0.9	3.05625	Yes	n/a	9.18006795016988	n/a	n/a	n/a	ShowChoice	Mixed
321.588	1.0	0.015	1420.337	74.0	3	-5.0	-5.0	31.2924	955.0	0.52	Certain	-10.08	-0.9	3.05625	Yes	n/a	9.18006795016988	n/a	n/a	n/a	ShowResult	Mixed
322.604	3.909	0.016	1421.353	74.0	3	-5.0	-5.0	31.2924	955.0	0.52	Certain	-10.08	-0.9	3.05625	Yes	n/a	9.18006795016988	n/a	n/a	n/a	ISITrial	Mixed
326.536	3.056	0.023	1425.285	74.0	3	-5.0	-5.0	31.2924	955.0	0.52	Certain	-10.08	-0.9	3.05625	Yes	n/a	9.18006795016988	n/a	n/a	n/a	TrialHappPreview	Mixed
329.618	4.016	0.026	1428.367	74.0	3	-5.0	-5.0	31.2924	955.0	0.52	Certain	-10.08	-0.9	3.05625	Yes	n/a	9.18006795016988	n/a	n/a	652.0	TrialHappiness	Mixed
329.619	1.235	n/a	1428.378	74.0	3	-5.0	-5.0	31.2924	955.0	0.52	Certain	-10.08	-0.9	3.05625	Yes	n/a	9.18006795016988	n/a	n/a	652.0	TrialHappinessSliderResponse	Mixed
333.634	4.225	4.016	1432.383	74.0	3	-5.0	-5.0	31.2924	955.0	0.52	Certain	-10.08	-0.9	3.05625	Yes	n/a	9.18006795016988	n/a	n/a	n/a	ISIRate	Mixed
337.882	3.0	0.023	1436.631	75.0	3	0.0	0.0	31.2924	955.0	2.22	Certain	5.1	-6.26	0.0	No	4.0	11.3624009060023	1.339	339.221	n/a	GetAnswer	Gain
339.232	4.0	0.011	1437.981	75.0	3	0.0	0.0	31.2924	955.0	2.22	Certain	5.1	-6.26	0.0	No	n/a	11.3624009060023	n/a	n/a	n/a	ShowChoice	Gain
343.247	1.0	0.015	1441.996	75.0	3	0.0	0.0	31.2924	955.0	2.22	Certain	5.1	-6.26	0.0	No	n/a	11.3624009060023	n/a	n/a	n/a	ShowResult	Gain
344.263	4.979	0.016	1443.012	75.0	3	0.0	0.0	31.2924	955.0	2.22	Certain	5.1	-6.26	0.0	No	n/a	11.3624009060023	n/a	n/a	n/a	ISITrial	Gain
349.262	3.0	0.02	1448.011	76.0	3	0.0	0.0	31.2924	955.0	3.6	Certain	5.9	-5.81	0.0	No	4.0	11.705549263873198	1.377	350.639	n/a	GetAnswer	Gain
350.661	4.0	0.022	1449.41	76.0	3	0.0	0.0	31.2924	955.0	3.6	Certain	5.9	-5.81	0.0	No	n/a	11.705549263873198	n/a	n/a	n/a	ShowChoice	Gain
354.676	1.0	0.015	1453.425	76.0	3	0.0	0.0	31.2924	955.0	3.6	Certain	5.9	-5.81	0.0	No	n/a	11.705549263873198	n/a	n/a	n/a	ShowResult	Gain
355.693	3.931	0.017	1454.442	76.0	3	0.0	0.0	31.2924	955.0	3.6	Certain	5.9	-5.81	0.0	No	n/a	11.705549263873198	n/a	n/a	n/a	ISITrial	Gain
359.641	3.0	0.017	1458.39	77.0	3	11.5	5.75	32.7299	955.0	2.48	Outcome2	13.3	11.5	4.0	Yes	2.0	-1.8047376368440904	1.037	360.678	n/a	GetAnswer	Loss
360.691	4.0	0.013	1459.44	77.0	3	11.5	5.75	32.7299	955.0	2.48	Outcome2	13.3	11.5	4.0	Yes	n/a	-1.8047376368440904	n/a	n/a	n/a	ShowChoice	Loss
364.706	1.0	0.015	1463.455	77.0	3	11.5	5.75	32.7299	955.0	2.48	Outcome2	13.3	11.5	4.0	Yes	n/a	-1.8047376368440904	n/a	n/a	n/a	ShowResult	Loss
365.723	7.022	0.017	1464.472	77.0	3	11.5	5.75	32.7299	955.0	2.48	Outcome2	13.3	11.5	4.0	Yes	n/a	-1.8047376368440904	n/a	n/a	n/a	ISITrial	Loss
372.77	4.0	0.025	1471.519	77.0	3	11.5	5.75	32.7299	955.0	2.48	Outcome2	13.3	11.5	4.0	Yes	n/a	-1.8047376368440904	n/a	n/a	n/a	TrialHappPreview	Loss
376.785	4.016	0.015	1475.534	77.0	3	11.5	5.75	32.7299	955.0	2.48	Outcome2	13.3	11.5	4.0	Yes	n/a	-1.8047376368440904	n/a	n/a	620.0	TrialHappiness	Loss
376.786	2.081	n/a	1475.594	77.0	3	11.5	5.75	32.7299	955.0	2.48	Outcome2	13.3	11.5	4.0	Yes	n/a	-1.8047376368440904	n/a	n/a	620.0	TrialHappinessSliderResponse	Loss
380.801	8.0	4.016	1479.55	77.0	3	11.5	5.75	32.7299	955.0	2.48	Outcome2	13.3	11.5	4.0	Yes	n/a	-1.8047376368440904	n/a	n/a	n/a	ISIRate	Loss
388.831	3.0	0.03	1487.58	78.0	3	-5.0	-5.0	32.1049	955.0	1.0	Certain	-11.24	1.7	0.0	No	4.0	12.9354473386183	1.172	390.003	n/a	GetAnswer	Mixed
390.014	4.0	0.011	1488.763	78.0	3	-5.0	-5.0	32.1049	955.0	1.0	Certain	-11.24	1.7	0.0	No	n/a	12.9354473386183	n/a	n/a	n/a	ShowChoice	Mixed
394.029	1.0	0.015	1492.778	78.0	3	-5.0	-5.0	32.1049	955.0	1.0	Certain	-11.24	1.7	0.0	No	n/a	12.9354473386183	n/a	n/a	n/a	ShowResult	Mixed
395.046	2.078	0.017	1493.795	78.0	3	-5.0	-5.0	32.1049	955.0	1.0	Certain	-11.24	1.7	0.0	No	n/a	12.9354473386183	n/a	n/a	n/a	ISITrial	Mixed
397.145	3.0	0.021	1495.894	79.0	3	1.0	1.0	32.2299	955.0	3.6	Certain	7.9	-5.41	2.7295	Yes	4.0	13.3148357870895	1.299	398.444	n/a	GetAnswer	Gain
398.461	4.0	0.017	1497.21	79.0	3	1.0	1.0	32.2299	955.0	3.6	Certain	7.9	-5.41	2.7295	Yes	n/a	13.3148357870895	n/a	n/a	n/a	ShowChoice	Gain
402.476	1.0	0.015	1501.225	79.0	3	1.0	1.0	32.2299	955.0	3.6	Certain	7.9	-5.41	2.7295	Yes	n/a	13.3148357870895	n/a	n/a	n/a	ShowResult	Gain
403.493	3.829	0.017	1502.242	79.0	3	1.0	1.0	32.2299	955.0	3.6	Certain	7.9	-5.41	2.7295	Yes	n/a	13.3148357870895	n/a	n/a	n/a	ISITrial	Gain
407.341	2.73	0.019	1506.09	79.0	3	1.0	1.0	32.2299	955.0	3.6	Certain	7.9	-5.41	2.7295	Yes	n/a	13.3148357870895	n/a	n/a	n/a	TrialHappPreview	Gain
410.09	4.016	0.019	1508.839	79.0	3	1.0	1.0	32.2299	955.0	3.6	Certain	7.9	-5.41	2.7295	Yes	n/a	13.3148357870895	n/a	n/a	572.0	TrialHappiness	Gain
410.091	0.557	n/a	1509.258	79.0	3	1.0	1.0	32.2299	955.0	3.6	Certain	7.9	-5.41	2.7295	Yes	n/a	13.3148357870895	n/a	n/a	572.0	TrialHappinessSliderResponse	Gain
414.106	2.918	4.016	1512.855	79.0	3	1.0	1.0	32.2299	955.0	3.6	Certain	7.9	-5.41	2.7295	Yes	n/a	13.3148357870895	n/a	n/a	n/a	ISIRate	Gain
417.055	3.0	0.031	1515.804	80.0	3	-1.1	-8.0	32.0924	955.0	0.4	Outcome2	-15.61	-1.1	0.0	No	2.0	14.5096262740657	2.45	419.505	n/a	GetAnswer	Mixed
419.52	4.0	0.015	1518.269	80.0	3	-1.1	-8.0	32.0924	955.0	0.4	Outcome2	-15.61	-1.1	0.0	No	n/a	14.5096262740657	n/a	n/a	n/a	ShowChoice	Mixed
423.536	1.0	0.016	1522.285	80.0	3	-1.1	-8.0	32.0924	955.0	0.4	Outcome2	-15.61	-1.1	0.0	No	n/a	14.5096262740657	n/a	n/a	n/a	ShowResult	Mixed
424.552	3.336	0.016	1523.301	80.0	3	-1.1	-8.0	32.0924	955.0	0.4	Outcome2	-15.61	-1.1	0.0	No	n/a	14.5096262740657	n/a	n/a	n/a	ISITrial	Mixed
427.917	3.0	0.029	1526.666	81.0	3	10.24	5.12	33.3724	955.0	1.68	Outcome2	12.5	10.24	3.92375	Yes	2.0	-2.25736126840317	1.076	428.993	n/a	GetAnswer	Loss
429.017	4.0	0.024	1527.766	81.0	3	10.24	5.12	33.3724	955.0	1.68	Outcome2	12.5	10.24	3.92375	Yes	n/a	-2.25736126840317	n/a	n/a	n/a	ShowChoice	Loss
433.032	1.0	0.015	1531.781	81.0	3	10.24	5.12	33.3724	955.0	1.68	Outcome2	12.5	10.24	3.92375	Yes	n/a	-2.25736126840317	n/a	n/a	n/a	ShowResult	Loss
434.049	3.919	0.017	1532.798	81.0	3	10.24	5.12	33.3724	955.0	1.68	Outcome2	12.5	10.24	3.92375	Yes	n/a	-2.25736126840317	n/a	n/a	n/a	ISITrial	Loss
437.981	3.924	0.013	1536.73	81.0	3	10.24	5.12	33.3724	955.0	1.68	Outcome2	12.5	10.24	3.92375	Yes	n/a	-2.25736126840317	n/a	n/a	n/a	TrialHappPreview	Loss
441.929	4.016	0.024	1540.678	81.0	3	10.24	5.12	33.3724	955.0	1.68	Outcome2	12.5	10.24	3.92375	Yes	2{-2}2{-2}2{-2}2{-2}2{-2}2{-2}2{-2}2{-2}4{-4}2{-2}2{-2}2{-2}2{-2}	-2.25736126840317	3.509	445.438	644.0	TrialHappiness	Loss
441.93	3.374	n/a	1540.814	81.0	3	10.24	5.12	33.3724	955.0	1.68	Outcome2	12.5	10.24	3.92375	Yes	n/a	-2.25736126840317	n/a	n/a	644.0	TrialHappinessSliderResponse	Loss
445.945	7.695	4.016	1544.694	81.0	3	10.24	5.12	33.3724	955.0	1.68	Outcome2	12.5	10.24	3.92375	Yes	n/a	-2.25736126840317	n/a	n/a	n/a	ISIRate	Loss
453.659	3.0	0.019	1552.408	n/a	3	n/a	n/a	n/a	n/a	n/a	n/a	n/a	n/a	n/a	n/a	n/a	n/a	n/a	n/a	n/a	CurrentEarnings	n/a
456.674	-0.001	0.015	1555.423	n/a	3	n/a	n/a	n/a	n/a	n/a	n/a	n/a	n/a	n/a	n/a	{SPACE}	n/a	12.825	469.499	n/a	Goodbye	n/a
