onset	duration	onset_delay	onset_unadjusted	trial_number	block	amount_change	certain_amount	current_amount	mood_target	multiplier	outcome	outcome1_amount	outcome2_amount	question_duration	rating	response	rpe	rt	rt_time	slider_response	trial_phase	trial_type
-35.657	-0.001	0.021	9.225	n/a	0	n/a	n/a	n/a	n/a	n/a	n/a	n/a	n/a	n/a	n/a	{SPACE}	n/a	3.325	-32.332	n/a	Welcome	n/a
-32.313	5.0	0.019	12.569	n/a	0	n/a	n/a	n/a	n/a	n/a	n/a	n/a	n/a	n/a	n/a	n/a	n/a	n/a	n/a	n/a	LifeHappyPreview	n/a
-27.282	1.296	0.031	17.6	n/a	0	n/a	n/a	n/a	n/a	n/a	n/a	n/a	n/a	n/a	n/a	n/a	n/a	n/a	n/a	672.0	LifeHappiness	n/a
-27.281	0.91	n/a	17.987	n/a	0	n/a	n/a	n/a	n/a	n/a	n/a	n/a	n/a	n/a	n/a	n/a	n/a	n/a	n/a	672.0	LifeHappinessSliderResponse	n/a
-12.471	4.0	0.021	32.411	n/a	0	n/a	n/a	n/a	n/a	n/a	n/a	n/a	n/a	n/a	n/a	n/a	n/a	n/a	n/a	n/a	BlockHappyPreview	n/a
-8.459	0.793	0.012	36.423	n/a	0	n/a	n/a	n/a	n/a	n/a	n/a	n/a	n/a	n/a	n/a	n/a	n/a	n/a	n/a	688.0	BlockStartHappiness	n/a
-8.458	0.516	n/a	36.701	n/a	0	n/a	n/a	n/a	n/a	n/a	n/a	n/a	n/a	n/a	n/a	n/a	n/a	n/a	n/a	688.0	BlockStartHappinessSliderResponse	n/a
-2.106	-0.001	0.019	42.776	n/a	0	n/a	n/a	n/a	n/a	n/a	n/a	n/a	n/a	n/a	n/a	5.0	n/a	2.088	-0.018	n/a	ScanWait	n/a
0.0	10.0	0.018	44.882	n/a	1	n/a	n/a	n/a	n/a	n/a	n/a	n/a	n/a	n/a	n/a	n/a	n/a	n/a	n/a	n/a	GetReady	n/a
10.03	3.0	0.03	54.912	1.0	1	4.82	2.41	10.6025	955.0	3.6	Outcome1	4.82	5.9	0.0	No	2.0	-1.08352208380521	0.849	10.879	n/a	GetAnswer	Gain
10.899	4.0	0.02	55.781	1.0	1	4.82	2.41	10.6025	955.0	3.6	Outcome1	4.82	5.9	0.0	No	n/a	-1.08352208380521	n/a	n/a	n/a	ShowChoice	Gain
14.911	1.0	0.012	59.793	1.0	1	4.82	2.41	10.6025	955.0	3.6	Outcome1	4.82	5.9	0.0	No	n/a	-1.08352208380521	n/a	n/a	n/a	ShowResult	Gain
15.931	2.431	0.02	60.813	1.0	1	4.82	2.41	10.6025	955.0	3.6	Outcome1	4.82	5.9	0.0	No	n/a	-1.08352208380521	n/a	n/a	n/a	ISITrial	Gain
18.389	3.0	0.027	63.271	2.0	1	2.3	0.0	10.89	955.0	2.0	Outcome1	2.3	-2.54	0.0	No	2.0	4.83805209513024	0.713	19.102	n/a	GetAnswer	Mixed
19.124	4.0	0.022	64.006	2.0	1	2.3	0.0	10.89	955.0	2.0	Outcome1	2.3	-2.54	0.0	No	n/a	4.83805209513024	n/a	n/a	n/a	ShowChoice	Mixed
23.136	1.0	0.012	68.018	2.0	1	2.3	0.0	10.89	955.0	2.0	Outcome1	2.3	-2.54	0.0	No	n/a	4.83805209513024	n/a	n/a	n/a	ShowResult	Mixed
24.156	4.568	0.02	69.038	2.0	1	2.3	0.0	10.89	955.0	2.0	Outcome1	2.3	-2.54	0.0	No	n/a	4.83805209513024	n/a	n/a	n/a	ISITrial	Mixed
28.753	3.0	0.029	73.635	3.0	1	5.5	0.18	11.5775	955.0	2.8	Outcome2	0.36	5.5	2.868	Yes	2.0	5.14043035107588	0.828	29.581	n/a	GetAnswer	Gain
29.605	4.0	0.024	74.487	3.0	1	5.5	0.18	11.5775	955.0	2.8	Outcome2	0.36	5.5	2.868	Yes	n/a	5.14043035107588	n/a	n/a	n/a	ShowChoice	Gain
33.617	1.0	0.012	78.499	3.0	1	5.5	0.18	11.5775	955.0	2.8	Outcome2	0.36	5.5	2.868	Yes	n/a	5.14043035107588	n/a	n/a	n/a	ShowResult	Gain
34.637	3.243	0.02	79.519	3.0	1	5.5	0.18	11.5775	955.0	2.8	Outcome2	0.36	5.5	2.868	Yes	n/a	5.14043035107588	n/a	n/a	n/a	ISITrial	Gain
37.897	2.868	0.017	82.779	3.0	1	5.5	0.18	11.5775	955.0	2.8	Outcome2	0.36	5.5	2.868	Yes	n/a	5.14043035107588	n/a	n/a	n/a	TrialHappPreview	Gain
40.789	4.012	0.024	85.671	3.0	1	5.5	0.18	11.5775	955.0	2.8	Outcome2	0.36	5.5	2.868	Yes	n/a	5.14043035107588	n/a	n/a	768.0	TrialHappiness	Gain
40.79	0.684	n/a	86.214	3.0	1	5.5	0.18	11.5775	955.0	2.8	Outcome2	0.36	5.5	2.868	Yes	n/a	5.14043035107588	n/a	n/a	768.0	TrialHappinessSliderResponse	Gain
44.801	3.472	4.012	89.683	3.0	1	5.5	0.18	11.5775	955.0	2.8	Outcome2	0.36	5.5	2.868	Yes	n/a	5.14043035107588	n/a	n/a	n/a	ISIRate	Gain
48.295	3.0	0.022	93.177	4.0	1	4.3	2.0	12.115	955.0	2.0	Outcome1	4.3	0.22	0.0	No	2.0	4.08380520951302	0.689	48.984	n/a	GetAnswer	Mixed
49.014	4.0	0.03	93.896	4.0	1	4.3	2.0	12.115	955.0	2.0	Outcome1	4.3	0.22	0.0	No	n/a	4.08380520951302	n/a	n/a	n/a	ShowChoice	Mixed
53.026	1.0	0.012	97.908	4.0	1	4.3	2.0	12.115	955.0	2.0	Outcome1	4.3	0.22	0.0	No	n/a	4.08380520951302	n/a	n/a	n/a	ShowResult	Mixed
54.045	2.011	0.019	98.927	4.0	1	4.3	2.0	12.115	955.0	2.0	Outcome1	4.3	0.22	0.0	No	n/a	4.08380520951302	n/a	n/a	n/a	ISITrial	Mixed
56.085	3.0	0.029	100.967	5.0	1	10.3	3.0	13.4025	955.0	5.0	Outcome1	10.3	6.0	2.5825	Yes	2.0	4.2955832389581	0.818	56.903	n/a	GetAnswer	Gain
56.921	4.0	0.018	101.803	5.0	1	10.3	3.0	13.4025	955.0	5.0	Outcome1	10.3	6.0	2.5825	Yes	n/a	4.2955832389581	n/a	n/a	n/a	ShowChoice	Gain
60.933	1.0	0.012	105.815	5.0	1	10.3	3.0	13.4025	955.0	5.0	Outcome1	10.3	6.0	2.5825	Yes	n/a	4.2955832389581	n/a	n/a	n/a	ShowResult	Gain
61.952	5.129	0.019	106.834	5.0	1	10.3	3.0	13.4025	955.0	5.0	Outcome1	10.3	6.0	2.5825	Yes	n/a	4.2955832389581	n/a	n/a	n/a	ISITrial	Gain
67.101	2.582	0.02	111.983	5.0	1	10.3	3.0	13.4025	955.0	5.0	Outcome1	10.3	6.0	2.5825	Yes	n/a	4.2955832389581	n/a	n/a	n/a	TrialHappPreview	Gain
69.709	4.012	0.026	114.591	5.0	1	10.3	3.0	13.4025	955.0	5.0	Outcome1	10.3	6.0	2.5825	Yes	n/a	4.2955832389581	n/a	n/a	824.0	TrialHappiness	Gain
69.709	0.801	n/a	114.966	5.0	1	10.3	3.0	13.4025	955.0	5.0	Outcome1	10.3	6.0	2.5825	Yes	n/a	4.2955832389581	n/a	n/a	824.0	TrialHappinessSliderResponse	Gain
73.721	2.33	4.012	118.603	5.0	1	10.3	3.0	13.4025	955.0	5.0	Outcome1	10.3	6.0	2.5825	Yes	n/a	4.2955832389581	n/a	n/a	n/a	ISIRate	Gain
76.078	3.0	0.027	120.96	6.0	1	12.5	4.47	14.965	955.0	1.68	Outcome1	12.5	8.94	0.0	No	2.0	3.55605889014723	0.555	76.633	n/a	GetAnswer	Loss
76.646	4.0	0.013	121.528	6.0	1	12.5	4.47	14.965	955.0	1.68	Outcome1	12.5	8.94	0.0	No	n/a	3.55605889014723	n/a	n/a	n/a	ShowChoice	Loss
80.658	1.0	0.012	125.54	6.0	1	12.5	4.47	14.965	955.0	1.68	Outcome1	12.5	8.94	0.0	No	n/a	3.55605889014723	n/a	n/a	n/a	ShowResult	Loss
81.678	6.232	0.02	126.56	6.0	1	12.5	4.47	14.965	955.0	1.68	Outcome1	12.5	8.94	0.0	No	n/a	3.55605889014723	n/a	n/a	n/a	ISITrial	Loss
87.93	3.0	0.02	132.812	7.0	1	0.1	-2.0	14.9775	955.0	1.5	Outcome2	-3.6	0.1	0.0	No	2.0	3.7044167610419	0.463	88.393	n/a	GetAnswer	Mixed
88.415	4.0	0.021	133.297	7.0	1	0.1	-2.0	14.9775	955.0	1.5	Outcome2	-3.6	0.1	0.0	No	n/a	3.7044167610419	n/a	n/a	n/a	ShowChoice	Mixed
92.427	1.0	0.012	137.309	7.0	1	0.1	-2.0	14.9775	955.0	1.5	Outcome2	-3.6	0.1	0.0	No	n/a	3.7044167610419	n/a	n/a	n/a	ShowResult	Mixed
93.447	2.305	0.02	138.329	7.0	1	0.1	-2.0	14.9775	955.0	1.5	Outcome2	-3.6	0.1	0.0	No	n/a	3.7044167610419	n/a	n/a	n/a	ISITrial	Mixed
95.77	3.0	0.018	140.652	8.0	1	8.23	4.12	16.0063	955.0	2.0	Outcome1	8.23	8.9	3.1125	Yes	2.0	-0.667232918082295	0.567	96.337	n/a	GetAnswer	Gain
96.355	4.0	0.018	141.237	8.0	1	8.23	4.12	16.0063	955.0	2.0	Outcome1	8.23	8.9	3.1125	Yes	n/a	-0.667232918082295	n/a	n/a	n/a	ShowChoice	Gain
100.367	1.0	0.012	145.249	8.0	1	8.23	4.12	16.0063	955.0	2.0	Outcome1	8.23	8.9	3.1125	Yes	n/a	-0.667232918082295	n/a	n/a	n/a	ShowResult	Gain
101.387	3.506	0.02	146.269	8.0	1	8.23	4.12	16.0063	955.0	2.0	Outcome1	8.23	8.9	3.1125	Yes	n/a	-0.667232918082295	n/a	n/a	n/a	ISITrial	Gain
104.914	3.112	0.021	149.796	8.0	1	8.23	4.12	16.0063	955.0	2.0	Outcome1	8.23	8.9	3.1125	Yes	n/a	-0.667232918082295	n/a	n/a	n/a	TrialHappPreview	Gain
108.057	4.012	0.031	152.939	8.0	1	8.23	4.12	16.0063	955.0	2.0	Outcome1	8.23	8.9	3.1125	Yes	n/a	-0.667232918082295	n/a	n/a	816.0	TrialHappiness	Gain
108.058	2.007	n/a	153.281	8.0	1	8.23	4.12	16.0063	955.0	2.0	Outcome1	8.23	8.9	3.1125	Yes	n/a	-0.667232918082295	n/a	n/a	816.0	TrialHappinessSliderResponse	Gain
112.069	4.45	4.012	156.951	8.0	1	8.23	4.12	16.0063	955.0	2.0	Outcome1	8.23	8.9	3.1125	Yes	n/a	-0.667232918082295	n/a	n/a	n/a	ISIRate	Gain
116.549	3.0	0.03	161.431	9.0	1	3.19	1.6	16.4051	955.0	1.2	Outcome2	3.9	3.19	0.0	No	2.0	-0.712061155152888	0.52	117.069	n/a	GetAnswer	Mixed
117.084	4.0	0.015	161.966	9.0	1	3.19	1.6	16.4051	955.0	1.2	Outcome2	3.9	3.19	0.0	No	n/a	-0.712061155152888	n/a	n/a	n/a	ShowChoice	Mixed
121.096	1.0	0.012	165.978	9.0	1	3.19	1.6	16.4051	955.0	1.2	Outcome2	3.9	3.19	0.0	No	n/a	-0.712061155152888	n/a	n/a	n/a	ShowResult	Mixed
122.116	2.0	0.02	166.998	9.0	1	3.19	1.6	16.4051	955.0	1.2	Outcome2	3.9	3.19	0.0	No	n/a	-0.712061155152888	n/a	n/a	n/a	ISITrial	Mixed
124.138	3.0	0.022	169.02	10.0	1	2.77	1.38	16.7513	955.0	0.82	Outcome1	2.77	3.5	4.0	Yes	2.0	-0.7251793129482819	0.59	124.728	n/a	GetAnswer	Mixed
124.757	4.0	0.029	169.639	10.0	1	2.77	1.38	16.7513	955.0	0.82	Outcome1	2.77	3.5	4.0	Yes	n/a	-0.7251793129482819	n/a	n/a	n/a	ShowChoice	Mixed
128.769	1.0	0.012	173.651	10.0	1	2.77	1.38	16.7513	955.0	0.82	Outcome1	2.77	3.5	4.0	Yes	n/a	-0.7251793129482819	n/a	n/a	n/a	ShowResult	Mixed
129.789	2.0	0.02	174.671	10.0	1	2.77	1.38	16.7513	955.0	0.82	Outcome1	2.77	3.5	4.0	Yes	n/a	-0.7251793129482819	n/a	n/a	n/a	ISITrial	Mixed
131.811	4.0	0.022	176.693	10.0	1	2.77	1.38	16.7513	955.0	0.82	Outcome1	2.77	3.5	4.0	Yes	n/a	-0.7251793129482819	n/a	n/a	n/a	TrialHappPreview	Mixed
135.84	4.012	0.029	180.722	10.0	1	2.77	1.38	16.7513	955.0	0.82	Outcome1	2.77	3.5	4.0	Yes	n/a	-0.7251793129482819	n/a	n/a	816.0	TrialHappiness	Mixed
135.841	1.933	n/a	181.107	10.0	1	2.77	1.38	16.7513	955.0	0.82	Outcome1	2.77	3.5	4.0	Yes	n/a	-0.7251793129482819	n/a	n/a	816.0	TrialHappinessSliderResponse	Mixed
139.852	8.0	4.012	184.734	10.0	1	2.77	1.38	16.7513	955.0	0.82	Outcome1	2.77	3.5	4.0	Yes	n/a	-0.7251793129482819	n/a	n/a	n/a	ISIRate	Mixed
147.876	3.0	0.024	192.758	11.0	1	1.3	-1.0	16.9138	955.0	0.66	Outcome1	1.3	-3.15	0.0	No	2.0	4.45186862967157	0.563	148.439	n/a	GetAnswer	Mixed
148.461	4.0	0.022	193.343	11.0	1	1.3	-1.0	16.9138	955.0	0.66	Outcome1	1.3	-3.15	0.0	No	n/a	4.45186862967157	n/a	n/a	n/a	ShowChoice	Mixed
152.473	1.0	0.012	197.355	11.0	1	1.3	-1.0	16.9138	955.0	0.66	Outcome1	1.3	-3.15	0.0	No	n/a	4.45186862967157	n/a	n/a	n/a	ShowResult	Mixed
153.493	3.324	0.02	198.375	11.0	1	1.3	-1.0	16.9138	955.0	0.66	Outcome1	1.3	-3.15	0.0	No	n/a	4.45186862967157	n/a	n/a	n/a	ISITrial	Mixed
156.836	3.0	0.019	201.718	12.0	1	10.9	3.14	18.2763	955.0	2.0	Outcome2	6.29	10.9	2.61875	Yes	2.0	4.609286523216309	0.445	157.281	n/a	GetAnswer	Loss
157.304	4.0	0.023	202.186	12.0	1	10.9	3.14	18.2763	955.0	2.0	Outcome2	6.29	10.9	2.61875	Yes	n/a	4.609286523216309	n/a	n/a	n/a	ShowChoice	Loss
161.316	1.0	0.012	206.198	12.0	1	10.9	3.14	18.2763	955.0	2.0	Outcome2	6.29	10.9	2.61875	Yes	n/a	4.609286523216309	n/a	n/a	n/a	ShowResult	Loss
162.336	6.642	0.02	207.218	12.0	1	10.9	3.14	18.2763	955.0	2.0	Outcome2	6.29	10.9	2.61875	Yes	n/a	4.609286523216309	n/a	n/a	n/a	ISITrial	Loss
169.006	2.619	0.028	213.888	12.0	1	10.9	3.14	18.2763	955.0	2.0	Outcome2	6.29	10.9	2.61875	Yes	n/a	4.609286523216309	n/a	n/a	n/a	TrialHappPreview	Loss
171.647	4.012	0.022	216.529	12.0	1	10.9	3.14	18.2763	955.0	2.0	Outcome2	6.29	10.9	2.61875	Yes	n/a	4.609286523216309	n/a	n/a	896.0	TrialHappiness	Loss
171.648	2.31	n/a	216.78	12.0	1	10.9	3.14	18.2763	955.0	2.0	Outcome2	6.29	10.9	2.61875	Yes	n/a	4.609286523216309	n/a	n/a	896.0	TrialHappinessSliderResponse	Loss
175.659	2.475	4.012	220.541	12.0	1	10.9	3.14	18.2763	955.0	2.0	Outcome2	6.29	10.9	2.61875	Yes	n/a	4.609286523216309	n/a	n/a	n/a	ISIRate	Loss
178.167	3.0	0.033	223.049	13.0	1	-1.1	-3.0	18.1388	955.0	0.4	Outcome1	-1.1	-4.51	0.0	No	2.0	3.40770101925255	1.564	179.731	n/a	GetAnswer	Mixed
179.755	4.0	0.024	224.637	13.0	1	-1.1	-3.0	18.1388	955.0	0.4	Outcome1	-1.1	-4.51	0.0	No	n/a	3.40770101925255	n/a	n/a	n/a	ShowChoice	Mixed
183.767	1.0	0.012	228.649	13.0	1	-1.1	-3.0	18.1388	955.0	0.4	Outcome1	-1.1	-4.51	0.0	No	n/a	3.40770101925255	n/a	n/a	n/a	ShowResult	Mixed
184.787	3.48	0.02	229.669	13.0	1	-1.1	-3.0	18.1388	955.0	0.4	Outcome1	-1.1	-4.51	0.0	No	n/a	3.40770101925255	n/a	n/a	n/a	ISITrial	Mixed
188.297	3.0	0.03	233.179	14.0	1	7.3	1.92	19.0513	955.0	2.48	Outcome1	7.3	3.83	0.0	No	2.0	3.474518686296721	0.786	189.083	n/a	GetAnswer	Gain
189.099	4.0	0.015	233.981	14.0	1	7.3	1.92	19.0513	955.0	2.48	Outcome1	7.3	3.83	0.0	No	n/a	3.474518686296721	n/a	n/a	n/a	ShowChoice	Gain
193.128	1.0	0.029	238.01	14.0	1	7.3	1.92	19.0513	955.0	2.48	Outcome1	7.3	3.83	0.0	No	n/a	3.474518686296721	n/a	n/a	n/a	ShowResult	Gain
194.148	5.019	0.02	239.03	14.0	1	7.3	1.92	19.0513	955.0	2.48	Outcome1	7.3	3.83	0.0	No	n/a	3.474518686296721	n/a	n/a	n/a	ISITrial	Gain
199.196	3.0	0.029	244.078	15.0	1	4.7	0.58	19.6388	955.0	1.82	Outcome2	1.16	4.7	3.3485	Yes	2.0	3.5413363533408795	0.611	199.807	n/a	GetAnswer	Gain
199.832	4.0	0.025	244.714	15.0	1	4.7	0.58	19.6388	955.0	1.82	Outcome2	1.16	4.7	3.3485	Yes	n/a	3.5413363533408795	n/a	n/a	n/a	ShowChoice	Gain
203.844	1.0	0.012	248.726	15.0	1	4.7	0.58	19.6388	955.0	1.82	Outcome2	1.16	4.7	3.3485	Yes	n/a	3.5413363533408795	n/a	n/a	n/a	ShowResult	Gain
204.863	7.614	0.019	249.745	15.0	1	4.7	0.58	19.6388	955.0	1.82	Outcome2	1.16	4.7	3.3485	Yes	n/a	3.5413363533408795	n/a	n/a	n/a	ISITrial	Gain
212.503	3.348	0.026	257.385	15.0	1	4.7	0.58	19.6388	955.0	1.82	Outcome2	1.16	4.7	3.3485	Yes	n/a	3.5413363533408795	n/a	n/a	n/a	TrialHappPreview	Gain
215.88	4.028	0.029	260.762	15.0	1	4.7	0.58	19.6388	955.0	1.82	Outcome2	1.16	4.7	3.3485	Yes	n/a	3.5413363533408795	n/a	n/a	820.0	TrialHappiness	Gain
215.88	2.125	n/a	261.073	15.0	1	4.7	0.58	19.6388	955.0	1.82	Outcome2	1.16	4.7	3.3485	Yes	n/a	3.5413363533408795	n/a	n/a	820.0	TrialHappinessSliderResponse	Gain
219.908	5.394	4.028	264.79	15.0	1	4.7	0.58	19.6388	955.0	1.82	Outcome2	1.16	4.7	3.3485	Yes	n/a	3.5413363533408795	n/a	n/a	n/a	ISIRate	Gain
225.325	3.0	0.023	270.207	16.0	1	2.0	2.0	19.8888	955.0	1.68	Certain	4.5	-0.4	0.0	No	4.0	4.89920724801812	0.869	226.194	n/a	GetAnswer	Gain
226.211	4.0	0.017	271.093	16.0	1	2.0	2.0	19.8888	955.0	1.68	Certain	4.5	-0.4	0.0	No	n/a	4.89920724801812	n/a	n/a	n/a	ShowChoice	Gain
230.223	1.0	0.012	275.105	16.0	1	2.0	2.0	19.8888	955.0	1.68	Certain	4.5	-0.4	0.0	No	n/a	4.89920724801812	n/a	n/a	n/a	ShowResult	Gain
231.242	3.008	0.019	276.124	16.0	1	2.0	2.0	19.8888	955.0	1.68	Certain	4.5	-0.4	0.0	No	n/a	4.89920724801812	n/a	n/a	n/a	ISITrial	Gain
234.268	3.0	0.018	279.15	17.0	1	2.5	0.0	20.2013	955.0	0.2	Outcome2	-2.55	2.5	3.0415	Yes	2.0	5.05209513023783	0.69	234.958	n/a	GetAnswer	Mixed
234.987	4.0	0.029	279.869	17.0	1	2.5	0.0	20.2013	955.0	0.2	Outcome2	-2.55	2.5	3.0415	Yes	n/a	5.05209513023783	n/a	n/a	n/a	ShowChoice	Mixed
238.999	1.0	0.012	283.881	17.0	1	2.5	0.0	20.2013	955.0	0.2	Outcome2	-2.55	2.5	3.0415	Yes	n/a	5.05209513023783	n/a	n/a	n/a	ShowResult	Mixed
240.019	3.566	0.02	284.901	17.0	1	2.5	0.0	20.2013	955.0	0.2	Outcome2	-2.55	2.5	3.0415	Yes	n/a	5.05209513023783	n/a	n/a	n/a	ISITrial	Mixed
243.613	3.042	0.028	288.495	17.0	1	2.5	0.0	20.2013	955.0	0.2	Outcome2	-2.55	2.5	3.0415	Yes	n/a	5.05209513023783	n/a	n/a	n/a	TrialHappPreview	Mixed
246.672	4.012	0.017	291.554	17.0	1	2.5	0.0	20.2013	955.0	0.2	Outcome2	-2.55	2.5	3.0415	Yes	n/a	5.05209513023783	n/a	n/a	756.0	TrialHappiness	Mixed
246.672	2.922	n/a	291.926	17.0	1	2.5	0.0	20.2013	955.0	0.2	Outcome2	-2.55	2.5	3.0415	Yes	n/a	5.05209513023783	n/a	n/a	756.0	TrialHappinessSliderResponse	Mixed
250.684	4.166	4.012	295.566	17.0	1	2.5	0.0	20.2013	955.0	0.2	Outcome2	-2.55	2.5	3.0415	Yes	n/a	5.05209513023783	n/a	n/a	n/a	ISIRate	Mixed
254.88	3.0	0.03	299.762	18.0	1	12.1	2.9	21.7138	955.0	4.2	Outcome2	5.81	12.1	0.0	No	2.0	6.29218573046433	0.801	255.681	n/a	GetAnswer	Loss
255.699	4.0	0.018	300.581	18.0	1	12.1	2.9	21.7138	955.0	4.2	Outcome2	5.81	12.1	0.0	No	n/a	6.29218573046433	n/a	n/a	n/a	ShowChoice	Loss
259.711	1.0	0.012	304.593	18.0	1	12.1	2.9	21.7138	955.0	4.2	Outcome2	5.81	12.1	0.0	No	n/a	6.29218573046433	n/a	n/a	n/a	ShowResult	Loss
260.731	6.787	0.02	305.613	18.0	1	12.1	2.9	21.7138	955.0	4.2	Outcome2	5.81	12.1	0.0	No	n/a	6.29218573046433	n/a	n/a	n/a	ISITrial	Loss
267.534	3.0	0.016	312.416	19.0	1	9.1	1.29	22.8513	955.0	2.22	Outcome1	9.1	2.58	0.0	No	2.0	6.51755379388448	0.524	268.058	n/a	GetAnswer	Gain
268.086	4.0	0.028	312.968	19.0	1	9.1	1.29	22.8513	955.0	2.22	Outcome1	9.1	2.58	0.0	No	n/a	6.51755379388448	n/a	n/a	n/a	ShowChoice	Gain
272.098	1.0	0.012	316.98	19.0	1	9.1	1.29	22.8513	955.0	2.22	Outcome1	9.1	2.58	0.0	No	n/a	6.51755379388448	n/a	n/a	n/a	ShowResult	Gain
273.118	2.0	0.02	318.0	19.0	1	9.1	1.29	22.8513	955.0	2.22	Outcome1	9.1	2.58	0.0	No	n/a	6.51755379388448	n/a	n/a	n/a	ISITrial	Gain
275.14	3.0	0.022	320.022	20.0	1	9.9	1.58	24.0888	955.0	3.6	Outcome2	3.16	9.9	2.92125	Yes	2.0	6.74292185730464	0.463	275.603	n/a	GetAnswer	Gain
275.625	4.0	0.022	320.507	20.0	1	9.9	1.58	24.0888	955.0	3.6	Outcome2	3.16	9.9	2.92125	Yes	n/a	6.74292185730464	n/a	n/a	n/a	ShowChoice	Gain
279.637	1.0	0.012	324.519	20.0	1	9.9	1.58	24.0888	955.0	3.6	Outcome2	3.16	9.9	2.92125	Yes	n/a	6.74292185730464	n/a	n/a	n/a	ShowResult	Gain
280.657	8.0	0.02	325.539	20.0	1	9.9	1.58	24.0888	955.0	3.6	Outcome2	3.16	9.9	2.92125	Yes	n/a	6.74292185730464	n/a	n/a	n/a	ISITrial	Gain
288.681	2.921	0.024	333.563	20.0	1	9.9	1.58	24.0888	955.0	3.6	Outcome2	3.16	9.9	2.92125	Yes	n/a	6.74292185730464	n/a	n/a	n/a	TrialHappPreview	Gain
291.623	4.029	0.021	336.505	20.0	1	9.9	1.58	24.0888	955.0	3.6	Outcome2	3.16	9.9	2.92125	Yes	n/a	6.74292185730464	n/a	n/a	884.0	TrialHappiness	Gain
291.624	3.704	n/a	336.798	20.0	1	9.9	1.58	24.0888	955.0	3.6	Outcome2	3.16	9.9	2.92125	Yes	n/a	6.74292185730464	n/a	n/a	884.0	TrialHappinessSliderResponse	Gain
295.652	3.685	4.029	340.534	20.0	1	9.9	1.58	24.0888	955.0	3.6	Outcome2	3.16	9.9	2.92125	Yes	n/a	6.74292185730464	n/a	n/a	n/a	ISIRate	Gain
299.363	3.0	0.026	344.245	21.0	1	0.7	-1.0	24.1763	955.0	0.3	Outcome1	0.7	-4.09	0.0	No	2.0	4.79388448471121	0.57	299.933	n/a	GetAnswer	Mixed
299.948	4.0	0.015	344.83	21.0	1	0.7	-1.0	24.1763	955.0	0.3	Outcome1	0.7	-4.09	0.0	No	n/a	4.79388448471121	n/a	n/a	n/a	ShowChoice	Mixed
303.96	1.0	0.012	348.842	21.0	1	0.7	-1.0	24.1763	955.0	0.3	Outcome1	0.7	-4.09	0.0	No	n/a	4.79388448471121	n/a	n/a	n/a	ShowResult	Mixed
304.98	3.555	0.02	349.862	21.0	1	0.7	-1.0	24.1763	955.0	0.3	Outcome1	0.7	-4.09	0.0	No	n/a	4.79388448471121	n/a	n/a	n/a	ISITrial	Mixed
308.557	3.0	0.022	353.439	22.0	1	11.9	3.52	25.6638	955.0	3.6	Outcome1	11.9	7.03	3.2195	Yes	2.0	4.87429218573046	0.507	309.064	n/a	GetAnswer	Loss
309.092	4.0	0.028	353.974	22.0	1	11.9	3.52	25.6638	955.0	3.6	Outcome1	11.9	7.03	3.2195	Yes	n/a	4.87429218573046	n/a	n/a	n/a	ShowChoice	Loss
313.104	1.0	0.012	357.986	22.0	1	11.9	3.52	25.6638	955.0	3.6	Outcome1	11.9	7.03	3.2195	Yes	n/a	4.87429218573046	n/a	n/a	n/a	ShowResult	Loss
314.124	6.793	0.02	359.006	22.0	1	11.9	3.52	25.6638	955.0	3.6	Outcome1	11.9	7.03	3.2195	Yes	n/a	4.87429218573046	n/a	n/a	n/a	ISITrial	Loss
320.944	3.22	0.027	365.826	22.0	1	11.9	3.52	25.6638	955.0	3.6	Outcome1	11.9	7.03	3.2195	Yes	n/a	4.87429218573046	n/a	n/a	n/a	TrialHappPreview	Loss
324.187	4.012	0.023	369.069	22.0	1	11.9	3.52	25.6638	955.0	3.6	Outcome1	11.9	7.03	3.2195	Yes	2{-2}2{-2}	4.87429218573046	1.897	326.084	816.0	TrialHappiness	Loss
324.188	1.543	n/a	369.424	22.0	1	11.9	3.52	25.6638	955.0	3.6	Outcome1	11.9	7.03	3.2195	Yes	n/a	4.87429218573046	n/a	n/a	816.0	TrialHappinessSliderResponse	Loss
328.199	4.878	4.012	373.081	22.0	1	11.9	3.52	25.6638	955.0	3.6	Outcome1	11.9	7.03	3.2195	Yes	n/a	4.87429218573046	n/a	n/a	n/a	ISIRate	Loss
333.097	3.0	0.02	377.979	23.0	1	6.5	0.2	26.4763	955.0	1.68	Outcome2	0.39	6.5	0.0	No	2.0	6.10985277463194	0.529	333.626	n/a	GetAnswer	Gain
333.649	4.0	0.023	378.531	23.0	1	6.5	0.2	26.4763	955.0	1.68	Outcome2	0.39	6.5	0.0	No	n/a	6.10985277463194	n/a	n/a	n/a	ShowChoice	Gain
337.661	1.0	0.012	382.543	23.0	1	6.5	0.2	26.4763	955.0	1.68	Outcome2	0.39	6.5	0.0	No	n/a	6.10985277463194	n/a	n/a	n/a	ShowResult	Gain
338.681	8.0	0.02	383.563	23.0	1	6.5	0.2	26.4763	955.0	1.68	Outcome2	0.39	6.5	0.0	No	n/a	6.10985277463194	n/a	n/a	n/a	ISITrial	Gain
346.705	3.0	0.024	391.587	24.0	1	8.3	1.01	27.5138	955.0	5.0	Outcome1	8.3	2.03	3.255	Yes	2.0	6.26727066817667	0.476	347.181	n/a	GetAnswer	Gain
347.206	4.0	0.025	392.088	24.0	1	8.3	1.01	27.5138	955.0	5.0	Outcome1	8.3	2.03	3.255	Yes	n/a	6.26727066817667	n/a	n/a	n/a	ShowChoice	Gain
351.218	1.0	0.012	396.1	24.0	1	8.3	1.01	27.5138	955.0	5.0	Outcome1	8.3	2.03	3.255	Yes	n/a	6.26727066817667	n/a	n/a	n/a	ShowResult	Gain
352.238	2.0	0.02	397.12	24.0	1	8.3	1.01	27.5138	955.0	5.0	Outcome1	8.3	2.03	3.255	Yes	n/a	6.26727066817667	n/a	n/a	n/a	ISITrial	Gain
354.261	3.255	0.023	399.143	24.0	1	8.3	1.01	27.5138	955.0	5.0	Outcome1	8.3	2.03	3.255	Yes	n/a	6.26727066817667	n/a	n/a	n/a	TrialHappPreview	Gain
357.537	4.029	0.021	402.419	24.0	1	8.3	1.01	27.5138	955.0	5.0	Outcome1	8.3	2.03	3.255	Yes	n/a	6.26727066817667	n/a	n/a	816.0	TrialHappiness	Gain
357.538	2.086	n/a	402.817	24.0	1	8.3	1.01	27.5138	955.0	5.0	Outcome1	8.3	2.03	3.255	Yes	n/a	6.26727066817667	n/a	n/a	816.0	TrialHappinessSliderResponse	Gain
361.566	5.02	4.029	406.448	24.0	1	8.3	1.01	27.5138	955.0	5.0	Outcome1	8.3	2.03	3.255	Yes	n/a	6.26727066817667	n/a	n/a	n/a	ISIRate	Gain
366.614	3.0	0.028	411.496	25.0	1	11.3	2.44	28.9263	955.0	2.48	Outcome1	11.3	4.88	0.0	No	2.0	6.4246885617214105	0.62	367.234	n/a	GetAnswer	Loss
367.249	4.0	0.015	412.131	25.0	1	11.3	2.44	28.9263	955.0	2.48	Outcome1	11.3	4.88	0.0	No	n/a	6.4246885617214105	n/a	n/a	n/a	ShowChoice	Loss
371.261	1.0	0.012	416.143	25.0	1	11.3	2.44	28.9263	955.0	2.48	Outcome1	11.3	4.88	0.0	No	n/a	6.4246885617214105	n/a	n/a	n/a	ShowResult	Loss
372.281	3.749	0.02	417.163	25.0	1	11.3	2.44	28.9263	955.0	2.48	Outcome1	11.3	4.88	0.0	No	n/a	6.4246885617214105	n/a	n/a	n/a	ISITrial	Loss
376.059	3.0	0.029	420.941	26.0	1	2.7	0.0	29.2638	955.0	0.3	Outcome1	2.7	-3.88	0.0	No	2.0	6.58210645526614	0.289	376.348	n/a	GetAnswer	Mixed
376.377	4.0	0.029	421.259	26.0	1	2.7	0.0	29.2638	955.0	0.3	Outcome1	2.7	-3.88	0.0	No	n/a	6.58210645526614	n/a	n/a	n/a	ShowChoice	Mixed
380.389	1.0	0.012	425.271	26.0	1	2.7	0.0	29.2638	955.0	0.3	Outcome1	2.7	-3.88	0.0	No	n/a	6.58210645526614	n/a	n/a	n/a	ShowResult	Mixed
381.408	7.834	0.019	426.29	26.0	1	2.7	0.0	29.2638	955.0	0.3	Outcome1	2.7	-3.88	0.0	No	n/a	6.58210645526614	n/a	n/a	n/a	ISITrial	Mixed
389.265	3.0	0.023	434.147	27.0	1	7.7	0.48	30.2263	955.0	3.16	Outcome2	0.96	7.7	2.54975	Yes	2.0	6.73952434881087	0.315	389.58	n/a	GetAnswer	Gain
389.6	4.0	0.02	434.482	27.0	1	7.7	0.48	30.2263	955.0	3.16	Outcome2	0.96	7.7	2.54975	Yes	n/a	6.73952434881087	n/a	n/a	n/a	ShowChoice	Gain
393.612	1.0	0.012	438.494	27.0	1	7.7	0.48	30.2263	955.0	3.16	Outcome2	0.96	7.7	2.54975	Yes	n/a	6.73952434881087	n/a	n/a	n/a	ShowResult	Gain
394.631	4.225	0.019	439.513	27.0	1	7.7	0.48	30.2263	955.0	3.16	Outcome2	0.96	7.7	2.54975	Yes	n/a	6.73952434881087	n/a	n/a	n/a	ISITrial	Gain
398.877	2.55	0.021	443.759	27.0	1	7.7	0.48	30.2263	955.0	3.16	Outcome2	0.96	7.7	2.54975	Yes	n/a	6.73952434881087	n/a	n/a	n/a	TrialHappPreview	Gain
401.452	4.029	0.025	446.334	27.0	1	7.7	0.48	30.2263	955.0	3.16	Outcome2	0.96	7.7	2.54975	Yes	2{-2}2{-2}2{-2}	6.73952434881087	2.021	403.473	824.0	TrialHappiness	Gain
401.452	1.698	n/a	446.657	27.0	1	7.7	0.48	30.2263	955.0	3.16	Outcome2	0.96	7.7	2.54975	Yes	n/a	6.73952434881087	n/a	n/a	824.0	TrialHappinessSliderResponse	Gain
405.481	2.199	4.029	450.363	27.0	1	7.7	0.48	30.2263	955.0	3.16	Outcome2	0.96	7.7	2.54975	Yes	n/a	6.73952434881087	n/a	n/a	n/a	ISIRate	Gain
477.63	0.615	n/a	523.124	n/a	1	n/a	n/a	n/a	n/a	n/a	n/a	n/a	n/a	n/a	n/a	n/a	n/a	n/a	n/a	736.0	BlockStartHappinessSliderResponse	n/a
-77.381	-0.001	0.024	452.586	n/a	2	n/a	n/a	n/a	n/a	n/a	n/a	n/a	n/a	n/a	n/a	{SPACE}	n/a	65.89	-11.491	n/a	Rest	n/a
-11.467	4.0	0.024	518.5	n/a	2	n/a	n/a	n/a	n/a	n/a	n/a	n/a	n/a	n/a	n/a	n/a	n/a	n/a	n/a	n/a	BlockHappyPreview	n/a
-7.455	1.227	0.012	522.512	n/a	2	n/a	n/a	n/a	n/a	n/a	n/a	n/a	n/a	n/a	n/a	n/a	n/a	n/a	n/a	736.0	BlockStartHappiness	n/a
-1.755	-0.001	0.024	528.212	n/a	2	n/a	n/a	n/a	n/a	n/a	n/a	n/a	n/a	n/a	n/a	5.0	n/a	1.741	-0.014	n/a	ScanWait	n/a
0.0	10.0	0.014	529.967	n/a	2	n/a	n/a	n/a	n/a	n/a	n/a	n/a	n/a	n/a	n/a	n/a	n/a	n/a	n/a	n/a	GetReady	n/a
10.031	3.0	0.031	539.998	28.0	2	0.72	0.0	30.3163	70.0	0.4	Outcome2	-1.99	0.72	0.0	No	2.0	2.70578231292517	0.518	10.549	n/a	GetAnswer	Mixed
10.565	4.0	0.016	540.532	28.0	2	0.72	0.0	30.3163	70.0	0.4	Outcome2	-1.99	0.72	0.0	No	n/a	2.70578231292517	n/a	n/a	n/a	ShowChoice	Mixed
14.577	1.0	0.012	544.544	28.0	2	0.72	0.0	30.3163	70.0	0.4	Outcome2	-1.99	0.72	0.0	No	n/a	2.70578231292517	n/a	n/a	n/a	ShowResult	Mixed
15.597	3.575	0.02	545.564	28.0	2	0.72	0.0	30.3163	70.0	0.4	Outcome2	-1.99	0.72	0.0	No	n/a	2.70578231292517	n/a	n/a	n/a	ISITrial	Mixed
19.191	3.0	0.019	549.158	29.0	2	-12.78	-6.0	28.7188	70.0	0.66	Outcome2	-0.7	-12.78	3.529	Yes	2.0	-12.0816326530612	0.538	19.729	n/a	GetAnswer	Mixed
19.743	4.0	0.014	549.71	29.0	2	-12.78	-6.0	28.7188	70.0	0.66	Outcome2	-0.7	-12.78	3.529	Yes	n/a	-12.0816326530612	n/a	n/a	n/a	ShowChoice	Mixed
23.755	1.0	0.012	553.722	29.0	2	-12.78	-6.0	28.7188	70.0	0.66	Outcome2	-0.7	-12.78	3.529	Yes	n/a	-12.0816326530612	n/a	n/a	n/a	ShowResult	Mixed
24.775	3.955	0.02	554.742	29.0	2	-12.78	-6.0	28.7188	70.0	0.66	Outcome2	-0.7	-12.78	3.529	Yes	n/a	-12.0816326530612	n/a	n/a	n/a	ISITrial	Mixed
28.753	3.529	0.023	558.72	29.0	2	-12.78	-6.0	28.7188	70.0	0.66	Outcome2	-0.7	-12.78	3.529	Yes	n/a	-12.0816326530612	n/a	n/a	n/a	TrialHappPreview	Mixed
32.314	4.029	0.032	562.281	29.0	2	-12.78	-6.0	28.7188	70.0	0.66	Outcome2	-0.7	-12.78	3.529	Yes	4{-4}2{-2}2{-2}2{-2}2{-2}	-12.0816326530612	3.023	35.337	428.0	TrialHappiness	Mixed
32.314	2.711	n/a	562.593	29.0	2	-12.78	-6.0	28.7188	70.0	0.66	Outcome2	-0.7	-12.78	3.529	Yes	n/a	-12.0816326530612	n/a	n/a	428.0	TrialHappinessSliderResponse	Mixed
36.343	6.116	4.029	566.31	29.0	2	-12.78	-6.0	28.7188	70.0	0.66	Outcome2	-0.7	-12.78	3.529	Yes	n/a	-12.0816326530612	n/a	n/a	n/a	ISIRate	Mixed
42.478	3.0	0.019	572.445	30.0	2	-7.9	-4.0	27.7313	70.0	1.0	Outcome1	-7.9	-0.3	0.0	No	2.0	-7.59863945578231	1.275	43.753	n/a	GetAnswer	Mixed
43.782	4.0	0.029	573.749	30.0	2	-7.9	-4.0	27.7313	70.0	1.0	Outcome1	-7.9	-0.3	0.0	No	n/a	-7.59863945578231	n/a	n/a	n/a	ShowChoice	Mixed
47.81	1.0	0.028	577.777	30.0	2	-7.9	-4.0	27.7313	70.0	1.0	Outcome1	-7.9	-0.3	0.0	No	n/a	-7.59863945578231	n/a	n/a	n/a	ShowResult	Mixed
48.83	4.453	0.02	578.797	30.0	2	-7.9	-4.0	27.7313	70.0	1.0	Outcome1	-7.9	-0.3	0.0	No	n/a	-7.59863945578231	n/a	n/a	n/a	ISITrial	Mixed
53.31	3.0	0.027	583.277	31.0	2	5.3	2.65	28.3938	70.0	2.48	Outcome1	5.3	13.3	2.50325	Yes	2.0	-8.00453514739229	0.771	54.081	n/a	GetAnswer	Loss
54.096	4.0	0.015	584.063	31.0	2	5.3	2.65	28.3938	70.0	2.48	Outcome1	5.3	13.3	2.50325	Yes	n/a	-8.00453514739229	n/a	n/a	n/a	ShowChoice	Loss
58.124	1.0	0.028	588.091	31.0	2	5.3	2.65	28.3938	70.0	2.48	Outcome1	5.3	13.3	2.50325	Yes	n/a	-8.00453514739229	n/a	n/a	n/a	ShowResult	Loss
59.144	4.786	0.02	589.111	31.0	2	5.3	2.65	28.3938	70.0	2.48	Outcome1	5.3	13.3	2.50325	Yes	n/a	-8.00453514739229	n/a	n/a	n/a	ISITrial	Loss
63.959	2.503	0.029	593.926	31.0	2	5.3	2.65	28.3938	70.0	2.48	Outcome1	5.3	13.3	2.50325	Yes	n/a	-8.00453514739229	n/a	n/a	n/a	TrialHappPreview	Loss
66.483	4.029	0.021	596.45	31.0	2	5.3	2.65	28.3938	70.0	2.48	Outcome1	5.3	13.3	2.50325	Yes	n/a	-8.00453514739229	n/a	n/a	376.0	TrialHappiness	Loss
66.483	1.87	n/a	596.899	31.0	2	5.3	2.65	28.3938	70.0	2.48	Outcome1	5.3	13.3	2.50325	Yes	n/a	-8.00453514739229	n/a	n/a	376.0	TrialHappinessSliderResponse	Loss
70.512	2.013	4.029	600.479	31.0	2	5.3	2.65	28.3938	70.0	2.48	Outcome1	5.3	13.3	2.50325	Yes	n/a	-8.00453514739229	n/a	n/a	n/a	ISIRate	Loss
72.551	3.0	0.026	602.518	32.0	2	-6.63	-3.0	27.565	70.0	0.4	Outcome1	-6.63	0.9	0.0	No	2.0	-7.526077097505669	1.371	73.922	n/a	GetAnswer	Mixed
73.938	4.0	0.016	603.905	32.0	2	-6.63	-3.0	27.565	70.0	0.4	Outcome1	-6.63	0.9	0.0	No	n/a	-7.526077097505669	n/a	n/a	n/a	ShowChoice	Mixed
77.95	1.0	0.012	607.917	32.0	2	-6.63	-3.0	27.565	70.0	0.4	Outcome1	-6.63	0.9	0.0	No	n/a	-7.526077097505669	n/a	n/a	n/a	ShowResult	Mixed
78.97	2.0	0.02	608.937	32.0	2	-6.63	-3.0	27.565	70.0	0.4	Outcome1	-6.63	0.9	0.0	No	n/a	-7.526077097505669	n/a	n/a	n/a	ISITrial	Mixed
80.993	3.0	0.023	610.96	33.0	2	1.0	1.0	27.69	70.0	2.8	Certain	2.38	0.91	0.0	No	4.0	1.4656084656084698	0.854	81.847	n/a	GetAnswer	Gain
81.862	4.0	0.015	611.829	33.0	2	1.0	1.0	27.69	70.0	2.8	Certain	2.38	0.91	0.0	No	n/a	1.4656084656084698	n/a	n/a	n/a	ShowChoice	Gain
85.891	1.0	0.029	615.858	33.0	2	1.0	1.0	27.69	70.0	2.8	Certain	2.38	0.91	0.0	No	n/a	1.4656084656084698	n/a	n/a	n/a	ShowResult	Gain
86.911	5.099	0.02	616.878	33.0	2	1.0	1.0	27.69	70.0	2.8	Certain	2.38	0.91	0.0	No	n/a	1.4656084656084698	n/a	n/a	n/a	ISITrial	Gain
92.043	3.0	0.033	622.01	34.0	2	3.38	2.0	28.1125	70.0	2.8	Outcome1	3.38	1.89	3.2315	Yes	2.0	1.4945200302343202	1.508	93.551	n/a	GetAnswer	Loss
93.581	4.0	0.03	623.548	34.0	2	3.38	2.0	28.1125	70.0	2.8	Outcome1	3.38	1.89	3.2315	Yes	n/a	1.4945200302343202	n/a	n/a	n/a	ShowChoice	Loss
97.609	1.0	0.028	627.576	34.0	2	3.38	2.0	28.1125	70.0	2.8	Outcome1	3.38	1.89	3.2315	Yes	n/a	1.4945200302343202	n/a	n/a	n/a	ShowResult	Loss
98.629	4.784	0.02	628.596	34.0	2	3.38	2.0	28.1125	70.0	2.8	Outcome1	3.38	1.89	3.2315	Yes	n/a	1.4945200302343202	n/a	n/a	n/a	ISITrial	Loss
103.427	3.232	0.014	633.394	34.0	2	3.38	2.0	28.1125	70.0	2.8	Outcome1	3.38	1.89	3.2315	Yes	n/a	1.4945200302343202	n/a	n/a	n/a	TrialHappPreview	Loss
106.686	4.029	0.027	636.653	34.0	2	3.38	2.0	28.1125	70.0	2.8	Outcome1	3.38	1.89	3.2315	Yes	n/a	1.4945200302343202	n/a	n/a	728.0	TrialHappiness	Loss
106.687	2.314	n/a	636.954	34.0	2	3.38	2.0	28.1125	70.0	2.8	Outcome1	3.38	1.89	3.2315	Yes	n/a	1.4945200302343202	n/a	n/a	728.0	TrialHappinessSliderResponse	Loss
110.715	4.926	4.029	640.682	34.0	2	3.38	2.0	28.1125	70.0	2.8	Outcome1	3.38	1.89	3.2315	Yes	n/a	1.4945200302343202	n/a	n/a	n/a	ISIRate	Loss
115.663	3.0	0.022	645.63	35.0	2	-13.05	-6.0	26.4813	70.0	0.82	Outcome1	-13.05	1.5	0.0	No	2.0	-14.5532879818594	0.731	116.394	n/a	GetAnswer	Mixed
116.416	4.0	0.022	646.383	35.0	2	-13.05	-6.0	26.4813	70.0	0.82	Outcome1	-13.05	1.5	0.0	No	n/a	-14.5532879818594	n/a	n/a	n/a	ShowChoice	Mixed
120.444	1.0	0.028	650.411	35.0	2	-13.05	-6.0	26.4813	70.0	0.82	Outcome1	-13.05	1.5	0.0	No	n/a	-14.5532879818594	n/a	n/a	n/a	ShowResult	Mixed
121.464	2.098	0.02	651.431	35.0	2	-13.05	-6.0	26.4813	70.0	0.82	Outcome1	-13.05	1.5	0.0	No	n/a	-14.5532879818594	n/a	n/a	n/a	ISITrial	Mixed
123.587	3.0	0.025	653.554	36.0	2	-1.0	-1.0	26.3563	70.0	0.52	Certain	-0.22	-3.24	3.33575	Yes	4.0	3.01568405139834	0.997	124.584	n/a	GetAnswer	Mixed
124.607	4.0	0.023	654.574	36.0	2	-1.0	-1.0	26.3563	70.0	0.52	Certain	-0.22	-3.24	3.33575	Yes	n/a	3.01568405139834	n/a	n/a	n/a	ShowChoice	Mixed
128.636	1.0	0.029	658.603	36.0	2	-1.0	-1.0	26.3563	70.0	0.52	Certain	-0.22	-3.24	3.33575	Yes	n/a	3.01568405139834	n/a	n/a	n/a	ShowResult	Mixed
129.655	5.156	0.019	659.622	36.0	2	-1.0	-1.0	26.3563	70.0	0.52	Certain	-0.22	-3.24	3.33575	Yes	n/a	3.01568405139834	n/a	n/a	n/a	ISITrial	Mixed
134.837	3.336	0.026	664.804	36.0	2	-1.0	-1.0	26.3563	70.0	0.52	Certain	-0.22	-3.24	3.33575	Yes	n/a	3.01568405139834	n/a	n/a	n/a	TrialHappPreview	Mixed
138.197	4.012	0.024	668.164	36.0	2	-1.0	-1.0	26.3563	70.0	0.52	Certain	-0.22	-3.24	3.33575	Yes	n/a	3.01568405139834	n/a	n/a	472.0	TrialHappiness	Mixed
138.198	2.24	n/a	668.572	36.0	2	-1.0	-1.0	26.3563	70.0	0.52	Certain	-0.22	-3.24	3.33575	Yes	n/a	3.01568405139834	n/a	n/a	472.0	TrialHappinessSliderResponse	Mixed
142.209	5.343	4.012	672.176	36.0	2	-1.0	-1.0	26.3563	70.0	0.52	Certain	-0.22	-3.24	3.33575	Yes	n/a	3.01568405139834	n/a	n/a	n/a	ISIRate	Mixed
147.576	3.0	0.024	677.543	37.0	2	-5.59	0.0	25.6575	70.0	4.2	Outcome2	6.1	-5.59	0.0	No	2.0	-11.6916099773243	0.757	148.333	n/a	GetAnswer	Gain
148.345	4.0	0.012	678.312	37.0	2	-5.59	0.0	25.6575	70.0	4.2	Outcome2	6.1	-5.59	0.0	No	n/a	-11.6916099773243	n/a	n/a	n/a	ShowChoice	Gain
152.357	1.0	0.012	682.324	37.0	2	-5.59	0.0	25.6575	70.0	4.2	Outcome2	6.1	-5.59	0.0	No	n/a	-11.6916099773243	n/a	n/a	n/a	ShowResult	Gain
153.376	3.598	0.019	683.343	37.0	2	-5.59	0.0	25.6575	70.0	4.2	Outcome2	6.1	-5.59	0.0	No	n/a	-11.6916099773243	n/a	n/a	n/a	ISITrial	Gain
157.004	3.0	0.03	686.971	38.0	2	-1.0	-1.0	25.5325	70.0	0.3	Certain	-2.4	-0.32	0.0	No	4.0	2.07577475434618	0.864	157.868	n/a	GetAnswer	Mixed
157.89	4.0	0.021	687.857	38.0	2	-1.0	-1.0	25.5325	70.0	0.3	Certain	-2.4	-0.32	0.0	No	n/a	2.07577475434618	n/a	n/a	n/a	ShowChoice	Mixed
161.902	1.0	0.012	691.869	38.0	2	-1.0	-1.0	25.5325	70.0	0.3	Certain	-2.4	-0.32	0.0	No	n/a	2.07577475434618	n/a	n/a	n/a	ShowResult	Mixed
162.921	4.787	0.019	692.888	38.0	2	-1.0	-1.0	25.5325	70.0	0.3	Certain	-2.4	-0.32	0.0	No	n/a	2.07577475434618	n/a	n/a	n/a	ISITrial	Mixed
167.736	3.0	0.028	697.703	39.0	2	2.12	1.0	25.7975	70.0	1.68	Outcome1	2.12	0.01	2.86425	Yes	2.0	2.11375661375661	0.695	168.431	n/a	GetAnswer	Gain
168.455	4.0	0.024	698.422	39.0	2	2.12	1.0	25.7975	70.0	1.68	Outcome1	2.12	0.01	2.86425	Yes	n/a	2.11375661375661	n/a	n/a	n/a	ShowChoice	Gain
172.467	1.0	0.012	702.434	39.0	2	2.12	1.0	25.7975	70.0	1.68	Outcome1	2.12	0.01	2.86425	Yes	n/a	2.11375661375661	n/a	n/a	n/a	ShowResult	Gain
173.486	2.348	0.019	703.453	39.0	2	2.12	1.0	25.7975	70.0	1.68	Outcome1	2.12	0.01	2.86425	Yes	n/a	2.11375661375661	n/a	n/a	n/a	ISITrial	Gain
175.86	2.864	0.026	705.827	39.0	2	2.12	1.0	25.7975	70.0	1.68	Outcome1	2.12	0.01	2.86425	Yes	n/a	2.11375661375661	n/a	n/a	n/a	TrialHappPreview	Gain
178.752	4.012	0.028	708.719	39.0	2	2.12	1.0	25.7975	70.0	1.68	Outcome1	2.12	0.01	2.86425	Yes	n/a	2.11375661375661	n/a	n/a	768.0	TrialHappiness	Gain
178.753	2.156	n/a	709.848	39.0	2	2.12	1.0	25.7975	70.0	1.68	Outcome1	2.12	0.01	2.86425	Yes	n/a	2.11375661375661	n/a	n/a	768.0	TrialHappinessSliderResponse	Gain
182.764	3.457	4.012	712.731	39.0	2	2.12	1.0	25.7975	70.0	1.68	Outcome1	2.12	0.01	2.86425	Yes	n/a	2.11375661375661	n/a	n/a	n/a	ISIRate	Gain
186.241	3.0	0.02	716.208	40.0	2	-4.39	-2.19	25.2487	70.0	3.16	Outcome2	13.7	-4.39	0.0	No	2.0	-18.092970521542	0.736	186.977	n/a	GetAnswer	Loss
186.994	4.0	0.017	716.961	40.0	2	-4.39	-2.19	25.2487	70.0	3.16	Outcome2	13.7	-4.39	0.0	No	n/a	-18.092970521542	n/a	n/a	n/a	ShowChoice	Loss
191.006	1.0	0.012	720.973	40.0	2	-4.39	-2.19	25.2487	70.0	3.16	Outcome2	13.7	-4.39	0.0	No	n/a	-18.092970521542	n/a	n/a	n/a	ShowResult	Loss
192.025	3.158	0.019	721.992	40.0	2	-4.39	-2.19	25.2487	70.0	3.16	Outcome2	13.7	-4.39	0.0	No	n/a	-18.092970521542	n/a	n/a	n/a	ISITrial	Loss
195.201	3.0	0.018	725.168	41.0	2	-11.98	-2.0	23.7512	70.0	2.0	Outcome2	6.9	-11.98	4.0	Yes	2.0	-18.8843537414966	0.605	195.806	n/a	GetAnswer	Gain
195.82	4.0	0.014	725.787	41.0	2	-11.98	-2.0	23.7512	70.0	2.0	Outcome2	6.9	-11.98	4.0	Yes	n/a	-18.8843537414966	n/a	n/a	n/a	ShowChoice	Gain
199.832	1.0	0.012	729.799	41.0	2	-11.98	-2.0	23.7512	70.0	2.0	Outcome2	6.9	-11.98	4.0	Yes	n/a	-18.8843537414966	n/a	n/a	n/a	ShowResult	Gain
200.852	4.506	0.02	730.819	41.0	2	-11.98	-2.0	23.7512	70.0	2.0	Outcome2	6.9	-11.98	4.0	Yes	n/a	-18.8843537414966	n/a	n/a	n/a	ISITrial	Gain
205.382	4.0	0.024	735.349	41.0	2	-11.98	-2.0	23.7512	70.0	2.0	Outcome2	6.9	-11.98	4.0	Yes	n/a	-18.8843537414966	n/a	n/a	n/a	TrialHappPreview	Gain
209.411	4.012	0.029	739.378	41.0	2	-11.98	-2.0	23.7512	70.0	2.0	Outcome2	6.9	-11.98	4.0	Yes	4{-4}2{-2}2{-2}2{-2}2{-2}	-18.8843537414966	3.232	212.643	420.0	TrialHappiness	Gain
209.411	2.695	n/a	739.915	41.0	2	-11.98	-2.0	23.7512	70.0	2.0	Outcome2	6.9	-11.98	4.0	Yes	n/a	-18.8843537414966	n/a	n/a	420.0	TrialHappinessSliderResponse	Gain
213.423	8.0	4.012	743.39	41.0	2	-11.98	-2.0	23.7512	70.0	2.0	Outcome2	6.9	-11.98	4.0	Yes	n/a	-18.8843537414966	n/a	n/a	n/a	ISIRate	Gain
221.447	3.0	0.024	751.414	42.0	2	-0.66	-0.33	23.6687	70.0	2.22	Outcome2	13.1	-0.66	0.0	No	2.0	-13.7573696145125	1.563	223.01	n/a	GetAnswer	Loss
223.035	4.0	0.025	753.002	42.0	2	-0.66	-0.33	23.6687	70.0	2.22	Outcome2	13.1	-0.66	0.0	No	n/a	-13.7573696145125	n/a	n/a	n/a	ShowChoice	Loss
227.047	1.0	0.012	757.014	42.0	2	-0.66	-0.33	23.6687	70.0	2.22	Outcome2	13.1	-0.66	0.0	No	n/a	-13.7573696145125	n/a	n/a	n/a	ShowResult	Loss
228.066	6.248	0.019	758.033	42.0	2	-0.66	-0.33	23.6687	70.0	2.22	Outcome2	13.1	-0.66	0.0	No	n/a	-13.7573696145125	n/a	n/a	n/a	ISITrial	Loss
234.335	3.0	0.021	764.302	43.0	2	-2.0	-2.0	23.4187	70.0	2.0	Certain	-9.25	4.9	2.77575	Yes	4.0	-14.1541950113379	2.237	236.572	n/a	GetAnswer	Gain
236.592	4.0	0.02	766.559	43.0	2	-2.0	-2.0	23.4187	70.0	2.0	Certain	-9.25	4.9	2.77575	Yes	n/a	-14.1541950113379	n/a	n/a	n/a	ShowChoice	Gain
240.604	1.0	0.012	770.571	43.0	2	-2.0	-2.0	23.4187	70.0	2.0	Certain	-9.25	4.9	2.77575	Yes	n/a	-14.1541950113379	n/a	n/a	n/a	ShowResult	Gain
241.624	4.596	0.02	771.591	43.0	2	-2.0	-2.0	23.4187	70.0	2.0	Certain	-9.25	4.9	2.77575	Yes	n/a	-14.1541950113379	n/a	n/a	n/a	ISITrial	Gain
246.238	2.776	0.018	776.205	43.0	2	-2.0	-2.0	23.4187	70.0	2.0	Certain	-9.25	4.9	2.77575	Yes	n/a	-14.1541950113379	n/a	n/a	n/a	TrialHappPreview	Gain
249.029	4.012	0.015	778.996	43.0	2	-2.0	-2.0	23.4187	70.0	2.0	Certain	-9.25	4.9	2.77575	Yes	4{-4}2{-2}	-14.1541950113379	2.599	251.628	392.0	TrialHappiness	Gain
249.03	1.974	n/a	779.622	43.0	2	-2.0	-2.0	23.4187	70.0	2.0	Certain	-9.25	4.9	2.77575	Yes	n/a	-14.1541950113379	n/a	n/a	392.0	TrialHappinessSliderResponse	Gain
253.041	3.103	4.012	783.008	43.0	2	-2.0	-2.0	23.4187	70.0	2.0	Certain	-9.25	4.9	2.77575	Yes	n/a	-14.1541950113379	n/a	n/a	n/a	ISIRate	Gain
256.167	3.0	0.023	786.134	44.0	2	-1.77	-0.88	23.1975	70.0	5.0	Outcome2	12.3	-1.77	0.0	No	2.0	-14.074829931972802	0.952	257.119	n/a	GetAnswer	Loss
257.137	4.0	0.018	787.104	44.0	2	-1.77	-0.88	23.1975	70.0	5.0	Outcome2	12.3	-1.77	0.0	No	n/a	-14.074829931972802	n/a	n/a	n/a	ShowChoice	Loss
261.149	1.0	0.012	791.116	44.0	2	-1.77	-0.88	23.1975	70.0	5.0	Outcome2	12.3	-1.77	0.0	No	n/a	-14.074829931972802	n/a	n/a	n/a	ShowResult	Loss
262.169	2.42	0.02	792.136	44.0	2	-1.77	-0.88	23.1975	70.0	5.0	Outcome2	12.3	-1.77	0.0	No	n/a	-14.074829931972802	n/a	n/a	n/a	ISITrial	Loss
264.609	3.0	0.02	794.576	45.0	2	-5.14	2.0	22.555	70.0	2.48	Outcome1	-5.14	9.3	0.0	No	2.0	-14.4399092970522	0.725	265.334	n/a	GetAnswer	Gain
265.361	4.0	0.027	795.328	45.0	2	-5.14	2.0	22.555	70.0	2.48	Outcome1	-5.14	9.3	0.0	No	n/a	-14.4399092970522	n/a	n/a	n/a	ShowChoice	Gain
269.373	1.0	0.012	799.34	45.0	2	-5.14	2.0	22.555	70.0	2.48	Outcome1	-5.14	9.3	0.0	No	n/a	-14.4399092970522	n/a	n/a	n/a	ShowResult	Gain
270.393	3.144	0.02	800.36	45.0	2	-5.14	2.0	22.555	70.0	2.48	Outcome1	-5.14	9.3	0.0	No	n/a	-14.4399092970522	n/a	n/a	n/a	ISITrial	Gain
273.553	3.0	0.016	803.52	46.0	2	-1.85	-1.85	22.3238	70.0	2.22	Certain	-3.7	11.1	3.84125	Yes	4.0	-14.8049886621315	1.45	275.003	n/a	GetAnswer	Loss
275.024	4.0	0.021	804.991	46.0	2	-1.85	-1.85	22.3238	70.0	2.22	Certain	-3.7	11.1	3.84125	Yes	n/a	-14.8049886621315	n/a	n/a	n/a	ShowChoice	Loss
279.036	1.0	0.012	809.003	46.0	2	-1.85	-1.85	22.3238	70.0	2.22	Certain	-3.7	11.1	3.84125	Yes	n/a	-14.8049886621315	n/a	n/a	n/a	ShowResult	Loss
280.055	2.246	0.019	810.022	46.0	2	-1.85	-1.85	22.3238	70.0	2.22	Certain	-3.7	11.1	3.84125	Yes	n/a	-14.8049886621315	n/a	n/a	n/a	ISITrial	Loss
282.312	3.841	0.011	812.279	46.0	2	-1.85	-1.85	22.3238	70.0	2.22	Certain	-3.7	11.1	3.84125	Yes	n/a	-14.8049886621315	n/a	n/a	n/a	TrialHappPreview	Loss
286.174	4.012	0.021	816.141	46.0	2	-1.85	-1.85	22.3238	70.0	2.22	Certain	-3.7	11.1	3.84125	Yes	n/a	-14.8049886621315	n/a	n/a	364.0	TrialHappiness	Loss
286.174	1.78	n/a	816.659	46.0	2	-1.85	-1.85	22.3238	70.0	2.22	Certain	-3.7	11.1	3.84125	Yes	n/a	-14.8049886621315	n/a	n/a	364.0	TrialHappinessSliderResponse	Loss
290.186	7.365	4.012	820.153	46.0	2	-1.85	-1.85	22.3238	70.0	2.22	Certain	-3.7	11.1	3.84125	Yes	n/a	-14.8049886621315	n/a	n/a	n/a	ISIRate	Loss
297.575	3.0	0.024	827.542	47.0	2	0.0	0.0	22.3238	70.0	1.5	Certain	-1.48	0.52	0.0	No	4.0	2.00226757369615	2.951	300.526	n/a	GetAnswer	Mixed
300.55	4.0	0.024	830.517	47.0	2	0.0	0.0	22.3238	70.0	1.5	Certain	-1.48	0.52	0.0	No	n/a	2.00226757369615	n/a	n/a	n/a	ShowChoice	Mixed
304.562	1.0	0.012	834.529	47.0	2	0.0	0.0	22.3238	70.0	1.5	Certain	-1.48	0.52	0.0	No	n/a	2.00226757369615	n/a	n/a	n/a	ShowResult	Mixed
305.582	2.0	0.02	835.549	47.0	2	0.0	0.0	22.3238	70.0	1.5	Certain	-1.48	0.52	0.0	No	n/a	2.00226757369615	n/a	n/a	n/a	ISITrial	Mixed
307.605	3.0	0.023	837.572	48.0	2	-4.53	-2.26	21.7576	70.0	1.68	Outcome1	-4.53	10.5	2.83175	Yes	2.0	-15.0272108843537	1.122	308.727	n/a	GetAnswer	Loss
308.741	4.0	0.014	838.708	48.0	2	-4.53	-2.26	21.7576	70.0	1.68	Outcome1	-4.53	10.5	2.83175	Yes	n/a	-15.0272108843537	n/a	n/a	n/a	ShowChoice	Loss
312.753	1.0	0.012	842.72	48.0	2	-4.53	-2.26	21.7576	70.0	1.68	Outcome1	-4.53	10.5	2.83175	Yes	n/a	-15.0272108843537	n/a	n/a	n/a	ShowResult	Loss
313.773	3.692	0.02	843.74	48.0	2	-4.53	-2.26	21.7576	70.0	1.68	Outcome1	-4.53	10.5	2.83175	Yes	n/a	-15.0272108843537	n/a	n/a	n/a	ISITrial	Loss
317.484	2.832	0.019	847.451	48.0	2	-4.53	-2.26	21.7576	70.0	1.68	Outcome1	-4.53	10.5	2.83175	Yes	n/a	-15.0272108843537	n/a	n/a	n/a	TrialHappPreview	Loss
320.343	4.012	0.027	850.31	48.0	2	-4.53	-2.26	21.7576	70.0	1.68	Outcome1	-4.53	10.5	2.83175	Yes	n/a	-15.0272108843537	n/a	n/a	428.0	TrialHappiness	Loss
320.343	1.584	n/a	850.782	48.0	2	-4.53	-2.26	21.7576	70.0	1.68	Outcome1	-4.53	10.5	2.83175	Yes	n/a	-15.0272108843537	n/a	n/a	428.0	TrialHappinessSliderResponse	Loss
324.355	3.327	4.012	854.322	48.0	2	-4.53	-2.26	21.7576	70.0	1.68	Outcome1	-4.53	10.5	2.83175	Yes	n/a	-15.0272108843537	n/a	n/a	n/a	ISIRate	Loss
327.698	3.0	0.016	857.665	49.0	2	-12.35	-4.0	20.2138	70.0	1.5	Outcome1	-12.35	4.1	0.0	No	2.0	-16.448979591836697	2.607	330.305	n/a	GetAnswer	Mixed
330.323	4.0	0.018	860.29	49.0	2	-12.35	-4.0	20.2138	70.0	1.5	Outcome1	-12.35	4.1	0.0	No	n/a	-16.448979591836697	n/a	n/a	n/a	ShowChoice	Mixed
334.335	1.0	0.012	864.302	49.0	2	-12.35	-4.0	20.2138	70.0	1.5	Outcome1	-12.35	4.1	0.0	No	n/a	-16.448979591836697	n/a	n/a	n/a	ShowResult	Mixed
335.354	8.0	0.019	865.321	49.0	2	-12.35	-4.0	20.2138	70.0	1.5	Outcome1	-12.35	4.1	0.0	No	n/a	-16.448979591836697	n/a	n/a	n/a	ISITrial	Mixed
343.378	3.0	0.024	873.345	50.0	2	-6.0	-6.0	19.4638	70.0	1.0	Certain	-15.15	1.7	3.54725	Yes	4.0	-16.8548752834467	1.681	345.059	n/a	GetAnswer	Mixed
345.083	4.0	0.024	875.05	50.0	2	-6.0	-6.0	19.4638	70.0	1.0	Certain	-15.15	1.7	3.54725	Yes	n/a	-16.8548752834467	n/a	n/a	n/a	ShowChoice	Mixed
349.095	1.0	0.012	879.062	50.0	2	-6.0	-6.0	19.4638	70.0	1.0	Certain	-15.15	1.7	3.54725	Yes	n/a	-16.8548752834467	n/a	n/a	n/a	ShowResult	Mixed
350.115	7.537	0.02	880.082	50.0	2	-6.0	-6.0	19.4638	70.0	1.0	Certain	-15.15	1.7	3.54725	Yes	n/a	-16.8548752834467	n/a	n/a	n/a	ISITrial	Mixed
357.671	3.547	0.019	887.638	50.0	2	-6.0	-6.0	19.4638	70.0	1.0	Certain	-15.15	1.7	3.54725	Yes	n/a	-16.8548752834467	n/a	n/a	n/a	TrialHappPreview	Mixed
361.248	4.012	0.03	891.215	50.0	2	-6.0	-6.0	19.4638	70.0	1.0	Certain	-15.15	1.7	3.54725	Yes	n/a	-16.8548752834467	n/a	n/a	468.0	TrialHappiness	Mixed
361.249	2.348	n/a	891.865	50.0	2	-6.0	-6.0	19.4638	70.0	1.0	Certain	-15.15	1.7	3.54725	Yes	n/a	-16.8548752834467	n/a	n/a	468.0	TrialHappinessSliderResponse	Mixed
365.26	6.189	4.012	895.227	50.0	2	-6.0	-6.0	19.4638	70.0	1.0	Certain	-15.15	1.7	3.54725	Yes	n/a	-16.8548752834467	n/a	n/a	n/a	ISIRate	Mixed
371.479	3.0	0.03	901.446	51.0	2	0.12	-1.0	19.4788	70.0	0.2	Outcome1	0.12	-2.43	0.0	No	2.0	2.54799697656841	0.948	372.427	n/a	GetAnswer	Mixed
372.449	4.0	0.022	902.416	51.0	2	0.12	-1.0	19.4788	70.0	0.2	Outcome1	0.12	-2.43	0.0	No	n/a	2.54799697656841	n/a	n/a	n/a	ShowChoice	Mixed
376.461	1.0	0.012	906.428	51.0	2	0.12	-1.0	19.4788	70.0	0.2	Outcome1	0.12	-2.43	0.0	No	n/a	2.54799697656841	n/a	n/a	n/a	ShowResult	Mixed
377.48	5.508	0.019	907.447	51.0	2	0.12	-1.0	19.4788	70.0	0.2	Outcome1	0.12	-2.43	0.0	No	n/a	2.54799697656841	n/a	n/a	n/a	ISITrial	Mixed
383.014	3.0	0.026	912.981	52.0	2	2.0	2.0	19.7288	70.0	3.16	Certain	11.7	-6.69	0.0	No	4.0	-18.392290249433103	0.648	383.662	n/a	GetAnswer	Loss
383.682	4.0	0.02	913.649	52.0	2	2.0	2.0	19.7288	70.0	3.16	Certain	11.7	-6.69	0.0	No	n/a	-18.392290249433103	n/a	n/a	n/a	ShowChoice	Loss
387.694	1.0	0.012	917.661	52.0	2	2.0	2.0	19.7288	70.0	3.16	Certain	11.7	-6.69	0.0	No	n/a	-18.392290249433103	n/a	n/a	n/a	ShowResult	Loss
388.714	5.913	0.02	918.681	52.0	2	2.0	2.0	19.7288	70.0	3.16	Certain	11.7	-6.69	0.0	No	n/a	-18.392290249433103	n/a	n/a	n/a	ISITrial	Loss
394.648	3.0	0.021	924.615	53.0	2	-13.74	-4.0	18.0113	70.0	2.22	Outcome1	-13.74	5.1	2.99675	Yes	2.0	-18.843537414966	2.176	396.824	n/a	GetAnswer	Gain
396.838	4.0	0.014	926.805	53.0	2	-13.74	-4.0	18.0113	70.0	2.22	Outcome1	-13.74	5.1	2.99675	Yes	n/a	-18.843537414966	n/a	n/a	n/a	ShowChoice	Gain
400.85	1.0	0.012	930.817	53.0	2	-13.74	-4.0	18.0113	70.0	2.22	Outcome1	-13.74	5.1	2.99675	Yes	n/a	-18.843537414966	n/a	n/a	n/a	ShowResult	Gain
401.87	3.66	0.02	931.837	53.0	2	-13.74	-4.0	18.0113	70.0	2.22	Outcome1	-13.74	5.1	2.99675	Yes	n/a	-18.843537414966	n/a	n/a	n/a	ISITrial	Gain
405.548	2.997	0.018	935.515	53.0	2	-13.74	-4.0	18.0113	70.0	2.22	Outcome1	-13.74	5.1	2.99675	Yes	n/a	-18.843537414966	n/a	n/a	n/a	TrialHappPreview	Gain
408.573	4.029	0.028	938.54	53.0	2	-13.74	-4.0	18.0113	70.0	2.22	Outcome1	-13.74	5.1	2.99675	Yes	n/a	-18.843537414966	n/a	n/a	568.0	TrialHappiness	Gain
408.574	3.132	n/a	939.063	53.0	2	-13.74	-4.0	18.0113	70.0	2.22	Outcome1	-13.74	5.1	2.99675	Yes	n/a	-18.843537414966	n/a	n/a	568.0	TrialHappinessSliderResponse	Gain
412.602	3.987	4.029	942.569	53.0	2	-13.74	-4.0	18.0113	70.0	2.22	Outcome1	-13.74	5.1	2.99675	Yes	n/a	-18.843537414966	n/a	n/a	n/a	ISIRate	Gain
416.614	3.0	0.025	946.581	54.0	2	2.42	1.0	18.3138	70.0	3.16	Outcome2	-0.65	2.42	0.0	No	2.0	3.06708238851096	1.494	418.108	n/a	GetAnswer	Gain
418.135	4.0	0.027	948.102	54.0	2	2.42	1.0	18.3138	70.0	3.16	Outcome2	-0.65	2.42	0.0	No	n/a	3.06708238851096	n/a	n/a	n/a	ShowChoice	Gain
422.147	1.0	0.012	952.114	54.0	2	2.42	1.0	18.3138	70.0	3.16	Outcome2	-0.65	2.42	0.0	No	n/a	3.06708238851096	n/a	n/a	n/a	ShowResult	Gain
423.167	8.0	0.02	953.134	54.0	2	2.42	1.0	18.3138	70.0	3.16	Outcome2	-0.65	2.42	0.0	No	n/a	3.06708238851096	n/a	n/a	n/a	ISITrial	Gain
469.991	0.245	n/a	1000.372	n/a	2	n/a	n/a	n/a	n/a	n/a	n/a	n/a	n/a	n/a	n/a	n/a	n/a	n/a	n/a	464.0	BlockStartHappinessSliderResponse	n/a
-46.239	-0.001	0.024	961.158	n/a	3	n/a	n/a	n/a	n/a	n/a	n/a	n/a	n/a	n/a	n/a	{SPACE}	n/a	34.764	-11.475	n/a	Rest	n/a
-11.451	4.0	0.024	995.946	n/a	3	n/a	n/a	n/a	n/a	n/a	n/a	n/a	n/a	n/a	n/a	n/a	n/a	n/a	n/a	n/a	BlockHappyPreview	n/a
-7.439	0.659	0.012	999.958	n/a	3	n/a	n/a	n/a	n/a	n/a	n/a	n/a	n/a	n/a	n/a	4{-4}	n/a	0.659	-6.78	464.0	BlockStartHappiness	n/a
-1.505	-0.001	0.018	1005.892	n/a	3	n/a	n/a	n/a	n/a	n/a	n/a	n/a	n/a	n/a	n/a	5.0	n/a	1.482	-0.023	n/a	ScanWait	n/a
0.0	10.0	0.023	1007.397	n/a	3	n/a	n/a	n/a	n/a	n/a	n/a	n/a	n/a	n/a	n/a	n/a	n/a	n/a	n/a	n/a	GetReady	n/a
10.013	3.0	0.013	1017.41	55.0	3	8.11	4.06	19.3276	955.0	4.2	Outcome1	8.11	10.1	2.53325	Yes	2.0	-1.99254435636089	0.622	10.635	n/a	GetAnswer	Gain
10.648	4.0	0.013	1018.045	55.0	3	8.11	4.06	19.3276	955.0	4.2	Outcome1	8.11	10.1	2.53325	Yes	n/a	-1.99254435636089	n/a	n/a	n/a	ShowChoice	Gain
14.66	1.0	0.012	1022.057	55.0	3	8.11	4.06	19.3276	955.0	4.2	Outcome1	8.11	10.1	2.53325	Yes	n/a	-1.99254435636089	n/a	n/a	n/a	ShowResult	Gain
15.68	7.709	0.02	1023.077	55.0	3	8.11	4.06	19.3276	955.0	4.2	Outcome1	8.11	10.1	2.53325	Yes	n/a	-1.99254435636089	n/a	n/a	n/a	ISITrial	Gain
23.403	2.533	0.014	1030.8	55.0	3	8.11	4.06	19.3276	955.0	4.2	Outcome1	8.11	10.1	2.53325	Yes	n/a	-1.99254435636089	n/a	n/a	n/a	TrialHappPreview	Gain
25.961	4.012	0.025	1033.358	55.0	3	8.11	4.06	19.3276	955.0	4.2	Outcome1	8.11	10.1	2.53325	Yes	n/a	-1.99254435636089	n/a	n/a	780.0	TrialHappiness	Gain
25.961	2.581	n/a	1033.775	55.0	3	8.11	4.06	19.3276	955.0	4.2	Outcome1	8.11	10.1	2.53325	Yes	n/a	-1.99254435636089	n/a	n/a	780.0	TrialHappinessSliderResponse	Gain
29.973	2.133	4.012	1037.37	55.0	3	8.11	4.06	19.3276	955.0	4.2	Outcome1	8.11	10.1	2.53325	Yes	n/a	-1.99254435636089	n/a	n/a	n/a	ISIRate	Gain
32.129	3.0	0.023	1039.526	56.0	3	-1.26	-1.0	19.1701	955.0	0.82	Outcome2	-0.5	-1.26	0.0	No	2.0	-0.756511891279728	0.829	32.958	n/a	GetAnswer	Mixed
32.982	4.0	0.024	1040.379	56.0	3	-1.26	-1.0	19.1701	955.0	0.82	Outcome2	-0.5	-1.26	0.0	No	n/a	-0.756511891279728	n/a	n/a	n/a	ShowChoice	Mixed
36.994	1.0	0.012	1044.391	56.0	3	-1.26	-1.0	19.1701	955.0	0.82	Outcome2	-0.5	-1.26	0.0	No	n/a	-0.756511891279728	n/a	n/a	n/a	ShowResult	Mixed
38.013	4.697	0.019	1045.41	56.0	3	-1.26	-1.0	19.1701	955.0	0.82	Outcome2	-0.5	-1.26	0.0	No	n/a	-0.756511891279728	n/a	n/a	n/a	ISITrial	Mixed
42.727	3.0	0.017	1050.124	57.0	3	8.7	2.48	20.2576	955.0	1.82	Outcome1	8.7	4.97	0.0	No	2.0	3.72706681766704	0.906	43.633	n/a	GetAnswer	Gain
43.647	4.0	0.014	1051.044	57.0	3	8.7	2.48	20.2576	955.0	1.82	Outcome1	8.7	4.97	0.0	No	n/a	3.72706681766704	n/a	n/a	n/a	ShowChoice	Gain
47.659	1.0	0.012	1055.056	57.0	3	8.7	2.48	20.2576	955.0	1.82	Outcome1	8.7	4.97	0.0	No	n/a	3.72706681766704	n/a	n/a	n/a	ShowResult	Gain
48.679	4.291	0.02	1056.076	57.0	3	8.7	2.48	20.2576	955.0	1.82	Outcome1	8.7	4.97	0.0	No	n/a	3.72706681766704	n/a	n/a	n/a	ISITrial	Gain
52.992	3.0	0.022	1060.389	58.0	3	12.9	4.49	21.8701	955.0	2.0	Outcome1	12.9	8.97	3.04575	Yes	2.0	3.92525481313703	0.624	53.616	n/a	GetAnswer	Loss
53.643	4.0	0.027	1061.04	58.0	3	12.9	4.49	21.8701	955.0	2.0	Outcome1	12.9	8.97	3.04575	Yes	n/a	3.92525481313703	n/a	n/a	n/a	ShowChoice	Loss
57.655	1.0	0.012	1065.052	58.0	3	12.9	4.49	21.8701	955.0	2.0	Outcome1	12.9	8.97	3.04575	Yes	n/a	3.92525481313703	n/a	n/a	n/a	ShowResult	Loss
58.675	2.037	0.02	1066.072	58.0	3	12.9	4.49	21.8701	955.0	2.0	Outcome1	12.9	8.97	3.04575	Yes	n/a	3.92525481313703	n/a	n/a	n/a	ISITrial	Loss
60.731	3.046	0.019	1068.128	58.0	3	12.9	4.49	21.8701	955.0	2.0	Outcome1	12.9	8.97	3.04575	Yes	n/a	3.92525481313703	n/a	n/a	n/a	TrialHappPreview	Loss
63.807	4.012	0.03	1071.204	58.0	3	12.9	4.49	21.8701	955.0	2.0	Outcome1	12.9	8.97	3.04575	Yes	n/a	3.92525481313703	n/a	n/a	800.0	TrialHappiness	Loss
63.808	2.533	n/a	1071.814	58.0	3	12.9	4.49	21.8701	955.0	2.0	Outcome1	12.9	8.97	3.04575	Yes	n/a	3.92525481313703	n/a	n/a	800.0	TrialHappinessSliderResponse	Loss
67.819	4.183	4.012	1075.216	58.0	3	12.9	4.49	21.8701	955.0	2.0	Outcome1	12.9	8.97	3.04575	Yes	n/a	3.92525481313703	n/a	n/a	n/a	ISIRate	Loss
72.032	3.0	0.03	1079.429	59.0	3	6.78	3.39	22.7176	955.0	2.8	Outcome1	6.78	7.5	0.0	No	2.0	-0.724896187240468	0.683	72.715	n/a	GetAnswer	Gain
72.734	4.0	0.019	1080.131	59.0	3	6.78	3.39	22.7176	955.0	2.8	Outcome1	6.78	7.5	0.0	No	n/a	-0.724896187240468	n/a	n/a	n/a	ShowChoice	Gain
76.746	1.0	0.012	1084.143	59.0	3	6.78	3.39	22.7176	955.0	2.8	Outcome1	6.78	7.5	0.0	No	n/a	-0.724896187240468	n/a	n/a	n/a	ShowResult	Gain
77.766	5.064	0.02	1085.163	59.0	3	6.78	3.39	22.7176	955.0	2.8	Outcome1	6.78	7.5	0.0	No	n/a	-0.724896187240468	n/a	n/a	n/a	ISITrial	Gain
82.848	3.0	0.018	1090.245	60.0	3	3.1	1.0	23.1051	955.0	0.52	Outcome2	-0.86	3.1	3.5625	Yes	2.0	3.95922989807474	0.481	83.329	n/a	GetAnswer	Mixed
83.349	4.0	0.019	1090.746	60.0	3	3.1	1.0	23.1051	955.0	0.52	Outcome2	-0.86	3.1	3.5625	Yes	n/a	3.95922989807474	n/a	n/a	n/a	ShowChoice	Mixed
87.361	1.0	0.012	1094.758	60.0	3	3.1	1.0	23.1051	955.0	0.52	Outcome2	-0.86	3.1	3.5625	Yes	n/a	3.95922989807474	n/a	n/a	n/a	ShowResult	Mixed
88.381	8.0	0.02	1095.778	60.0	3	3.1	1.0	23.1051	955.0	0.52	Outcome2	-0.86	3.1	3.5625	Yes	n/a	3.95922989807474	n/a	n/a	n/a	ISITrial	Mixed
96.405	3.562	0.024	1103.802	60.0	3	3.1	1.0	23.1051	955.0	0.52	Outcome2	-0.86	3.1	3.5625	Yes	n/a	3.95922989807474	n/a	n/a	n/a	TrialHappPreview	Mixed
99.982	4.012	0.015	1107.379	60.0	3	3.1	1.0	23.1051	955.0	0.52	Outcome2	-0.86	3.1	3.5625	Yes	n/a	3.95922989807474	n/a	n/a	768.0	TrialHappiness	Mixed
99.983	0.674	n/a	1107.782	60.0	3	3.1	1.0	23.1051	955.0	0.52	Outcome2	-0.86	3.1	3.5625	Yes	n/a	3.95922989807474	n/a	n/a	768.0	TrialHappinessSliderResponse	Mixed
103.994	6.25	4.012	1111.391	60.0	3	3.1	1.0	23.1051	955.0	0.52	Outcome2	-0.86	3.1	3.5625	Yes	n/a	3.95922989807474	n/a	n/a	n/a	ISIRate	Mixed
110.263	3.0	0.019	1117.66	61.0	3	-1.5	-4.0	22.9176	955.0	0.2	Outcome2	-6.18	-1.5	0.0	No	2.0	4.678369195922991	0.968	111.231	n/a	GetAnswer	Mixed
111.249	4.0	0.018	1118.646	61.0	3	-1.5	-4.0	22.9176	955.0	0.2	Outcome2	-6.18	-1.5	0.0	No	n/a	4.678369195922991	n/a	n/a	n/a	ShowChoice	Mixed
115.261	1.0	0.012	1122.658	61.0	3	-1.5	-4.0	22.9176	955.0	0.2	Outcome2	-6.18	-1.5	0.0	No	n/a	4.678369195922991	n/a	n/a	n/a	ShowResult	Mixed
116.281	4.586	0.02	1123.678	61.0	3	-1.5	-4.0	22.9176	955.0	0.2	Outcome2	-6.18	-1.5	0.0	No	n/a	4.678369195922991	n/a	n/a	n/a	ISITrial	Mixed
120.895	3.0	0.028	1128.292	62.0	3	10.7	2.9	24.2551	955.0	1.82	Outcome1	10.7	5.81	3.74875	Yes	2.0	4.890147225368059	0.721	121.616	n/a	GetAnswer	Loss
121.63	4.0	0.014	1129.027	62.0	3	10.7	2.9	24.2551	955.0	1.82	Outcome1	10.7	5.81	3.74875	Yes	n/a	4.890147225368059	n/a	n/a	n/a	ShowChoice	Loss
125.642	1.0	0.012	1133.039	62.0	3	10.7	2.9	24.2551	955.0	1.82	Outcome1	10.7	5.81	3.74875	Yes	n/a	4.890147225368059	n/a	n/a	n/a	ShowResult	Loss
126.662	5.212	0.02	1134.059	62.0	3	10.7	2.9	24.2551	955.0	1.82	Outcome1	10.7	5.81	3.74875	Yes	n/a	4.890147225368059	n/a	n/a	n/a	ISITrial	Loss
131.894	3.749	0.02	1139.291	62.0	3	10.7	2.9	24.2551	955.0	1.82	Outcome1	10.7	5.81	3.74875	Yes	n/a	4.890147225368059	n/a	n/a	n/a	TrialHappPreview	Loss
135.672	4.012	0.029	1143.069	62.0	3	10.7	2.9	24.2551	955.0	1.82	Outcome1	10.7	5.81	3.74875	Yes	2{-2}2{-2}2{-2}2{-2}2{-2}	4.890147225368059	2.842	138.514	864.0	TrialHappiness	Loss
135.673	2.236	n/a	1143.676	62.0	3	10.7	2.9	24.2551	955.0	1.82	Outcome1	10.7	5.81	3.74875	Yes	n/a	4.890147225368059	n/a	n/a	864.0	TrialHappinessSliderResponse	Loss
139.684	6.995	4.012	1147.081	62.0	3	10.7	2.9	24.2551	955.0	1.82	Outcome1	10.7	5.81	3.74875	Yes	n/a	4.890147225368059	n/a	n/a	n/a	ISIRate	Loss
146.705	3.0	0.026	1154.102	63.0	3	6.3	1.42	25.0426	955.0	5.0	Outcome1	6.3	2.83	0.0	No	2.0	3.47112117780294	0.601	147.306	n/a	GetAnswer	Gain
147.324	4.0	0.018	1154.721	63.0	3	6.3	1.42	25.0426	955.0	5.0	Outcome1	6.3	2.83	0.0	No	n/a	3.47112117780294	n/a	n/a	n/a	ShowChoice	Gain
151.336	1.0	0.012	1158.733	63.0	3	6.3	1.42	25.0426	955.0	5.0	Outcome1	6.3	2.83	0.0	No	n/a	3.47112117780294	n/a	n/a	n/a	ShowResult	Gain
152.356	5.595	0.02	1159.753	63.0	3	6.3	1.42	25.0426	955.0	5.0	Outcome1	6.3	2.83	0.0	No	n/a	3.47112117780294	n/a	n/a	n/a	ISITrial	Gain
157.972	3.0	0.021	1165.369	64.0	3	1.36	1.0	25.2126	955.0	1.2	Outcome1	1.36	1.9	0.0	No	2.0	-0.538316345790864	0.72	158.692	n/a	GetAnswer	Mixed
158.708	4.0	0.016	1166.105	64.0	3	1.36	1.0	25.2126	955.0	1.2	Outcome1	1.36	1.9	0.0	No	n/a	-0.538316345790864	n/a	n/a	n/a	ShowChoice	Mixed
162.72	1.0	0.012	1170.117	64.0	3	1.36	1.0	25.2126	955.0	1.2	Outcome1	1.36	1.9	0.0	No	n/a	-0.538316345790864	n/a	n/a	n/a	ShowResult	Mixed
163.74	5.47	0.02	1171.137	64.0	3	1.36	1.0	25.2126	955.0	1.2	Outcome1	1.36	1.9	0.0	No	n/a	-0.538316345790864	n/a	n/a	n/a	ISITrial	Mixed
169.239	3.0	0.029	1176.636	65.0	3	7.9	2.11	26.2001	955.0	3.6	Outcome1	7.9	4.22	2.99675	Yes	2.0	3.67723669309173	1.246	170.485	n/a	GetAnswer	Gain
170.51	4.0	0.025	1177.907	65.0	3	7.9	2.11	26.2001	955.0	3.6	Outcome1	7.9	4.22	2.99675	Yes	n/a	3.67723669309173	n/a	n/a	n/a	ShowChoice	Gain
174.522	1.0	0.012	1181.919	65.0	3	7.9	2.11	26.2001	955.0	3.6	Outcome1	7.9	4.22	2.99675	Yes	n/a	3.67723669309173	n/a	n/a	n/a	ShowResult	Gain
175.542	3.344	0.02	1182.939	65.0	3	7.9	2.11	26.2001	955.0	3.6	Outcome1	7.9	4.22	2.99675	Yes	n/a	3.67723669309173	n/a	n/a	n/a	ISITrial	Gain
178.902	2.997	0.016	1186.299	65.0	3	7.9	2.11	26.2001	955.0	3.6	Outcome1	7.9	4.22	2.99675	Yes	n/a	3.67723669309173	n/a	n/a	n/a	TrialHappPreview	Gain
181.927	4.012	0.028	1189.324	65.0	3	7.9	2.11	26.2001	955.0	3.6	Outcome1	7.9	4.22	2.99675	Yes	n/a	3.67723669309173	n/a	n/a	860.0	TrialHappiness	Gain
181.928	2.625	n/a	1189.414	65.0	3	7.9	2.11	26.2001	955.0	3.6	Outcome1	7.9	4.22	2.99675	Yes	n/a	3.67723669309173	n/a	n/a	860.0	TrialHappinessSliderResponse	Gain
185.939	3.987	4.012	1193.336	65.0	3	7.9	2.11	26.2001	955.0	3.6	Outcome1	7.9	4.22	2.99675	Yes	n/a	3.67723669309173	n/a	n/a	n/a	ISIRate	Gain
189.951	3.0	0.025	1197.348	66.0	3	5.3	0.72	26.8626	955.0	2.48	Outcome1	5.3	1.45	0.0	No	2.0	3.8482446206115495	0.631	190.582	n/a	GetAnswer	Gain
190.603	4.0	0.021	1198.0	66.0	3	5.3	0.72	26.8626	955.0	2.48	Outcome1	5.3	1.45	0.0	No	n/a	3.8482446206115495	n/a	n/a	n/a	ShowChoice	Gain
194.615	1.0	0.012	1202.012	66.0	3	5.3	0.72	26.8626	955.0	2.48	Outcome1	5.3	1.45	0.0	No	n/a	3.8482446206115495	n/a	n/a	n/a	ShowResult	Gain
195.635	3.959	0.02	1203.032	66.0	3	5.3	0.72	26.8626	955.0	2.48	Outcome1	5.3	1.45	0.0	No	n/a	3.8482446206115495	n/a	n/a	n/a	ISITrial	Gain
199.614	3.0	0.02	1207.011	67.0	3	6.12	3.06	27.6276	955.0	1.82	Outcome2	6.7	6.12	2.9185	Yes	2.0	-0.580690826727067	0.738	200.352	n/a	GetAnswer	Gain
200.366	4.0	0.014	1207.763	67.0	3	6.12	3.06	27.6276	955.0	1.82	Outcome2	6.7	6.12	2.9185	Yes	n/a	-0.580690826727067	n/a	n/a	n/a	ShowChoice	Gain
204.378	1.0	0.012	1211.775	67.0	3	6.12	3.06	27.6276	955.0	1.82	Outcome2	6.7	6.12	2.9185	Yes	n/a	-0.580690826727067	n/a	n/a	n/a	ShowResult	Gain
205.398	4.199	0.02	1212.795	67.0	3	6.12	3.06	27.6276	955.0	1.82	Outcome2	6.7	6.12	2.9185	Yes	n/a	-0.580690826727067	n/a	n/a	n/a	ISITrial	Gain
209.61	2.918	0.013	1217.007	67.0	3	6.12	3.06	27.6276	955.0	1.82	Outcome2	6.7	6.12	2.9185	Yes	n/a	-0.580690826727067	n/a	n/a	n/a	TrialHappPreview	Gain
212.552	4.012	0.024	1219.949	67.0	3	6.12	3.06	27.6276	955.0	1.82	Outcome2	6.7	6.12	2.9185	Yes	n/a	-0.580690826727067	n/a	n/a	720.0	TrialHappiness	Gain
212.553	0.58	n/a	1220.397	67.0	3	6.12	3.06	27.6276	955.0	1.82	Outcome2	6.7	6.12	2.9185	Yes	n/a	-0.580690826727067	n/a	n/a	720.0	TrialHappinessSliderResponse	Gain
216.564	3.674	4.012	1223.961	67.0	3	6.12	3.06	27.6276	955.0	1.82	Outcome2	6.7	6.12	2.9185	Yes	n/a	-0.580690826727067	n/a	n/a	n/a	ISIRate	Gain
220.259	3.0	0.021	1227.656	68.0	3	12.7	3.13	29.2151	955.0	1.82	Outcome2	6.26	12.7	0.0	No	2.0	6.44167610419026	0.827	221.086	n/a	GetAnswer	Loss
221.111	4.0	0.025	1228.508	68.0	3	12.7	3.13	29.2151	955.0	1.82	Outcome2	6.26	12.7	0.0	No	n/a	6.44167610419026	n/a	n/a	n/a	ShowChoice	Loss
225.123	1.0	0.012	1232.52	68.0	3	12.7	3.13	29.2151	955.0	1.82	Outcome2	6.26	12.7	0.0	No	n/a	6.44167610419026	n/a	n/a	n/a	ShowResult	Loss
226.143	2.185	0.02	1233.54	68.0	3	12.7	3.13	29.2151	955.0	1.82	Outcome2	6.26	12.7	0.0	No	n/a	6.44167610419026	n/a	n/a	n/a	ISITrial	Loss
228.35	3.0	0.022	1235.747	69.0	3	0.3	-3.0	29.2526	955.0	2.0	Outcome1	0.3	-6.41	0.0	No	2.0	6.70781426953567	1.134	229.484	n/a	GetAnswer	Mixed
229.503	4.0	0.019	1236.9	69.0	3	0.3	-3.0	29.2526	955.0	2.0	Outcome1	0.3	-6.41	0.0	No	n/a	6.70781426953567	n/a	n/a	n/a	ShowChoice	Mixed
233.515	1.0	0.012	1240.912	69.0	3	0.3	-3.0	29.2526	955.0	2.0	Outcome1	0.3	-6.41	0.0	No	n/a	6.70781426953567	n/a	n/a	n/a	ShowResult	Mixed
234.535	2.0	0.02	1241.932	69.0	3	0.3	-3.0	29.2526	955.0	2.0	Outcome1	0.3	-6.41	0.0	No	n/a	6.70781426953567	n/a	n/a	n/a	ISITrial	Mixed
236.558	3.0	0.023	1243.955	70.0	3	-0.1	-3.0	29.2401	955.0	1.2	Outcome1	-0.1	-7.07	3.65125	Yes	2.0	6.97395243488109	0.558	237.116	n/a	GetAnswer	Mixed
237.143	4.0	0.026	1244.54	70.0	3	-0.1	-3.0	29.2401	955.0	1.2	Outcome1	-0.1	-7.07	3.65125	Yes	n/a	6.97395243488109	n/a	n/a	n/a	ShowChoice	Mixed
241.155	1.0	0.012	1248.552	70.0	3	-0.1	-3.0	29.2401	955.0	1.2	Outcome1	-0.1	-7.07	3.65125	Yes	n/a	6.97395243488109	n/a	n/a	n/a	ShowResult	Mixed
242.174	2.623	0.019	1249.571	70.0	3	-0.1	-3.0	29.2401	955.0	1.2	Outcome1	-0.1	-7.07	3.65125	Yes	n/a	6.97395243488109	n/a	n/a	n/a	ISITrial	Mixed
244.816	3.651	0.019	1252.213	70.0	3	-0.1	-3.0	29.2401	955.0	1.2	Outcome1	-0.1	-7.07	3.65125	Yes	n/a	6.97395243488109	n/a	n/a	n/a	TrialHappPreview	Mixed
248.493	4.029	0.026	1255.89	70.0	3	-0.1	-3.0	29.2401	955.0	1.2	Outcome1	-0.1	-7.07	3.65125	Yes	2{-2}	6.97395243488109	1.394	249.887	736.0	TrialHappiness	Mixed
248.494	0.613	n/a	1256.672	70.0	3	-0.1	-3.0	29.2401	955.0	1.2	Outcome1	-0.1	-7.07	3.65125	Yes	n/a	6.97395243488109	n/a	n/a	736.0	TrialHappinessSliderResponse	Mixed
252.522	6.605	4.029	1259.919	70.0	3	-0.1	-3.0	29.2401	955.0	1.2	Outcome1	-0.1	-7.07	3.65125	Yes	n/a	6.97395243488109	n/a	n/a	n/a	ISIRate	Mixed
259.159	3.0	0.032	1266.556	71.0	3	7.1	0.06	30.1276	955.0	2.22	Outcome1	7.1	0.13	0.0	No	2.0	6.9682899207248	0.65	259.809	n/a	GetAnswer	Gain
259.827	4.0	0.018	1267.224	71.0	3	7.1	0.06	30.1276	955.0	2.22	Outcome1	7.1	0.13	0.0	No	n/a	6.9682899207248	n/a	n/a	n/a	ShowChoice	Gain
263.839	1.0	0.012	1271.236	71.0	3	7.1	0.06	30.1276	955.0	2.22	Outcome1	7.1	0.13	0.0	No	n/a	6.9682899207248	n/a	n/a	n/a	ShowResult	Gain
264.859	5.499	0.02	1272.256	71.0	3	7.1	0.06	30.1276	955.0	2.22	Outcome1	7.1	0.13	0.0	No	n/a	6.9682899207248	n/a	n/a	n/a	ISITrial	Gain
270.376	3.0	0.018	1277.773	72.0	3	4.52	2.26	30.6926	955.0	3.16	Outcome1	4.52	5.7	3.0805	Yes	2.0	-1.18006795016988	0.861	271.237	n/a	GetAnswer	Gain
271.262	4.0	0.025	1278.659	72.0	3	4.52	2.26	30.6926	955.0	3.16	Outcome1	4.52	5.7	3.0805	Yes	n/a	-1.18006795016988	n/a	n/a	n/a	ShowChoice	Gain
275.274	1.0	0.012	1282.671	72.0	3	4.52	2.26	30.6926	955.0	3.16	Outcome1	4.52	5.7	3.0805	Yes	n/a	-1.18006795016988	n/a	n/a	n/a	ShowResult	Gain
276.293	5.672	0.019	1283.69	72.0	3	4.52	2.26	30.6926	955.0	3.16	Outcome1	4.52	5.7	3.0805	Yes	n/a	-1.18006795016988	n/a	n/a	n/a	ISITrial	Gain
281.977	3.08	0.012	1289.374	72.0	3	4.52	2.26	30.6926	955.0	3.16	Outcome1	4.52	5.7	3.0805	Yes	n/a	-1.18006795016988	n/a	n/a	n/a	TrialHappPreview	Gain
285.086	4.012	0.029	1292.483	72.0	3	4.52	2.26	30.6926	955.0	3.16	Outcome1	4.52	5.7	3.0805	Yes	n/a	-1.18006795016988	n/a	n/a	728.0	TrialHappiness	Gain
285.087	0.599	n/a	1293.531	72.0	3	4.52	2.26	30.6926	955.0	3.16	Outcome1	4.52	5.7	3.0805	Yes	n/a	-1.18006795016988	n/a	n/a	728.0	TrialHappinessSliderResponse	Gain
289.098	4.322	4.012	1296.495	72.0	3	4.52	2.26	30.6926	955.0	3.16	Outcome1	4.52	5.7	3.0805	Yes	n/a	-1.18006795016988	n/a	n/a	n/a	ISIRate	Gain
293.445	3.0	0.025	1300.842	73.0	3	13.9	3.15	32.4301	955.0	3.6	Outcome2	6.3	13.9	0.0	No	2.0	7.60022650056625	0.573	294.018	n/a	GetAnswer	Loss
294.046	4.0	0.028	1301.443	73.0	3	13.9	3.15	32.4301	955.0	3.6	Outcome2	6.3	13.9	0.0	No	n/a	7.60022650056625	n/a	n/a	n/a	ShowChoice	Loss
298.058	1.0	0.012	1305.455	73.0	3	13.9	3.15	32.4301	955.0	3.6	Outcome2	6.3	13.9	0.0	No	n/a	7.60022650056625	n/a	n/a	n/a	ShowResult	Loss
299.078	4.616	0.02	1306.475	73.0	3	13.9	3.15	32.4301	955.0	3.6	Outcome2	6.3	13.9	0.0	No	n/a	7.60022650056625	n/a	n/a	n/a	ISITrial	Loss
303.725	3.0	0.031	1311.122	74.0	3	2.05	2.0	32.6864	955.0	0.66	Outcome1	2.05	3.3	3.05625	Yes	2.0	-1.25462438656097	0.534	304.259	n/a	GetAnswer	Mixed
304.277	4.0	0.018	1311.674	74.0	3	2.05	2.0	32.6864	955.0	0.66	Outcome1	2.05	3.3	3.05625	Yes	n/a	-1.25462438656097	n/a	n/a	n/a	ShowChoice	Mixed
308.289	1.0	0.012	1315.686	74.0	3	2.05	2.0	32.6864	955.0	0.66	Outcome1	2.05	3.3	3.05625	Yes	n/a	-1.25462438656097	n/a	n/a	n/a	ShowResult	Mixed
309.309	3.909	0.02	1316.706	74.0	3	2.05	2.0	32.6864	955.0	0.66	Outcome1	2.05	3.3	3.05625	Yes	n/a	-1.25462438656097	n/a	n/a	n/a	ISITrial	Mixed
313.237	3.056	0.019	1320.634	74.0	3	2.05	2.0	32.6864	955.0	0.66	Outcome1	2.05	3.3	3.05625	Yes	n/a	-1.25462438656097	n/a	n/a	n/a	TrialHappPreview	Mixed
316.313	4.012	0.02	1323.71	74.0	3	2.05	2.0	32.6864	955.0	0.66	Outcome1	2.05	3.3	3.05625	Yes	2{-2}2{-2}2{-2}2{-2}2{-2}	-1.25462438656097	2.938	319.251	848.0	TrialHappiness	Mixed
316.314	2.34	n/a	1324.309	74.0	3	2.05	2.0	32.6864	955.0	0.66	Outcome1	2.05	3.3	3.05625	Yes	n/a	-1.25462438656097	n/a	n/a	848.0	TrialHappinessSliderResponse	Mixed
320.325	4.225	4.012	1327.722	74.0	3	2.05	2.0	32.6864	955.0	0.66	Outcome1	2.05	3.3	3.05625	Yes	n/a	-1.25462438656097	n/a	n/a	n/a	ISIRate	Mixed
324.571	3.0	0.021	1331.968	75.0	3	10.71	5.36	34.0252	955.0	2.8	Outcome1	10.71	11.5	0.0	No	2.0	-0.789071347678369	0.896	325.467	n/a	GetAnswer	Loss
325.491	4.0	0.024	1332.888	75.0	3	10.71	5.36	34.0252	955.0	2.8	Outcome1	10.71	11.5	0.0	No	n/a	-0.789071347678369	n/a	n/a	n/a	ShowChoice	Loss
329.503	1.0	0.012	1336.9	75.0	3	10.71	5.36	34.0252	955.0	2.8	Outcome1	10.71	11.5	0.0	No	n/a	-0.789071347678369	n/a	n/a	n/a	ShowResult	Loss
330.522	4.979	0.019	1337.919	75.0	3	10.71	5.36	34.0252	955.0	2.8	Outcome1	10.71	11.5	0.0	No	n/a	-0.789071347678369	n/a	n/a	n/a	ISITrial	Loss
335.521	3.0	0.02	1342.918	76.0	3	2.9	1.45	34.3877	955.0	1.0	Outcome1	2.9	3.7	0.0	No	2.0	-0.799169497923745	1.245	336.766	n/a	GetAnswer	Mixed
336.791	4.0	0.024	1344.188	76.0	3	2.9	1.45	34.3877	955.0	1.0	Outcome1	2.9	3.7	0.0	No	n/a	-0.799169497923745	n/a	n/a	n/a	ShowChoice	Mixed
340.803	1.0	0.012	1348.2	76.0	3	2.9	1.45	34.3877	955.0	1.0	Outcome1	2.9	3.7	0.0	No	n/a	-0.799169497923745	n/a	n/a	n/a	ShowResult	Mixed
341.823	3.931	0.02	1349.22	76.0	3	2.9	1.45	34.3877	955.0	1.0	Outcome1	2.9	3.7	0.0	No	n/a	-0.799169497923745	n/a	n/a	n/a	ISITrial	Mixed
345.785	3.0	0.031	1353.182	77.0	3	1.1	-2.0	34.5252	955.0	0.52	Outcome1	1.1	-5.22	4.0	Yes	2.0	6.31823329558324	0.533	346.318	n/a	GetAnswer	Mixed
346.336	4.0	0.018	1353.733	77.0	3	1.1	-2.0	34.5252	955.0	0.52	Outcome1	1.1	-5.22	4.0	Yes	n/a	6.31823329558324	n/a	n/a	n/a	ShowChoice	Mixed
350.348	1.0	0.012	1357.745	77.0	3	1.1	-2.0	34.5252	955.0	0.52	Outcome1	1.1	-5.22	4.0	Yes	n/a	6.31823329558324	n/a	n/a	n/a	ShowResult	Mixed
351.368	7.022	0.02	1358.765	77.0	3	1.1	-2.0	34.5252	955.0	0.52	Outcome1	1.1	-5.22	4.0	Yes	n/a	6.31823329558324	n/a	n/a	n/a	ISITrial	Mixed
358.406	4.0	0.016	1365.803	77.0	3	1.1	-2.0	34.5252	955.0	0.52	Outcome1	1.1	-5.22	4.0	Yes	n/a	6.31823329558324	n/a	n/a	n/a	TrialHappPreview	Mixed
362.434	4.012	0.028	1369.831	77.0	3	1.1	-2.0	34.5252	955.0	0.52	Outcome1	1.1	-5.22	4.0	Yes	n/a	6.31823329558324	n/a	n/a	816.0	TrialHappiness	Mixed
362.435	2.073	n/a	1370.159	77.0	3	1.1	-2.0	34.5252	955.0	0.52	Outcome1	1.1	-5.22	4.0	Yes	n/a	6.31823329558324	n/a	n/a	816.0	TrialHappinessSliderResponse	Mixed
366.446	8.0	4.012	1373.843	77.0	3	1.1	-2.0	34.5252	955.0	0.52	Outcome1	1.1	-5.22	4.0	Yes	n/a	6.31823329558324	n/a	n/a	n/a	ISIRate	Mixed
374.47	3.0	0.024	1381.867	78.0	3	8.1	0.56	35.5377	955.0	4.2	Outcome2	1.12	8.1	0.0	No	2.0	6.98301245753114	0.824	375.294	n/a	GetAnswer	Gain
375.306	4.0	0.012	1382.703	78.0	3	8.1	0.56	35.5377	955.0	4.2	Outcome2	1.12	8.1	0.0	No	n/a	6.98301245753114	n/a	n/a	n/a	ShowChoice	Gain
379.318	1.0	0.012	1386.715	78.0	3	8.1	0.56	35.5377	955.0	4.2	Outcome2	1.12	8.1	0.0	No	n/a	6.98301245753114	n/a	n/a	n/a	ShowResult	Gain
380.338	2.078	0.02	1387.735	78.0	3	8.1	0.56	35.5377	955.0	4.2	Outcome2	1.12	8.1	0.0	No	n/a	6.98301245753114	n/a	n/a	n/a	ISITrial	Gain
382.444	3.0	0.028	1389.841	79.0	3	11.5	2.18	36.9752	955.0	2.8	Outcome2	4.36	11.5	2.7295	Yes	2.0	7.14043035107588	0.797	383.241	n/a	GetAnswer	Loss
383.263	4.0	0.022	1390.66	79.0	3	11.5	2.18	36.9752	955.0	2.8	Outcome2	4.36	11.5	2.7295	Yes	n/a	7.14043035107588	n/a	n/a	n/a	ShowChoice	Loss
387.275	1.0	0.012	1394.672	79.0	3	11.5	2.18	36.9752	955.0	2.8	Outcome2	4.36	11.5	2.7295	Yes	n/a	7.14043035107588	n/a	n/a	n/a	ShowResult	Loss
388.295	3.829	0.02	1395.692	79.0	3	11.5	2.18	36.9752	955.0	2.8	Outcome2	4.36	11.5	2.7295	Yes	n/a	7.14043035107588	n/a	n/a	n/a	ISITrial	Loss
392.14	2.73	0.016	1399.537	79.0	3	11.5	2.18	36.9752	955.0	2.8	Outcome2	4.36	11.5	2.7295	Yes	n/a	7.14043035107588	n/a	n/a	n/a	TrialHappPreview	Loss
394.898	4.012	0.028	1402.295	79.0	3	11.5	2.18	36.9752	955.0	2.8	Outcome2	4.36	11.5	2.7295	Yes	n/a	7.14043035107588	n/a	n/a	812.0	TrialHappiness	Loss
394.899	2.171	n/a	1402.933	79.0	3	11.5	2.18	36.9752	955.0	2.8	Outcome2	4.36	11.5	2.7295	Yes	n/a	7.14043035107588	n/a	n/a	812.0	TrialHappinessSliderResponse	Loss
398.91	2.918	4.012	1406.307	79.0	3	11.5	2.18	36.9752	955.0	2.8	Outcome2	4.36	11.5	2.7295	Yes	n/a	7.14043035107588	n/a	n/a	n/a	ISIRate	Loss
401.852	3.0	0.024	1409.249	80.0	3	9.91	4.96	38.214	955.0	2.0	Outcome1	9.91	10.9	0.0	No	2.0	-0.991694979237448	0.621	402.473	n/a	GetAnswer	Loss
402.488	4.0	0.015	1409.885	80.0	3	9.91	4.96	38.214	955.0	2.0	Outcome1	9.91	10.9	0.0	No	n/a	-0.991694979237448	n/a	n/a	n/a	ShowChoice	Loss
406.5	1.0	0.012	1413.897	80.0	3	9.91	4.96	38.214	955.0	2.0	Outcome1	9.91	10.9	0.0	No	n/a	-0.991694979237448	n/a	n/a	n/a	ShowResult	Loss
407.519	3.336	0.019	1414.916	80.0	3	9.91	4.96	38.214	955.0	2.0	Outcome1	9.91	10.9	0.0	No	n/a	-0.991694979237448	n/a	n/a	n/a	ISITrial	Loss
410.879	3.0	0.024	1418.276	81.0	3	8.29	4.14	39.2503	955.0	2.48	Outcome1	8.29	9.3	3.92375	Yes	2.0	-1.00519063797659	0.506	411.385	n/a	GetAnswer	Gain
411.398	4.0	0.013	1418.795	81.0	3	8.29	4.14	39.2503	955.0	2.48	Outcome1	8.29	9.3	3.92375	Yes	n/a	-1.00519063797659	n/a	n/a	n/a	ShowChoice	Gain
415.41	1.0	0.012	1422.807	81.0	3	8.29	4.14	39.2503	955.0	2.48	Outcome1	8.29	9.3	3.92375	Yes	n/a	-1.00519063797659	n/a	n/a	n/a	ShowResult	Gain
416.429	3.919	0.019	1423.826	81.0	3	8.29	4.14	39.2503	955.0	2.48	Outcome1	8.29	9.3	3.92375	Yes	n/a	-1.00519063797659	n/a	n/a	n/a	ISITrial	Gain
420.375	3.924	0.027	1427.772	81.0	3	8.29	4.14	39.2503	955.0	2.48	Outcome1	8.29	9.3	3.92375	Yes	n/a	-1.00519063797659	n/a	n/a	n/a	TrialHappPreview	Gain
424.32	4.012	0.021	1431.717	81.0	3	8.29	4.14	39.2503	955.0	2.48	Outcome1	8.29	9.3	3.92375	Yes	n/a	-1.00519063797659	n/a	n/a	884.0	TrialHappiness	Gain
424.32	1.928	n/a	1432.069	81.0	3	8.29	4.14	39.2503	955.0	2.48	Outcome1	8.29	9.3	3.92375	Yes	n/a	-1.00519063797659	n/a	n/a	884.0	TrialHappinessSliderResponse	Gain
428.332	7.695	4.012	1435.729	81.0	3	8.29	4.14	39.2503	955.0	2.48	Outcome1	8.29	9.3	3.92375	Yes	n/a	-1.00519063797659	n/a	n/a	n/a	ISIRate	Gain
436.055	3.0	0.028	1443.452	n/a	3	n/a	n/a	n/a	n/a	n/a	n/a	n/a	n/a	n/a	n/a	n/a	n/a	n/a	n/a	n/a	CurrentEarnings	n/a
439.081	-0.001	0.026	1446.478	n/a	3	n/a	n/a	n/a	n/a	n/a	n/a	n/a	n/a	n/a	n/a	{SPACE}	n/a	20.139	459.22	n/a	Goodbye	n/a
