onset	duration	onset_delay	onset_unadjusted	trial_number	block	amount_change	certain_amount	current_amount	mood_target	multiplier	outcome	outcome1_amount	outcome2_amount	question_duration	rating	response	rpe	rt	rt_time	slider_response	trial_phase	trial_type
-46.305	-0.001	0.02	23.484	n/a	0	n/a	n/a	n/a	n/a	n/a	n/a	n/a	n/a	n/a	n/a	{SPACE}	n/a	4.145	-42.16	n/a	Welcome	n/a
-42.143	5.0	0.017	27.646	n/a	0	n/a	n/a	n/a	n/a	n/a	n/a	n/a	n/a	n/a	n/a	n/a	n/a	n/a	n/a	n/a	LifeHappyPreview	n/a
-37.111	1.362	0.032	32.678	n/a	0	n/a	n/a	n/a	n/a	n/a	n/a	n/a	n/a	n/a	n/a	n/a	n/a	n/a	n/a	888.0	LifeHappiness	n/a
-37.11	0.941	n/a	33.1	n/a	0	n/a	n/a	n/a	n/a	n/a	n/a	n/a	n/a	n/a	n/a	n/a	n/a	n/a	n/a	888.0	LifeHappinessSliderResponse	n/a
-19.893	4.0	0.02	49.896	n/a	0	n/a	n/a	n/a	n/a	n/a	n/a	n/a	n/a	n/a	n/a	n/a	n/a	n/a	n/a	n/a	BlockHappyPreview	n/a
-15.881	3.116	0.012	53.908	n/a	0	n/a	n/a	n/a	n/a	n/a	n/a	n/a	n/a	n/a	n/a	n/a	n/a	n/a	n/a	824.0	BlockStartHappiness	n/a
-15.88	2.046	n/a	54.979	n/a	0	n/a	n/a	n/a	n/a	n/a	n/a	n/a	n/a	n/a	n/a	n/a	n/a	n/a	n/a	824.0	BlockStartHappinessSliderResponse	n/a
-5.834	-0.001	0.023	63.955	n/a	0	n/a	n/a	n/a	n/a	n/a	n/a	n/a	n/a	n/a	n/a	5.0	n/a	5.818	-0.016	n/a	ScanWait	n/a
0.0	10.0	0.016	69.789	n/a	1	n/a	n/a	n/a	n/a	n/a	n/a	n/a	n/a	n/a	n/a	n/a	n/a	n/a	n/a	n/a	GetReady	n/a
10.03	3.0	0.03	79.819	1.0	1	2.5	1.0	10.3125	955.0	0.2	Outcome2	0.27	2.5	0.0	No	2.0	2.22536806342016	0.804	10.834	n/a	GetAnswer	Mixed
10.866	4.0	0.032	80.655	1.0	1	2.5	1.0	10.3125	955.0	0.2	Outcome2	0.27	2.5	0.0	No	n/a	2.22536806342016	n/a	n/a	n/a	ShowChoice	Mixed
14.894	1.0	0.028	84.683	1.0	1	2.5	1.0	10.3125	955.0	0.2	Outcome2	0.27	2.5	0.0	No	n/a	2.22536806342016	n/a	n/a	n/a	ShowResult	Mixed
15.914	2.431	0.02	85.703	1.0	1	2.5	1.0	10.3125	955.0	0.2	Outcome2	0.27	2.5	0.0	No	n/a	2.22536806342016	n/a	n/a	n/a	ISITrial	Mixed
18.371	3.0	0.026	88.16	2.0	1	12.5	5.07	11.875	955.0	1.68	Outcome2	10.13	12.5	0.0	No	2.0	2.37372593431484	0.951	19.322	n/a	GetAnswer	Loss
19.341	4.0	0.019	89.13	2.0	1	12.5	5.07	11.875	955.0	1.68	Outcome2	10.13	12.5	0.0	No	n/a	2.37372593431484	n/a	n/a	n/a	ShowChoice	Loss
23.353	1.0	0.012	93.142	2.0	1	12.5	5.07	11.875	955.0	1.68	Outcome2	10.13	12.5	0.0	No	n/a	2.37372593431484	n/a	n/a	n/a	ShowResult	Loss
24.373	4.568	0.02	94.162	2.0	1	12.5	5.07	11.875	955.0	1.68	Outcome2	10.13	12.5	0.0	No	n/a	2.37372593431484	n/a	n/a	n/a	ISITrial	Loss
28.97	3.0	0.029	98.759	3.0	1	10.3	3.89	13.1625	955.0	5.0	Outcome1	10.3	7.78	2.868	Yes	2.0	2.5220838052095096	0.798	29.768	n/a	GetAnswer	Gain
29.789	4.0	0.021	99.578	3.0	1	10.3	3.89	13.1625	955.0	5.0	Outcome1	10.3	7.78	2.868	Yes	n/a	2.5220838052095096	n/a	n/a	n/a	ShowChoice	Gain
33.818	1.0	0.029	103.607	3.0	1	10.3	3.89	13.1625	955.0	5.0	Outcome1	10.3	7.78	2.868	Yes	n/a	2.5220838052095096	n/a	n/a	n/a	ShowResult	Gain
34.837	3.243	0.019	104.626	3.0	1	10.3	3.89	13.1625	955.0	5.0	Outcome1	10.3	7.78	2.868	Yes	n/a	2.5220838052095096	n/a	n/a	n/a	ISITrial	Gain
38.097	2.868	0.017	107.886	3.0	1	10.3	3.89	13.1625	955.0	5.0	Outcome1	10.3	7.78	2.868	Yes	n/a	2.5220838052095096	n/a	n/a	n/a	TrialHappPreview	Gain
40.989	4.029	0.024	110.778	3.0	1	10.3	3.89	13.1625	955.0	5.0	Outcome1	10.3	7.78	2.868	Yes	n/a	2.5220838052095096	n/a	n/a	904.0	TrialHappiness	Gain
40.99	0.96	n/a	111.095	3.0	1	10.3	3.89	13.1625	955.0	5.0	Outcome1	10.3	7.78	2.868	Yes	n/a	2.5220838052095096	n/a	n/a	904.0	TrialHappinessSliderResponse	Gain
45.018	3.472	4.029	114.807	3.0	1	10.3	3.89	13.1625	955.0	5.0	Outcome1	10.3	7.78	2.868	Yes	n/a	2.5220838052095096	n/a	n/a	n/a	ISIRate	Gain
48.511	3.0	0.021	118.3	4.0	1	10.1	4.39	14.425	955.0	4.2	Outcome1	10.1	8.79	0.0	No	2.0	1.3114382785957	0.765	49.276	n/a	GetAnswer	Gain
49.297	4.0	0.021	119.086	4.0	1	10.1	4.39	14.425	955.0	4.2	Outcome1	10.1	8.79	0.0	No	n/a	1.3114382785957	n/a	n/a	n/a	ShowChoice	Gain
53.309	1.0	0.012	123.098	4.0	1	10.1	4.39	14.425	955.0	4.2	Outcome1	10.1	8.79	0.0	No	n/a	1.3114382785957	n/a	n/a	n/a	ShowResult	Gain
54.329	2.011	0.02	124.118	4.0	1	10.1	4.39	14.425	955.0	4.2	Outcome1	10.1	8.79	0.0	No	n/a	1.3114382785957	n/a	n/a	n/a	ISITrial	Gain
56.368	3.0	0.028	126.157	5.0	1	12.65	6.32	16.0062	955.0	2.0	Outcome1	12.65	12.9	2.5825	Yes	2.0	-0.248867497168743	1.436	57.804	n/a	GetAnswer	Loss
57.823	4.0	0.019	127.612	5.0	1	12.65	6.32	16.0062	955.0	2.0	Outcome1	12.65	12.9	2.5825	Yes	n/a	-0.248867497168743	n/a	n/a	n/a	ShowChoice	Loss
61.851	1.0	0.028	131.64	5.0	1	12.65	6.32	16.0062	955.0	2.0	Outcome1	12.65	12.9	2.5825	Yes	n/a	-0.248867497168743	n/a	n/a	n/a	ShowResult	Loss
62.871	5.129	0.02	132.66	5.0	1	12.65	6.32	16.0062	955.0	2.0	Outcome1	12.65	12.9	2.5825	Yes	n/a	-0.248867497168743	n/a	n/a	n/a	ISITrial	Loss
68.02	2.582	0.02	137.809	5.0	1	12.65	6.32	16.0062	955.0	2.0	Outcome1	12.65	12.9	2.5825	Yes	n/a	-0.248867497168743	n/a	n/a	n/a	TrialHappPreview	Loss
70.627	4.012	0.025	140.416	5.0	1	12.65	6.32	16.0062	955.0	2.0	Outcome1	12.65	12.9	2.5825	Yes	n/a	-0.248867497168743	n/a	n/a	928.0	TrialHappiness	Loss
70.628	1.018	n/a	140.759	5.0	1	12.65	6.32	16.0062	955.0	2.0	Outcome1	12.65	12.9	2.5825	Yes	n/a	-0.248867497168743	n/a	n/a	928.0	TrialHappinessSliderResponse	Loss
74.639	2.33	4.012	144.428	5.0	1	12.65	6.32	16.0062	955.0	2.0	Outcome1	12.65	12.9	2.5825	Yes	n/a	-0.248867497168743	n/a	n/a	n/a	ISIRate	Loss
76.996	3.0	0.027	146.785	6.0	1	0.54	0.0	16.0737	955.0	0.3	Outcome1	0.54	0.7	0.0	No	2.0	-0.156285390713477	0.988	77.984	n/a	GetAnswer	Mixed
77.999	4.0	0.015	147.788	6.0	1	0.54	0.0	16.0737	955.0	0.3	Outcome1	0.54	0.7	0.0	No	n/a	-0.156285390713477	n/a	n/a	n/a	ShowChoice	Mixed
82.011	1.0	0.012	151.8	6.0	1	0.54	0.0	16.0737	955.0	0.3	Outcome1	0.54	0.7	0.0	No	n/a	-0.156285390713477	n/a	n/a	n/a	ShowResult	Mixed
83.031	6.232	0.02	152.82	6.0	1	0.54	0.0	16.0737	955.0	0.3	Outcome1	0.54	0.7	0.0	No	n/a	-0.156285390713477	n/a	n/a	n/a	ISITrial	Mixed
89.283	3.0	0.02	159.072	7.0	1	13.9	6.42	17.8112	955.0	3.6	Outcome2	12.85	13.9	0.0	No	2.0	1.04983012457531	0.896	90.179	n/a	GetAnswer	Loss
90.203	4.0	0.024	159.992	7.0	1	13.9	6.42	17.8112	955.0	3.6	Outcome2	12.85	13.9	0.0	No	n/a	1.04983012457531	n/a	n/a	n/a	ShowChoice	Loss
94.215	1.0	0.012	164.004	7.0	1	13.9	6.42	17.8112	955.0	3.6	Outcome2	12.85	13.9	0.0	No	n/a	1.04983012457531	n/a	n/a	n/a	ShowResult	Loss
95.234	2.305	0.019	165.023	7.0	1	13.9	6.42	17.8112	955.0	3.6	Outcome2	12.85	13.9	0.0	No	n/a	1.04983012457531	n/a	n/a	n/a	ISITrial	Loss
97.558	3.0	0.019	167.347	8.0	1	0.14	0.0	17.8287	955.0	2.0	Outcome2	0.3	0.14	3.1125	Yes	2.0	-0.161381653454134	0.931	98.489	n/a	GetAnswer	Mixed
98.511	4.0	0.022	168.3	8.0	1	0.14	0.0	17.8287	955.0	2.0	Outcome2	0.3	0.14	3.1125	Yes	n/a	-0.161381653454134	n/a	n/a	n/a	ShowChoice	Mixed
102.523	1.0	0.012	172.312	8.0	1	0.14	0.0	17.8287	955.0	2.0	Outcome2	0.3	0.14	3.1125	Yes	n/a	-0.161381653454134	n/a	n/a	n/a	ShowResult	Mixed
103.542	3.506	0.019	173.331	8.0	1	0.14	0.0	17.8287	955.0	2.0	Outcome2	0.3	0.14	3.1125	Yes	n/a	-0.161381653454134	n/a	n/a	n/a	ISITrial	Mixed
107.07	3.112	0.022	176.859	8.0	1	0.14	0.0	17.8287	955.0	2.0	Outcome2	0.3	0.14	3.1125	Yes	n/a	-0.161381653454134	n/a	n/a	n/a	TrialHappPreview	Mixed
110.212	4.012	0.03	180.001	8.0	1	0.14	0.0	17.8287	955.0	2.0	Outcome2	0.3	0.14	3.1125	Yes	2{-2}	-0.161381653454134	1.361	111.573	920.0	TrialHappiness	Mixed
110.213	0.999	n/a	180.364	8.0	1	0.14	0.0	17.8287	955.0	2.0	Outcome2	0.3	0.14	3.1125	Yes	n/a	-0.161381653454134	n/a	n/a	920.0	TrialHappinessSliderResponse	Mixed
114.224	4.45	4.012	184.013	8.0	1	0.14	0.0	17.8287	955.0	2.0	Outcome2	0.3	0.14	3.1125	Yes	n/a	-0.161381653454134	n/a	n/a	n/a	ISIRate	Mixed
118.704	3.0	0.03	188.493	9.0	1	6.9	2.82	18.6912	955.0	2.0	Outcome1	6.9	5.65	0.0	No	2.0	1.24688561721404	1.006	119.71	n/a	GetAnswer	Gain
119.724	4.0	0.014	189.513	9.0	1	6.9	2.82	18.6912	955.0	2.0	Outcome1	6.9	5.65	0.0	No	n/a	1.24688561721404	n/a	n/a	n/a	ShowChoice	Gain
123.736	1.0	0.012	193.525	9.0	1	6.9	2.82	18.6912	955.0	2.0	Outcome1	6.9	5.65	0.0	No	n/a	1.24688561721404	n/a	n/a	n/a	ShowResult	Gain
124.756	2.0	0.02	194.545	9.0	1	6.9	2.82	18.6912	955.0	2.0	Outcome1	6.9	5.65	0.0	No	n/a	1.24688561721404	n/a	n/a	n/a	ISITrial	Gain
126.778	3.0	0.022	196.567	10.0	1	1.0	1.0	18.8162	955.0	1.0	Certain	0.41	1.7	4.0	Yes	4.0	1.28652321630804	2.126	128.904	n/a	GetAnswer	Mixed
128.918	4.0	0.014	198.707	10.0	1	1.0	1.0	18.8162	955.0	1.0	Certain	0.41	1.7	4.0	Yes	n/a	1.28652321630804	n/a	n/a	n/a	ShowChoice	Mixed
132.93	1.0	0.012	202.719	10.0	1	1.0	1.0	18.8162	955.0	1.0	Certain	0.41	1.7	4.0	Yes	n/a	1.28652321630804	n/a	n/a	n/a	ShowResult	Mixed
133.95	2.0	0.02	203.739	10.0	1	1.0	1.0	18.8162	955.0	1.0	Certain	0.41	1.7	4.0	Yes	n/a	1.28652321630804	n/a	n/a	n/a	ISITrial	Mixed
135.973	4.0	0.023	205.762	10.0	1	1.0	1.0	18.8162	955.0	1.0	Certain	0.41	1.7	4.0	Yes	n/a	1.28652321630804	n/a	n/a	n/a	TrialHappPreview	Mixed
140.001	4.012	0.028	209.79	10.0	1	1.0	1.0	18.8162	955.0	1.0	Certain	0.41	1.7	4.0	Yes	n/a	1.28652321630804	n/a	n/a	912.0	TrialHappiness	Mixed
140.002	0.974	n/a	210.227	10.0	1	1.0	1.0	18.8162	955.0	1.0	Certain	0.41	1.7	4.0	Yes	n/a	1.28652321630804	n/a	n/a	912.0	TrialHappinessSliderResponse	Mixed
144.013	8.0	4.012	213.802	10.0	1	1.0	1.0	18.8162	955.0	1.0	Certain	0.41	1.7	4.0	Yes	n/a	1.28652321630804	n/a	n/a	n/a	ISIRate	Mixed
152.037	3.0	0.024	221.826	11.0	1	12.7	5.62	20.4037	955.0	1.82	Outcome1	12.7	11.24	0.0	No	2.0	1.4620611551528897	0.329	152.366	n/a	GetAnswer	Loss
152.388	4.0	0.022	222.177	11.0	1	12.7	5.62	20.4037	955.0	1.82	Outcome1	12.7	11.24	0.0	No	n/a	1.4620611551528897	n/a	n/a	n/a	ShowChoice	Loss
156.4	1.0	0.012	226.189	11.0	1	12.7	5.62	20.4037	955.0	1.82	Outcome1	12.7	11.24	0.0	No	n/a	1.4620611551528897	n/a	n/a	n/a	ShowResult	Loss
157.42	3.324	0.02	227.209	11.0	1	12.7	5.62	20.4037	955.0	1.82	Outcome1	12.7	11.24	0.0	No	n/a	1.4620611551528897	n/a	n/a	n/a	ISITrial	Loss
160.763	3.0	0.019	230.552	12.0	1	-2.0	-2.0	20.1537	955.0	0.3	Certain	-2.81	-1.3	2.61875	Yes	4.0	1.51075877689694	2.138	162.901	n/a	GetAnswer	Mixed
162.92	4.0	0.019	232.709	12.0	1	-2.0	-2.0	20.1537	955.0	0.3	Certain	-2.81	-1.3	2.61875	Yes	n/a	1.51075877689694	n/a	n/a	n/a	ShowChoice	Mixed
166.932	1.0	0.012	236.721	12.0	1	-2.0	-2.0	20.1537	955.0	0.3	Certain	-2.81	-1.3	2.61875	Yes	n/a	1.51075877689694	n/a	n/a	n/a	ShowResult	Mixed
167.951	6.642	0.019	237.74	12.0	1	-2.0	-2.0	20.1537	955.0	0.3	Certain	-2.81	-1.3	2.61875	Yes	n/a	1.51075877689694	n/a	n/a	n/a	ISITrial	Mixed
174.605	2.619	0.012	244.394	12.0	1	-2.0	-2.0	20.1537	955.0	0.3	Certain	-2.81	-1.3	2.61875	Yes	n/a	1.51075877689694	n/a	n/a	n/a	TrialHappPreview	Mixed
177.246	4.012	0.022	247.035	12.0	1	-2.0	-2.0	20.1537	955.0	0.3	Certain	-2.81	-1.3	2.61875	Yes	n/a	1.51075877689694	n/a	n/a	920.0	TrialHappiness	Mixed
177.246	2.988	n/a	247.347	12.0	1	-2.0	-2.0	20.1537	955.0	0.3	Certain	-2.81	-1.3	2.61875	Yes	n/a	1.51075877689694	n/a	n/a	920.0	TrialHappinessSliderResponse	Mixed
181.258	2.475	4.012	251.047	12.0	1	-2.0	-2.0	20.1537	955.0	0.3	Certain	-2.81	-1.3	2.61875	Yes	n/a	1.51075877689694	n/a	n/a	n/a	ISIRate	Mixed
183.749	3.0	0.016	253.538	13.0	1	4.49	2.24	20.7149	955.0	1.82	Outcome1	4.49	4.7	0.0	No	2.0	-0.211117402793507	0.957	184.706	n/a	GetAnswer	Gain
184.718	4.0	0.012	254.507	13.0	1	4.49	2.24	20.7149	955.0	1.82	Outcome1	4.49	4.7	0.0	No	n/a	-0.211117402793507	n/a	n/a	n/a	ShowChoice	Gain
188.73	1.0	0.012	258.519	13.0	1	4.49	2.24	20.7149	955.0	1.82	Outcome1	4.49	4.7	0.0	No	n/a	-0.211117402793507	n/a	n/a	n/a	ShowResult	Gain
189.75	3.48	0.02	259.539	13.0	1	4.49	2.24	20.7149	955.0	1.82	Outcome1	4.49	4.7	0.0	No	n/a	-0.211117402793507	n/a	n/a	n/a	ISITrial	Gain
193.26	3.0	0.03	263.049	14.0	1	1.29	1.0	20.8761	955.0	0.82	Outcome1	1.29	1.5	0.0	No	2.0	-0.2144205360513399	1.023	194.283	n/a	GetAnswer	Mixed
194.297	4.0	0.013	264.086	14.0	1	1.29	1.0	20.8761	955.0	0.82	Outcome1	1.29	1.5	0.0	No	n/a	-0.2144205360513399	n/a	n/a	n/a	ShowChoice	Mixed
198.309	1.0	0.012	268.098	14.0	1	1.29	1.0	20.8761	955.0	0.82	Outcome1	1.29	1.5	0.0	No	n/a	-0.2144205360513399	n/a	n/a	n/a	ShowResult	Mixed
199.328	5.019	0.019	269.117	14.0	1	1.29	1.0	20.8761	955.0	0.82	Outcome1	1.29	1.5	0.0	No	n/a	-0.2144205360513399	n/a	n/a	n/a	ISITrial	Mixed
204.377	3.0	0.03	274.166	15.0	1	3.1	2.0	21.2636	955.0	0.52	Outcome1	3.1	1.6	3.3485	Yes	2.0	1.5028312570781397	1.685	206.062	n/a	GetAnswer	Mixed
206.082	4.0	0.02	275.871	15.0	1	3.1	2.0	21.2636	955.0	0.52	Outcome1	3.1	1.6	3.3485	Yes	n/a	1.5028312570781397	n/a	n/a	n/a	ShowChoice	Mixed
210.094	1.0	0.012	279.883	15.0	1	3.1	2.0	21.2636	955.0	0.52	Outcome1	3.1	1.6	3.3485	Yes	n/a	1.5028312570781397	n/a	n/a	n/a	ShowResult	Mixed
211.114	7.614	0.02	280.903	15.0	1	3.1	2.0	21.2636	955.0	0.52	Outcome1	3.1	1.6	3.3485	Yes	n/a	1.5028312570781397	n/a	n/a	n/a	ISITrial	Mixed
218.753	3.348	0.025	288.542	15.0	1	3.1	2.0	21.2636	955.0	0.52	Outcome1	3.1	1.6	3.3485	Yes	n/a	1.5028312570781397	n/a	n/a	n/a	TrialHappPreview	Mixed
222.13	4.012	0.029	291.919	15.0	1	3.1	2.0	21.2636	955.0	0.52	Outcome1	3.1	1.6	3.3485	Yes	n/a	1.5028312570781397	n/a	n/a	936.0	TrialHappiness	Mixed
222.131	2.035	n/a	292.166	15.0	1	3.1	2.0	21.2636	955.0	0.52	Outcome1	3.1	1.6	3.3485	Yes	n/a	1.5028312570781397	n/a	n/a	936.0	TrialHappinessSliderResponse	Mixed
226.142	5.394	4.012	295.931	15.0	1	3.1	2.0	21.2636	955.0	0.52	Outcome1	3.1	1.6	3.3485	Yes	n/a	1.5028312570781397	n/a	n/a	n/a	ISIRate	Mixed
231.558	3.0	0.022	301.347	16.0	1	8.74	4.37	22.3561	955.0	2.0	Outcome1	8.74	8.9	0.0	No	2.0	-0.1560966402416009	0.995	232.553	n/a	GetAnswer	Gain
232.578	4.0	0.025	302.367	16.0	1	8.74	4.37	22.3561	955.0	2.0	Outcome1	8.74	8.9	0.0	No	n/a	-0.1560966402416009	n/a	n/a	n/a	ShowChoice	Gain
236.59	1.0	0.012	306.379	16.0	1	8.74	4.37	22.3561	955.0	2.0	Outcome1	8.74	8.9	0.0	No	n/a	-0.1560966402416009	n/a	n/a	n/a	ShowResult	Gain
237.609	3.008	0.019	307.398	16.0	1	8.74	4.37	22.3561	955.0	2.0	Outcome1	8.74	8.9	0.0	No	n/a	-0.1560966402416009	n/a	n/a	n/a	ISITrial	Gain
240.635	3.0	0.018	310.424	17.0	1	13.1	5.9	23.9936	955.0	2.22	Outcome2	11.81	13.1	3.0415	Yes	2.0	1.29218573046433	1.113	241.748	n/a	GetAnswer	Loss
241.772	4.0	0.024	311.561	17.0	1	13.1	5.9	23.9936	955.0	2.22	Outcome2	11.81	13.1	3.0415	Yes	n/a	1.29218573046433	n/a	n/a	n/a	ShowChoice	Loss
245.784	1.0	0.012	315.573	17.0	1	13.1	5.9	23.9936	955.0	2.22	Outcome2	11.81	13.1	3.0415	Yes	n/a	1.29218573046433	n/a	n/a	n/a	ShowResult	Loss
246.804	3.566	0.02	316.593	17.0	1	13.1	5.9	23.9936	955.0	2.22	Outcome2	11.81	13.1	3.0415	Yes	n/a	1.29218573046433	n/a	n/a	n/a	ISITrial	Loss
250.381	3.042	0.011	320.17	17.0	1	13.1	5.9	23.9936	955.0	2.22	Outcome2	11.81	13.1	3.0415	Yes	n/a	1.29218573046433	n/a	n/a	n/a	TrialHappPreview	Loss
253.44	4.012	0.017	323.229	17.0	1	13.1	5.9	23.9936	955.0	2.22	Outcome2	11.81	13.1	3.0415	Yes	n/a	1.29218573046433	n/a	n/a	944.0	TrialHappiness	Loss
253.441	3.026	n/a	323.584	17.0	1	13.1	5.9	23.9936	955.0	2.22	Outcome2	11.81	13.1	3.0415	Yes	n/a	1.29218573046433	n/a	n/a	944.0	TrialHappinessSliderResponse	Loss
257.452	4.166	4.012	327.241	17.0	1	13.1	5.9	23.9936	955.0	2.22	Outcome2	11.81	13.1	3.0415	Yes	n/a	1.29218573046433	n/a	n/a	n/a	ISIRate	Loss
261.648	3.0	0.03	331.437	18.0	1	0.0	0.0	23.9936	955.0	0.2	Certain	-0.68	0.5	0.0	No	4.0	1.17780294450736	1.714	263.362	n/a	GetAnswer	Mixed
263.386	4.0	0.024	333.175	18.0	1	0.0	0.0	23.9936	955.0	0.2	Certain	-0.68	0.5	0.0	No	n/a	1.17780294450736	n/a	n/a	n/a	ShowChoice	Mixed
267.398	1.0	0.012	337.187	18.0	1	0.0	0.0	23.9936	955.0	0.2	Certain	-0.68	0.5	0.0	No	n/a	1.17780294450736	n/a	n/a	n/a	ShowResult	Mixed
268.418	6.787	0.02	338.207	18.0	1	0.0	0.0	23.9936	955.0	0.2	Certain	-0.68	0.5	0.0	No	n/a	1.17780294450736	n/a	n/a	n/a	ISITrial	Mixed
275.222	3.0	0.017	345.011	19.0	1	2.9	2.0	24.3561	955.0	0.4	Outcome1	2.9	1.71	0.0	No	2.0	1.19026047565119	1.269	276.491	n/a	GetAnswer	Mixed
276.509	4.0	0.018	346.298	19.0	1	2.9	2.0	24.3561	955.0	0.4	Outcome1	2.9	1.71	0.0	No	n/a	1.19026047565119	n/a	n/a	n/a	ShowChoice	Mixed
280.521	1.0	0.012	350.31	19.0	1	2.9	2.0	24.3561	955.0	0.4	Outcome1	2.9	1.71	0.0	No	n/a	1.19026047565119	n/a	n/a	n/a	ShowResult	Mixed
281.541	2.0	0.02	351.33	19.0	1	2.9	2.0	24.3561	955.0	0.4	Outcome1	2.9	1.71	0.0	No	n/a	1.19026047565119	n/a	n/a	n/a	ISITrial	Mixed
283.563	3.0	0.022	353.352	20.0	1	3.7	1.25	24.8186	955.0	1.0	Outcome2	2.5	3.7	2.92125	Yes	2.0	1.20271800679502	1.055	284.618	n/a	GetAnswer	Mixed
284.633	4.0	0.015	354.422	20.0	1	3.7	1.25	24.8186	955.0	1.0	Outcome2	2.5	3.7	2.92125	Yes	n/a	1.20271800679502	n/a	n/a	n/a	ShowChoice	Mixed
288.645	1.0	0.012	358.434	20.0	1	3.7	1.25	24.8186	955.0	1.0	Outcome2	2.5	3.7	2.92125	Yes	n/a	1.20271800679502	n/a	n/a	n/a	ShowResult	Mixed
289.665	8.0	0.02	359.454	20.0	1	3.7	1.25	24.8186	955.0	1.0	Outcome2	2.5	3.7	2.92125	Yes	n/a	1.20271800679502	n/a	n/a	n/a	ISITrial	Mixed
297.689	2.921	0.024	367.478	20.0	1	3.7	1.25	24.8186	955.0	1.0	Outcome2	2.5	3.7	2.92125	Yes	n/a	1.20271800679502	n/a	n/a	n/a	TrialHappPreview	Mixed
300.631	4.012	0.021	370.42	20.0	1	3.7	1.25	24.8186	955.0	1.0	Outcome2	2.5	3.7	2.92125	Yes	n/a	1.20271800679502	n/a	n/a	944.0	TrialHappiness	Mixed
300.632	1.7	n/a	370.835	20.0	1	3.7	1.25	24.8186	955.0	1.0	Outcome2	2.5	3.7	2.92125	Yes	n/a	1.20271800679502	n/a	n/a	944.0	TrialHappinessSliderResponse	Mixed
304.643	3.685	4.012	374.432	20.0	1	3.7	1.25	24.8186	955.0	1.0	Outcome2	2.5	3.7	2.92125	Yes	n/a	1.20271800679502	n/a	n/a	n/a	ISIRate	Mixed
308.354	3.0	0.026	378.143	21.0	1	9.9	4.34	26.0561	955.0	3.6	Outcome2	8.68	9.9	0.0	No	2.0	1.21517553793885	0.771	309.125	n/a	GetAnswer	Gain
309.14	4.0	0.015	378.929	21.0	1	9.9	4.34	26.0561	955.0	3.6	Outcome2	8.68	9.9	0.0	No	n/a	1.21517553793885	n/a	n/a	n/a	ShowChoice	Gain
313.152	1.0	0.012	382.941	21.0	1	9.9	4.34	26.0561	955.0	3.6	Outcome2	8.68	9.9	0.0	No	n/a	1.21517553793885	n/a	n/a	n/a	ShowResult	Gain
314.171	3.555	0.019	383.96	21.0	1	9.9	4.34	26.0561	955.0	3.6	Outcome2	8.68	9.9	0.0	No	n/a	1.21517553793885	n/a	n/a	n/a	ISITrial	Gain
317.749	3.0	0.023	387.538	22.0	1	4.77	2.38	26.6524	955.0	2.0	Outcome1	4.77	4.9	3.2195	Yes	2.0	-0.131370328425821	0.685	318.434	n/a	GetAnswer	Gain
318.451	4.0	0.017	388.24	22.0	1	4.77	2.38	26.6524	955.0	2.0	Outcome1	4.77	4.9	3.2195	Yes	n/a	-0.131370328425821	n/a	n/a	n/a	ShowChoice	Gain
322.463	1.0	0.012	392.252	22.0	1	4.77	2.38	26.6524	955.0	2.0	Outcome1	4.77	4.9	3.2195	Yes	n/a	-0.131370328425821	n/a	n/a	n/a	ShowResult	Gain
323.483	6.793	0.02	393.272	22.0	1	4.77	2.38	26.6524	955.0	2.0	Outcome1	4.77	4.9	3.2195	Yes	n/a	-0.131370328425821	n/a	n/a	n/a	ISITrial	Gain
330.303	3.22	0.027	400.092	22.0	1	4.77	2.38	26.6524	955.0	2.0	Outcome1	4.77	4.9	3.2195	Yes	n/a	-0.131370328425821	n/a	n/a	n/a	TrialHappPreview	Gain
333.546	4.012	0.023	403.335	22.0	1	4.77	2.38	26.6524	955.0	2.0	Outcome1	4.77	4.9	3.2195	Yes	n/a	-0.131370328425821	n/a	n/a	936.0	TrialHappiness	Gain
333.547	1.779	n/a	403.353	22.0	1	4.77	2.38	26.6524	955.0	2.0	Outcome1	4.77	4.9	3.2195	Yes	n/a	-0.131370328425821	n/a	n/a	936.0	TrialHappinessSliderResponse	Gain
337.558	4.878	4.012	407.347	22.0	1	4.77	2.38	26.6524	955.0	2.0	Outcome1	4.77	4.9	3.2195	Yes	n/a	-0.131370328425821	n/a	n/a	n/a	ISIRate	Gain
342.456	3.0	0.02	412.245	23.0	1	9.5	4.06	27.8399	955.0	2.8	Outcome1	9.5	8.12	0.0	No	2.0	1.3759909399773502	0.907	343.363	n/a	GetAnswer	Gain
343.392	4.0	0.029	413.181	23.0	1	9.5	4.06	27.8399	955.0	2.8	Outcome1	9.5	8.12	0.0	No	n/a	1.3759909399773502	n/a	n/a	n/a	ShowChoice	Gain
347.404	1.0	0.012	417.193	23.0	1	9.5	4.06	27.8399	955.0	2.8	Outcome1	9.5	8.12	0.0	No	n/a	1.3759909399773502	n/a	n/a	n/a	ShowResult	Gain
348.424	8.0	0.02	418.213	23.0	1	9.5	4.06	27.8399	955.0	2.8	Outcome1	9.5	8.12	0.0	No	n/a	1.3759909399773502	n/a	n/a	n/a	ISITrial	Gain
356.448	3.0	0.024	426.237	24.0	1	6.3	2.45	28.6274	955.0	5.0	Outcome1	6.3	4.9	3.255	Yes	2.0	1.39750849377124	0.879	357.327	n/a	GetAnswer	Gain
357.35	4.0	0.023	427.139	24.0	1	6.3	2.45	28.6274	955.0	5.0	Outcome1	6.3	4.9	3.255	Yes	n/a	1.39750849377124	n/a	n/a	n/a	ShowChoice	Gain
361.362	1.0	0.012	431.151	24.0	1	6.3	2.45	28.6274	955.0	5.0	Outcome1	6.3	4.9	3.255	Yes	n/a	1.39750849377124	n/a	n/a	n/a	ShowResult	Gain
362.382	2.0	0.02	432.171	24.0	1	6.3	2.45	28.6274	955.0	5.0	Outcome1	6.3	4.9	3.255	Yes	n/a	1.39750849377124	n/a	n/a	n/a	ISITrial	Gain
364.405	3.255	0.023	434.194	24.0	1	6.3	2.45	28.6274	955.0	5.0	Outcome1	6.3	4.9	3.255	Yes	n/a	1.39750849377124	n/a	n/a	n/a	TrialHappPreview	Gain
367.681	4.029	0.021	437.47	24.0	1	6.3	2.45	28.6274	955.0	5.0	Outcome1	6.3	4.9	3.255	Yes	n/a	1.39750849377124	n/a	n/a	928.0	TrialHappiness	Gain
367.682	2.748	n/a	438.007	24.0	1	6.3	2.45	28.6274	955.0	5.0	Outcome1	6.3	4.9	3.255	Yes	n/a	1.39750849377124	n/a	n/a	928.0	TrialHappinessSliderResponse	Gain
371.71	5.02	4.029	441.499	24.0	1	6.3	2.45	28.6274	955.0	5.0	Outcome1	6.3	4.9	3.255	Yes	n/a	1.39750849377124	n/a	n/a	n/a	ISIRate	Gain
376.758	3.0	0.028	446.547	25.0	1	5.5	1.98	29.3149	955.0	2.8	Outcome1	5.5	3.95	0.0	No	2.0	1.55492638731597	0.985	377.743	n/a	GetAnswer	Gain
377.761	4.0	0.018	447.55	25.0	1	5.5	1.98	29.3149	955.0	2.8	Outcome1	5.5	3.95	0.0	No	n/a	1.55492638731597	n/a	n/a	n/a	ShowChoice	Gain
381.773	1.0	0.012	451.562	25.0	1	5.5	1.98	29.3149	955.0	2.8	Outcome1	5.5	3.95	0.0	No	n/a	1.55492638731597	n/a	n/a	n/a	ShowResult	Gain
382.793	3.749	0.02	452.582	25.0	1	5.5	1.98	29.3149	955.0	2.8	Outcome1	5.5	3.95	0.0	No	n/a	1.55492638731597	n/a	n/a	n/a	ISITrial	Gain
386.571	3.0	0.029	456.36	26.0	1	3.5	2.0	29.7524	955.0	0.82	Outcome2	1.91	3.5	0.0	No	2.0	1.5855039637599098	1.106	387.677	n/a	GetAnswer	Mixed
387.708	4.0	0.031	457.497	26.0	1	3.5	2.0	29.7524	955.0	0.82	Outcome2	1.91	3.5	0.0	No	n/a	1.5855039637599098	n/a	n/a	n/a	ShowChoice	Mixed
391.736	1.0	0.028	461.525	26.0	1	3.5	2.0	29.7524	955.0	0.82	Outcome2	1.91	3.5	0.0	No	n/a	1.5855039637599098	n/a	n/a	n/a	ShowResult	Mixed
392.756	7.834	0.02	462.545	26.0	1	3.5	2.0	29.7524	955.0	0.82	Outcome2	1.91	3.5	0.0	No	n/a	1.5855039637599098	n/a	n/a	n/a	ISITrial	Mixed
400.613	3.0	0.023	470.402	27.0	1	11.3	4.84	31.1649	955.0	2.48	Outcome1	11.3	9.68	2.54975	Yes	2.0	1.61608154020385	0.893	401.506	n/a	GetAnswer	Loss
401.532	4.0	0.026	471.321	27.0	1	11.3	4.84	31.1649	955.0	2.48	Outcome1	11.3	9.68	2.54975	Yes	n/a	1.61608154020385	n/a	n/a	n/a	ShowChoice	Loss
405.544	1.0	0.012	475.333	27.0	1	11.3	4.84	31.1649	955.0	2.48	Outcome1	11.3	9.68	2.54975	Yes	n/a	1.61608154020385	n/a	n/a	n/a	ShowResult	Loss
406.564	4.225	0.02	476.353	27.0	1	11.3	4.84	31.1649	955.0	2.48	Outcome1	11.3	9.68	2.54975	Yes	n/a	1.61608154020385	n/a	n/a	n/a	ISITrial	Loss
410.81	2.55	0.021	480.599	27.0	1	11.3	4.84	31.1649	955.0	2.48	Outcome1	11.3	9.68	2.54975	Yes	n/a	1.61608154020385	n/a	n/a	n/a	TrialHappPreview	Loss
413.384	4.012	0.024	483.173	27.0	1	11.3	4.84	31.1649	955.0	2.48	Outcome1	11.3	9.68	2.54975	Yes	n/a	1.61608154020385	n/a	n/a	936.0	TrialHappiness	Loss
413.385	1.027	n/a	483.574	27.0	1	11.3	4.84	31.1649	955.0	2.48	Outcome1	11.3	9.68	2.54975	Yes	n/a	1.61608154020385	n/a	n/a	936.0	TrialHappinessSliderResponse	Loss
417.396	2.199	4.012	487.185	27.0	1	11.3	4.84	31.1649	955.0	2.48	Outcome1	11.3	9.68	2.54975	Yes	n/a	1.61608154020385	n/a	n/a	n/a	ISIRate	Loss
467.915	2.123	n/a	538.041	n/a	1	n/a	n/a	n/a	n/a	n/a	n/a	n/a	n/a	n/a	n/a	n/a	n/a	n/a	n/a	940.0	BlockStartHappinessSliderResponse	n/a
-56.903	-0.001	0.025	489.409	n/a	2	n/a	n/a	n/a	n/a	n/a	n/a	n/a	n/a	n/a	n/a	{SPACE}	n/a	44.254	-12.649	n/a	Rest	n/a
-12.621	4.0	0.028	533.691	n/a	2	n/a	n/a	n/a	n/a	n/a	n/a	n/a	n/a	n/a	n/a	n/a	n/a	n/a	n/a	n/a	BlockHappyPreview	n/a
-8.609	2.46	0.012	537.703	n/a	2	n/a	n/a	n/a	n/a	n/a	n/a	n/a	n/a	n/a	n/a	n/a	n/a	n/a	n/a	940.0	BlockStartHappiness	n/a
-2.625	-0.001	0.024	543.687	n/a	2	n/a	n/a	n/a	n/a	n/a	n/a	n/a	n/a	n/a	n/a	5.0	n/a	2.604	-0.021	n/a	ScanWait	n/a
0.0	10.0	0.021	546.312	n/a	2	n/a	n/a	n/a	n/a	n/a	n/a	n/a	n/a	n/a	n/a	n/a	n/a	n/a	n/a	n/a	GetReady	n/a
10.013	3.0	0.013	556.325	28.0	2	-15.3	-8.0	29.2524	70.0	0.82	Outcome2	-0.5	-15.3	0.0	No	2.0	-14.7959183673469	2.589	12.602	n/a	GetAnswer	Mixed
12.621	4.0	0.019	558.933	28.0	2	-15.3	-8.0	29.2524	70.0	0.82	Outcome2	-0.5	-15.3	0.0	No	n/a	-14.7959183673469	n/a	n/a	n/a	ShowChoice	Mixed
16.633	1.0	0.012	562.945	28.0	2	-15.3	-8.0	29.2524	70.0	0.82	Outcome2	-0.5	-15.3	0.0	No	n/a	-14.7959183673469	n/a	n/a	n/a	ShowResult	Mixed
17.653	3.575	0.02	563.965	28.0	2	-15.3	-8.0	29.2524	70.0	0.82	Outcome2	-0.5	-15.3	0.0	No	n/a	-14.7959183673469	n/a	n/a	n/a	ISITrial	Mixed
21.247	3.0	0.019	567.559	29.0	2	0.0	0.0	29.2524	70.0	4.2	Certain	-2.1	1.52	3.529	Yes	4.0	3.61678004535147	1.035	22.282	n/a	GetAnswer	Gain
22.3	4.0	0.018	568.612	29.0	2	0.0	0.0	29.2524	70.0	4.2	Certain	-2.1	1.52	3.529	Yes	n/a	3.61678004535147	n/a	n/a	n/a	ShowChoice	Gain
26.312	1.0	0.012	572.624	29.0	2	0.0	0.0	29.2524	70.0	4.2	Certain	-2.1	1.52	3.529	Yes	n/a	3.61678004535147	n/a	n/a	n/a	ShowResult	Gain
27.332	3.955	0.02	573.644	29.0	2	0.0	0.0	29.2524	70.0	4.2	Certain	-2.1	1.52	3.529	Yes	n/a	3.61678004535147	n/a	n/a	n/a	ISITrial	Gain
31.31	3.529	0.023	577.622	29.0	2	0.0	0.0	29.2524	70.0	4.2	Certain	-2.1	1.52	3.529	Yes	n/a	3.61678004535147	n/a	n/a	n/a	TrialHappPreview	Gain
34.854	4.012	0.015	581.166	29.0	2	0.0	0.0	29.2524	70.0	4.2	Certain	-2.1	1.52	3.529	Yes	n/a	3.61678004535147	n/a	n/a	736.0	TrialHappiness	Gain
34.855	1.592	n/a	581.494	29.0	2	0.0	0.0	29.2524	70.0	4.2	Certain	-2.1	1.52	3.529	Yes	n/a	3.61678004535147	n/a	n/a	736.0	TrialHappinessSliderResponse	Gain
38.866	6.116	4.012	585.178	29.0	2	0.0	0.0	29.2524	70.0	4.2	Certain	-2.1	1.52	3.529	Yes	n/a	3.61678004535147	n/a	n/a	n/a	ISIRate	Gain
45.001	3.0	0.019	591.313	30.0	2	0.0	0.0	29.2524	70.0	2.22	Certain	-1.6	1.27	0.0	No	4.0	2.8701814058956896	1.557	46.558	n/a	GetAnswer	Gain
46.572	4.0	0.014	592.884	30.0	2	0.0	0.0	29.2524	70.0	2.22	Certain	-1.6	1.27	0.0	No	n/a	2.8701814058956896	n/a	n/a	n/a	ShowChoice	Gain
50.584	1.0	0.012	596.896	30.0	2	0.0	0.0	29.2524	70.0	2.22	Certain	-1.6	1.27	0.0	No	n/a	2.8701814058956896	n/a	n/a	n/a	ShowResult	Gain
51.604	4.453	0.02	597.916	30.0	2	0.0	0.0	29.2524	70.0	2.22	Certain	-1.6	1.27	0.0	No	n/a	2.8701814058956896	n/a	n/a	n/a	ISITrial	Gain
56.084	3.0	0.027	602.396	31.0	2	-11.95	-5.0	27.7586	70.0	1.5	Outcome2	2.1	-11.95	2.50325	Yes	2.0	-14.0544217687075	1.331	57.415	n/a	GetAnswer	Mixed
57.438	4.0	0.023	603.75	31.0	2	-11.95	-5.0	27.7586	70.0	1.5	Outcome2	2.1	-11.95	2.50325	Yes	n/a	-14.0544217687075	n/a	n/a	n/a	ShowChoice	Mixed
61.45	1.0	0.012	607.762	31.0	2	-11.95	-5.0	27.7586	70.0	1.5	Outcome2	2.1	-11.95	2.50325	Yes	n/a	-14.0544217687075	n/a	n/a	n/a	ShowResult	Mixed
62.47	4.786	0.02	608.782	31.0	2	-11.95	-5.0	27.7586	70.0	1.5	Outcome2	2.1	-11.95	2.50325	Yes	n/a	-14.0544217687075	n/a	n/a	n/a	ISITrial	Mixed
67.268	2.503	0.012	613.58	31.0	2	-11.95	-5.0	27.7586	70.0	1.5	Outcome2	2.1	-11.95	2.50325	Yes	n/a	-14.0544217687075	n/a	n/a	n/a	TrialHappPreview	Mixed
69.792	4.028	0.021	616.104	31.0	2	-11.95	-5.0	27.7586	70.0	1.5	Outcome2	2.1	-11.95	2.50325	Yes	n/a	-14.0544217687075	n/a	n/a	664.0	TrialHappiness	Mixed
69.792	3.744	n/a	616.169	31.0	2	-11.95	-5.0	27.7586	70.0	1.5	Outcome2	2.1	-11.95	2.50325	Yes	n/a	-14.0544217687075	n/a	n/a	664.0	TrialHappinessSliderResponse	Mixed
73.82	2.013	4.028	620.132	31.0	2	-11.95	-5.0	27.7586	70.0	1.5	Outcome2	2.1	-11.95	2.50325	Yes	n/a	-14.0544217687075	n/a	n/a	n/a	ISIRate	Mixed
75.86	3.0	0.027	622.172	32.0	2	2.0	2.0	28.0086	70.0	2.22	Certain	-4.49	9.1	0.0	No	4.0	-13.585034013605402	1.003	76.863	n/a	GetAnswer	Gain
76.88	4.0	0.017	623.192	32.0	2	2.0	2.0	28.0086	70.0	2.22	Certain	-4.49	9.1	0.0	No	n/a	-13.585034013605402	n/a	n/a	n/a	ShowChoice	Gain
80.892	1.0	0.012	627.204	32.0	2	2.0	2.0	28.0086	70.0	2.22	Certain	-4.49	9.1	0.0	No	n/a	-13.585034013605402	n/a	n/a	n/a	ShowResult	Gain
81.911	2.0	0.019	628.223	32.0	2	2.0	2.0	28.0086	70.0	2.22	Certain	-4.49	9.1	0.0	No	n/a	-13.585034013605402	n/a	n/a	n/a	ISITrial	Gain
83.934	3.0	0.023	630.246	33.0	2	-14.56	-7.0	26.1886	70.0	1.0	Outcome1	-14.56	-0.3	0.0	No	2.0	-14.2585034013605	2.482	86.416	n/a	GetAnswer	Mixed
86.441	4.0	0.025	632.753	33.0	2	-14.56	-7.0	26.1886	70.0	1.0	Outcome1	-14.56	-0.3	0.0	No	n/a	-14.2585034013605	n/a	n/a	n/a	ShowChoice	Mixed
90.453	1.0	0.012	636.765	33.0	2	-14.56	-7.0	26.1886	70.0	1.0	Outcome1	-14.56	-0.3	0.0	No	n/a	-14.2585034013605	n/a	n/a	n/a	ShowResult	Mixed
91.473	5.099	0.02	637.785	33.0	2	-14.56	-7.0	26.1886	70.0	1.0	Outcome1	-14.56	-0.3	0.0	No	n/a	-14.2585034013605	n/a	n/a	n/a	ISITrial	Mixed
96.588	3.0	0.016	642.9	34.0	2	-9.63	-2.0	24.9848	70.0	2.48	Outcome1	-9.63	5.3	3.2315	Yes	2.0	-14.9319727891156	1.252	97.84	n/a	GetAnswer	Gain
97.859	4.0	0.019	644.171	34.0	2	-9.63	-2.0	24.9848	70.0	2.48	Outcome1	-9.63	5.3	3.2315	Yes	n/a	-14.9319727891156	n/a	n/a	n/a	ShowChoice	Gain
101.871	1.0	0.012	648.183	34.0	2	-9.63	-2.0	24.9848	70.0	2.48	Outcome1	-9.63	5.3	3.2315	Yes	n/a	-14.9319727891156	n/a	n/a	n/a	ShowResult	Gain
102.891	4.784	0.02	649.203	34.0	2	-9.63	-2.0	24.9848	70.0	2.48	Outcome1	-9.63	5.3	3.2315	Yes	n/a	-14.9319727891156	n/a	n/a	n/a	ISITrial	Gain
107.688	3.232	0.013	654.0	34.0	2	-9.63	-2.0	24.9848	70.0	2.48	Outcome1	-9.63	5.3	3.2315	Yes	n/a	-14.9319727891156	n/a	n/a	n/a	TrialHappPreview	Gain
110.948	4.012	0.028	657.26	34.0	2	-9.63	-2.0	24.9848	70.0	2.48	Outcome1	-9.63	5.3	3.2315	Yes	n/a	-14.9319727891156	n/a	n/a	476.0	TrialHappiness	Gain
110.949	1.299	n/a	657.663	34.0	2	-9.63	-2.0	24.9848	70.0	2.48	Outcome1	-9.63	5.3	3.2315	Yes	n/a	-14.9319727891156	n/a	n/a	476.0	TrialHappinessSliderResponse	Gain
114.96	4.926	4.012	661.272	34.0	2	-9.63	-2.0	24.9848	70.0	2.48	Outcome1	-9.63	5.3	3.2315	Yes	n/a	-14.9319727891156	n/a	n/a	n/a	ISIRate	Gain
119.908	3.0	0.022	666.22	35.0	2	-7.91	-1.0	23.996	70.0	1.68	Outcome1	-7.91	4.5	0.0	No	2.0	-12.4081632653061	0.899	120.807	n/a	GetAnswer	Gain
120.828	4.0	0.021	667.14	35.0	2	-7.91	-1.0	23.996	70.0	1.68	Outcome1	-7.91	4.5	0.0	No	n/a	-12.4081632653061	n/a	n/a	n/a	ShowChoice	Gain
124.84	1.0	0.012	671.152	35.0	2	-7.91	-1.0	23.996	70.0	1.68	Outcome1	-7.91	4.5	0.0	No	n/a	-12.4081632653061	n/a	n/a	n/a	ShowResult	Gain
125.859	2.098	0.019	672.171	35.0	2	-7.91	-1.0	23.996	70.0	1.68	Outcome1	-7.91	4.5	0.0	No	n/a	-12.4081632653061	n/a	n/a	n/a	ISITrial	Gain
127.982	3.0	0.025	674.294	36.0	2	-1.17	-0.58	23.8497	70.0	3.16	Outcome1	-1.17	11.7	3.33575	Yes	2.0	-12.8684807256236	1.216	129.198	n/a	GetAnswer	Loss
129.219	4.0	0.021	675.531	36.0	2	-1.17	-0.58	23.8497	70.0	3.16	Outcome1	-1.17	11.7	3.33575	Yes	n/a	-12.8684807256236	n/a	n/a	n/a	ShowChoice	Loss
133.231	1.0	0.012	679.543	36.0	2	-1.17	-0.58	23.8497	70.0	3.16	Outcome1	-1.17	11.7	3.33575	Yes	n/a	-12.8684807256236	n/a	n/a	n/a	ShowResult	Loss
134.251	5.156	0.02	680.563	36.0	2	-1.17	-0.58	23.8497	70.0	3.16	Outcome1	-1.17	11.7	3.33575	Yes	n/a	-12.8684807256236	n/a	n/a	n/a	ISITrial	Loss
139.433	3.336	0.026	685.745	36.0	2	-1.17	-0.58	23.8497	70.0	3.16	Outcome1	-1.17	11.7	3.33575	Yes	n/a	-12.8684807256236	n/a	n/a	n/a	TrialHappPreview	Loss
142.793	4.012	0.024	689.105	36.0	2	-1.17	-0.58	23.8497	70.0	3.16	Outcome1	-1.17	11.7	3.33575	Yes	n/a	-12.8684807256236	n/a	n/a	420.0	TrialHappiness	Loss
142.794	1.141	n/a	689.366	36.0	2	-1.17	-0.58	23.8497	70.0	3.16	Outcome1	-1.17	11.7	3.33575	Yes	n/a	-12.8684807256236	n/a	n/a	420.0	TrialHappinessSliderResponse	Loss
146.805	5.343	4.012	693.117	36.0	2	-1.17	-0.58	23.8497	70.0	3.16	Outcome1	-1.17	11.7	3.33575	Yes	n/a	-12.8684807256236	n/a	n/a	n/a	ISIRate	Loss
152.171	3.0	0.023	698.483	37.0	2	1.0	1.0	23.9747	70.0	2.48	Certain	7.3	-5.08	0.0	No	4.0	-12.3764172335601	1.01	153.181	n/a	GetAnswer	Gain
153.208	4.0	0.027	699.52	37.0	2	1.0	1.0	23.9747	70.0	2.48	Certain	7.3	-5.08	0.0	No	n/a	-12.3764172335601	n/a	n/a	n/a	ShowChoice	Gain
157.22	1.0	0.012	703.532	37.0	2	1.0	1.0	23.9747	70.0	2.48	Certain	7.3	-5.08	0.0	No	n/a	-12.3764172335601	n/a	n/a	n/a	ShowResult	Gain
158.239	3.598	0.019	704.551	37.0	2	1.0	1.0	23.9747	70.0	2.48	Certain	7.3	-5.08	0.0	No	n/a	-12.3764172335601	n/a	n/a	n/a	ISITrial	Gain
161.867	3.0	0.03	708.179	38.0	2	1.0	1.0	24.0997	70.0	3.6	Certain	-0.01	1.98	0.0	No	4.0	1.99036281179138	1.137	163.004	n/a	GetAnswer	Gain
163.02	4.0	0.016	709.332	38.0	2	1.0	1.0	24.0997	70.0	3.6	Certain	-0.01	1.98	0.0	No	n/a	1.99036281179138	n/a	n/a	n/a	ShowChoice	Gain
167.032	1.0	0.012	713.344	38.0	2	1.0	1.0	24.0997	70.0	3.6	Certain	-0.01	1.98	0.0	No	n/a	1.99036281179138	n/a	n/a	n/a	ShowResult	Gain
168.052	4.787	0.02	714.364	38.0	2	1.0	1.0	24.0997	70.0	3.6	Certain	-0.01	1.98	0.0	No	n/a	1.99036281179138	n/a	n/a	n/a	ISITrial	Gain
172.866	3.0	0.027	719.178	39.0	2	-1.27	-0.64	23.9409	70.0	3.6	Outcome2	11.9	-1.27	2.86425	Yes	2.0	-13.1700680272109	1.481	174.347	n/a	GetAnswer	Loss
174.371	4.0	0.024	720.683	39.0	2	-1.27	-0.64	23.9409	70.0	3.6	Outcome2	11.9	-1.27	2.86425	Yes	n/a	-13.1700680272109	n/a	n/a	n/a	ShowChoice	Loss
178.383	1.0	0.012	724.695	39.0	2	-1.27	-0.64	23.9409	70.0	3.6	Outcome2	11.9	-1.27	2.86425	Yes	n/a	-13.1700680272109	n/a	n/a	n/a	ShowResult	Loss
179.402	2.348	0.019	725.714	39.0	2	-1.27	-0.64	23.9409	70.0	3.6	Outcome2	11.9	-1.27	2.86425	Yes	n/a	-13.1700680272109	n/a	n/a	n/a	ISITrial	Loss
181.776	2.864	0.026	728.088	39.0	2	-1.27	-0.64	23.9409	70.0	3.6	Outcome2	11.9	-1.27	2.86425	Yes	n/a	-13.1700680272109	n/a	n/a	n/a	TrialHappPreview	Loss
184.668	4.012	0.028	730.98	39.0	2	-1.27	-0.64	23.9409	70.0	3.6	Outcome2	11.9	-1.27	2.86425	Yes	4{-4}4{-4}	-13.1700680272109	1.529	186.197	408.0	TrialHappiness	Loss
184.669	1.083	n/a	731.427	39.0	2	-1.27	-0.64	23.9409	70.0	3.6	Outcome2	11.9	-1.27	2.86425	Yes	n/a	-13.1700680272109	n/a	n/a	408.0	TrialHappinessSliderResponse	Loss
188.68	3.457	4.012	734.992	39.0	2	-1.27	-0.64	23.9409	70.0	3.6	Outcome2	11.9	-1.27	2.86425	Yes	n/a	-13.1700680272109	n/a	n/a	n/a	ISIRate	Loss
192.157	3.0	0.02	738.469	40.0	2	-7.46	-1.0	23.0084	70.0	3.6	Outcome2	5.9	-7.46	0.0	No	2.0	-13.3628117913832	0.773	192.93	n/a	GetAnswer	Gain
192.943	4.0	0.013	739.255	40.0	2	-7.46	-1.0	23.0084	70.0	3.6	Outcome2	5.9	-7.46	0.0	No	n/a	-13.3628117913832	n/a	n/a	n/a	ShowChoice	Gain
196.955	1.0	0.012	743.267	40.0	2	-7.46	-1.0	23.0084	70.0	3.6	Outcome2	5.9	-7.46	0.0	No	n/a	-13.3628117913832	n/a	n/a	n/a	ShowResult	Gain
197.975	3.158	0.02	744.287	40.0	2	-7.46	-1.0	23.0084	70.0	3.6	Outcome2	5.9	-7.46	0.0	No	n/a	-13.3628117913832	n/a	n/a	n/a	ISITrial	Gain
201.151	3.0	0.018	747.463	41.0	2	0.0	0.0	23.0084	70.0	1.2	Certain	0.98	-1.06	4.0	Yes	4.0	2.03968253968254	1.437	202.588	n/a	GetAnswer	Mixed
202.605	4.0	0.017	748.917	41.0	2	0.0	0.0	23.0084	70.0	1.2	Certain	0.98	-1.06	4.0	Yes	n/a	2.03968253968254	n/a	n/a	n/a	ShowChoice	Mixed
206.617	1.0	0.012	752.929	41.0	2	0.0	0.0	23.0084	70.0	1.2	Certain	0.98	-1.06	4.0	Yes	n/a	2.03968253968254	n/a	n/a	n/a	ShowResult	Mixed
207.637	4.506	0.02	753.949	41.0	2	0.0	0.0	23.0084	70.0	1.2	Certain	0.98	-1.06	4.0	Yes	n/a	2.03968253968254	n/a	n/a	n/a	ISITrial	Mixed
212.167	4.0	0.024	758.479	41.0	2	0.0	0.0	23.0084	70.0	1.2	Certain	0.98	-1.06	4.0	Yes	n/a	2.03968253968254	n/a	n/a	n/a	TrialHappPreview	Mixed
216.196	4.012	0.029	762.508	41.0	2	0.0	0.0	23.0084	70.0	1.2	Certain	0.98	-1.06	4.0	Yes	n/a	2.03968253968254	n/a	n/a	408.0	TrialHappiness	Mixed
216.196	0.694	n/a	762.741	41.0	2	0.0	0.0	23.0084	70.0	1.2	Certain	0.98	-1.06	4.0	Yes	n/a	2.03968253968254	n/a	n/a	408.0	TrialHappinessSliderResponse	Mixed
220.208	8.0	4.012	766.52	41.0	2	0.0	0.0	23.0084	70.0	1.2	Certain	0.98	-1.06	4.0	Yes	n/a	2.03968253968254	n/a	n/a	n/a	ISIRate	Mixed
228.232	3.0	0.024	774.544	42.0	2	-0.83	-0.42	22.9046	70.0	2.48	Outcome2	13.3	-0.83	0.0	No	2.0	-14.1292517006803	1.607	229.839	n/a	GetAnswer	Loss
229.853	4.0	0.014	776.165	42.0	2	-0.83	-0.42	22.9046	70.0	2.48	Outcome2	13.3	-0.83	0.0	No	n/a	-14.1292517006803	n/a	n/a	n/a	ShowChoice	Loss
233.865	1.0	0.012	780.177	42.0	2	-0.83	-0.42	22.9046	70.0	2.48	Outcome2	13.3	-0.83	0.0	No	n/a	-14.1292517006803	n/a	n/a	n/a	ShowResult	Loss
234.885	6.248	0.02	781.197	42.0	2	-0.83	-0.42	22.9046	70.0	2.48	Outcome2	13.3	-0.83	0.0	No	n/a	-14.1292517006803	n/a	n/a	n/a	ISITrial	Loss
241.154	3.0	0.021	787.466	43.0	2	-0.81	-0.4	22.8033	70.0	3.16	Outcome1	-0.81	13.7	2.77575	Yes	2.0	-14.5124716553288	0.679	241.833	n/a	GetAnswer	Loss
241.856	4.0	0.022	788.168	43.0	2	-0.81	-0.4	22.8033	70.0	3.16	Outcome1	-0.81	13.7	2.77575	Yes	n/a	-14.5124716553288	n/a	n/a	n/a	ShowChoice	Loss
245.868	1.0	0.012	792.18	43.0	2	-0.81	-0.4	22.8033	70.0	3.16	Outcome1	-0.81	13.7	2.77575	Yes	n/a	-14.5124716553288	n/a	n/a	n/a	ShowResult	Loss
246.887	4.596	0.019	793.199	43.0	2	-0.81	-0.4	22.8033	70.0	3.16	Outcome1	-0.81	13.7	2.77575	Yes	n/a	-14.5124716553288	n/a	n/a	n/a	ISITrial	Loss
251.501	2.776	0.018	797.813	43.0	2	-0.81	-0.4	22.8033	70.0	3.16	Outcome1	-0.81	13.7	2.77575	Yes	n/a	-14.5124716553288	n/a	n/a	n/a	TrialHappPreview	Loss
254.293	4.012	0.016	800.605	43.0	2	-0.81	-0.4	22.8033	70.0	3.16	Outcome1	-0.81	13.7	2.77575	Yes	4{-4}4{-4}	-14.5124716553288	1.663	255.956	240.0	TrialHappiness	Loss
254.293	1.296	n/a	800.972	43.0	2	-0.81	-0.4	22.8033	70.0	3.16	Outcome1	-0.81	13.7	2.77575	Yes	n/a	-14.5124716553288	n/a	n/a	240.0	TrialHappinessSliderResponse	Loss
258.305	3.103	4.012	804.617	43.0	2	-0.81	-0.4	22.8033	70.0	3.16	Outcome1	-0.81	13.7	2.77575	Yes	n/a	-14.5124716553288	n/a	n/a	n/a	ISIRate	Loss
261.431	3.0	0.023	807.743	44.0	2	2.33	1.0	23.0945	70.0	2.48	Outcome2	0.88	2.33	0.0	No	2.0	1.45294784580499	0.895	262.326	n/a	GetAnswer	Gain
262.35	4.0	0.024	808.662	44.0	2	2.33	1.0	23.0945	70.0	2.48	Outcome2	0.88	2.33	0.0	No	n/a	1.45294784580499	n/a	n/a	n/a	ShowChoice	Gain
266.362	1.0	0.012	812.674	44.0	2	2.33	1.0	23.0945	70.0	2.48	Outcome2	0.88	2.33	0.0	No	n/a	1.45294784580499	n/a	n/a	n/a	ShowResult	Gain
267.382	2.42	0.02	813.694	44.0	2	2.33	1.0	23.0945	70.0	2.48	Outcome2	0.88	2.33	0.0	No	n/a	1.45294784580499	n/a	n/a	n/a	ISITrial	Gain
269.823	3.0	0.021	816.135	45.0	2	2.78	2.0	23.442	70.0	2.22	Outcome2	1.31	2.78	0.0	No	2.0	1.4690098261526798	1.655	271.478	n/a	GetAnswer	Loss
271.494	4.0	0.016	817.806	45.0	2	2.78	2.0	23.442	70.0	2.22	Outcome2	1.31	2.78	0.0	No	n/a	1.4690098261526798	n/a	n/a	n/a	ShowChoice	Loss
275.506	1.0	0.012	821.818	45.0	2	2.78	2.0	23.442	70.0	2.22	Outcome2	1.31	2.78	0.0	No	n/a	1.4690098261526798	n/a	n/a	n/a	ShowResult	Loss
276.526	3.144	0.02	822.838	45.0	2	2.78	2.0	23.442	70.0	2.22	Outcome2	1.31	2.78	0.0	No	n/a	1.4690098261526798	n/a	n/a	n/a	ISITrial	Loss
279.702	3.0	0.032	826.014	46.0	2	1.78	1.0	23.6645	70.0	2.22	Outcome1	1.78	0.29	3.84125	Yes	2.0	1.4850718065003798	1.063	280.765	n/a	GetAnswer	Gain
280.789	4.0	0.024	827.101	46.0	2	1.78	1.0	23.6645	70.0	2.22	Outcome1	1.78	0.29	3.84125	Yes	n/a	1.4850718065003798	n/a	n/a	n/a	ShowChoice	Gain
284.801	1.0	0.012	831.113	46.0	2	1.78	1.0	23.6645	70.0	2.22	Outcome1	1.78	0.29	3.84125	Yes	n/a	1.4850718065003798	n/a	n/a	n/a	ShowResult	Gain
285.82	2.246	0.019	832.132	46.0	2	1.78	1.0	23.6645	70.0	2.22	Outcome1	1.78	0.29	3.84125	Yes	n/a	1.4850718065003798	n/a	n/a	n/a	ISITrial	Gain
288.077	3.841	0.011	834.389	46.0	2	1.78	1.0	23.6645	70.0	2.22	Outcome1	1.78	0.29	3.84125	Yes	n/a	1.4850718065003798	n/a	n/a	n/a	TrialHappPreview	Gain
291.939	4.012	0.021	838.251	46.0	2	1.78	1.0	23.6645	70.0	2.22	Outcome1	1.78	0.29	3.84125	Yes	n/a	1.4850718065003798	n/a	n/a	476.0	TrialHappiness	Gain
291.939	1.967	n/a	838.598	46.0	2	1.78	1.0	23.6645	70.0	2.22	Outcome1	1.78	0.29	3.84125	Yes	n/a	1.4850718065003798	n/a	n/a	476.0	TrialHappinessSliderResponse	Gain
295.951	7.365	4.012	842.263	46.0	2	1.78	1.0	23.6645	70.0	2.22	Outcome1	1.78	0.29	3.84125	Yes	n/a	1.4850718065003798	n/a	n/a	n/a	ISIRate	Gain
303.339	3.0	0.023	849.651	47.0	2	-4.33	-2.16	23.1233	70.0	5.0	Outcome2	12.3	-4.33	0.0	No	2.0	-16.6303854875283	1.73	305.069	n/a	GetAnswer	Loss
305.095	4.0	0.026	851.407	47.0	2	-4.33	-2.16	23.1233	70.0	5.0	Outcome2	12.3	-4.33	0.0	No	n/a	-16.6303854875283	n/a	n/a	n/a	ShowChoice	Loss
309.106	1.0	0.011	855.418	47.0	2	-4.33	-2.16	23.1233	70.0	5.0	Outcome2	12.3	-4.33	0.0	No	n/a	-16.6303854875283	n/a	n/a	n/a	ShowResult	Loss
310.126	2.0	0.02	856.438	47.0	2	-4.33	-2.16	23.1233	70.0	5.0	Outcome2	12.3	-4.33	0.0	No	n/a	-16.6303854875283	n/a	n/a	n/a	ISITrial	Loss
312.149	3.0	0.023	858.461	48.0	2	-8.99	0.0	21.9995	70.0	4.2	Outcome1	-8.99	8.1	2.83175	Yes	2.0	-17.0907029478458	1.046	313.195	n/a	GetAnswer	Gain
313.219	4.0	0.024	859.531	48.0	2	-8.99	0.0	21.9995	70.0	4.2	Outcome1	-8.99	8.1	2.83175	Yes	n/a	-17.0907029478458	n/a	n/a	n/a	ShowChoice	Gain
317.231	1.0	0.012	863.543	48.0	2	-8.99	0.0	21.9995	70.0	4.2	Outcome1	-8.99	8.1	2.83175	Yes	n/a	-17.0907029478458	n/a	n/a	n/a	ShowResult	Gain
318.25	3.692	0.019	864.562	48.0	2	-8.99	0.0	21.9995	70.0	4.2	Outcome1	-8.99	8.1	2.83175	Yes	n/a	-17.0907029478458	n/a	n/a	n/a	ISITrial	Gain
321.962	2.832	0.02	868.274	48.0	2	-8.99	0.0	21.9995	70.0	4.2	Outcome1	-8.99	8.1	2.83175	Yes	n/a	-17.0907029478458	n/a	n/a	n/a	TrialHappPreview	Gain
324.82	4.012	0.026	871.132	48.0	2	-8.99	0.0	21.9995	70.0	4.2	Outcome1	-8.99	8.1	2.83175	Yes	n/a	-17.0907029478458	n/a	n/a	400.0	TrialHappiness	Gain
324.821	0.371	n/a	871.47	48.0	2	-8.99	0.0	21.9995	70.0	4.2	Outcome1	-8.99	8.1	2.83175	Yes	n/a	-17.0907029478458	n/a	n/a	400.0	TrialHappinessSliderResponse	Gain
328.832	3.327	4.012	875.144	48.0	2	-8.99	0.0	21.9995	70.0	4.2	Outcome1	-8.99	8.1	2.83175	Yes	n/a	-17.0907029478458	n/a	n/a	n/a	ISIRate	Gain
332.175	3.0	0.016	878.487	49.0	2	1.0	1.0	22.1245	70.0	3.16	Certain	2.42	0.19	0.0	No	4.0	2.2278911564625896	0.902	333.077	n/a	GetAnswer	Gain
333.095	4.0	0.018	879.407	49.0	2	1.0	1.0	22.1245	70.0	3.16	Certain	2.42	0.19	0.0	No	n/a	2.2278911564625896	n/a	n/a	n/a	ShowChoice	Gain
337.107	1.0	0.012	883.419	49.0	2	1.0	1.0	22.1245	70.0	3.16	Certain	2.42	0.19	0.0	No	n/a	2.2278911564625896	n/a	n/a	n/a	ShowResult	Gain
338.126	8.0	0.019	884.438	49.0	2	1.0	1.0	22.1245	70.0	3.16	Certain	2.42	0.19	0.0	No	n/a	2.2278911564625896	n/a	n/a	n/a	ISITrial	Gain
346.15	3.0	0.024	892.462	50.0	2	-17.33	-9.0	19.9582	70.0	0.66	Outcome1	-17.33	-0.7	3.54725	Yes	2.0	-16.632653061224502	2.113	348.263	n/a	GetAnswer	Mixed
348.29	4.0	0.027	894.602	50.0	2	-17.33	-9.0	19.9582	70.0	0.66	Outcome1	-17.33	-0.7	3.54725	Yes	n/a	-16.632653061224502	n/a	n/a	n/a	ShowChoice	Mixed
352.302	1.0	0.012	898.614	50.0	2	-17.33	-9.0	19.9582	70.0	0.66	Outcome1	-17.33	-0.7	3.54725	Yes	n/a	-16.632653061224502	n/a	n/a	n/a	ShowResult	Mixed
353.322	7.537	0.02	899.634	50.0	2	-17.33	-9.0	19.9582	70.0	0.66	Outcome1	-17.33	-0.7	3.54725	Yes	n/a	-16.632653061224502	n/a	n/a	n/a	ISITrial	Mixed
360.878	3.547	0.019	907.19	50.0	2	-17.33	-9.0	19.9582	70.0	0.66	Outcome1	-17.33	-0.7	3.54725	Yes	n/a	-16.632653061224502	n/a	n/a	n/a	TrialHappPreview	Mixed
364.455	4.012	0.03	910.767	50.0	2	-17.33	-9.0	19.9582	70.0	0.66	Outcome1	-17.33	-0.7	3.54725	Yes	n/a	-16.632653061224502	n/a	n/a	192.0	TrialHappiness	Mixed
364.456	0.814	n/a	910.864	50.0	2	-17.33	-9.0	19.9582	70.0	0.66	Outcome1	-17.33	-0.7	3.54725	Yes	n/a	-16.632653061224502	n/a	n/a	192.0	TrialHappinessSliderResponse	Mixed
368.467	6.189	4.012	914.779	50.0	2	-17.33	-9.0	19.9582	70.0	0.66	Outcome1	-17.33	-0.7	3.54725	Yes	n/a	-16.632653061224502	n/a	n/a	n/a	ISIRate	Mixed
374.686	3.0	0.03	920.998	51.0	2	0.0	0.0	19.9582	70.0	1.82	Certain	6.7	-6.77	0.0	No	4.0	-13.469387755102	1.028	375.714	n/a	GetAnswer	Gain
375.739	4.0	0.025	922.051	51.0	2	0.0	0.0	19.9582	70.0	1.82	Certain	6.7	-6.77	0.0	No	n/a	-13.469387755102	n/a	n/a	n/a	ShowChoice	Gain
379.751	1.0	0.012	926.063	51.0	2	0.0	0.0	19.9582	70.0	1.82	Certain	6.7	-6.77	0.0	No	n/a	-13.469387755102	n/a	n/a	n/a	ShowResult	Gain
380.771	5.508	0.02	927.083	51.0	2	0.0	0.0	19.9582	70.0	1.82	Certain	6.7	-6.77	0.0	No	n/a	-13.469387755102	n/a	n/a	n/a	ISITrial	Gain
386.304	3.0	0.025	932.616	52.0	2	-2.11	-1.06	19.6944	70.0	2.8	Outcome1	-2.11	11.5	0.0	No	2.0	-13.6077097505669	1.812	388.116	n/a	GetAnswer	Loss
388.143	4.0	0.027	934.455	52.0	2	-2.11	-1.06	19.6944	70.0	2.8	Outcome1	-2.11	11.5	0.0	No	n/a	-13.6077097505669	n/a	n/a	n/a	ShowChoice	Loss
392.155	1.0	0.012	938.467	52.0	2	-2.11	-1.06	19.6944	70.0	2.8	Outcome1	-2.11	11.5	0.0	No	n/a	-13.6077097505669	n/a	n/a	n/a	ShowResult	Loss
393.174	5.913	0.019	939.486	52.0	2	-2.11	-1.06	19.6944	70.0	2.8	Outcome1	-2.11	11.5	0.0	No	n/a	-13.6077097505669	n/a	n/a	n/a	ISITrial	Loss
399.109	3.0	0.022	945.421	53.0	2	3.02	2.0	20.0719	70.0	4.2	Outcome2	1.55	3.02	2.99675	Yes	2.0	1.46825396825397	1.279	400.388	n/a	GetAnswer	Loss
400.413	4.0	0.025	946.725	53.0	2	3.02	2.0	20.0719	70.0	4.2	Outcome2	1.55	3.02	2.99675	Yes	n/a	1.46825396825397	n/a	n/a	n/a	ShowChoice	Loss
404.424	1.0	0.011	950.736	53.0	2	3.02	2.0	20.0719	70.0	4.2	Outcome2	1.55	3.02	2.99675	Yes	n/a	1.46825396825397	n/a	n/a	n/a	ShowResult	Loss
405.444	3.66	0.02	951.756	53.0	2	3.02	2.0	20.0719	70.0	4.2	Outcome2	1.55	3.02	2.99675	Yes	n/a	1.46825396825397	n/a	n/a	n/a	ISITrial	Loss
409.122	2.997	0.018	955.434	53.0	2	3.02	2.0	20.0719	70.0	4.2	Outcome2	1.55	3.02	2.99675	Yes	n/a	1.46825396825397	n/a	n/a	n/a	TrialHappPreview	Loss
412.148	4.012	0.029	958.46	53.0	2	3.02	2.0	20.0719	70.0	4.2	Outcome2	1.55	3.02	2.99675	Yes	n/a	1.46825396825397	n/a	n/a	424.0	TrialHappiness	Loss
412.148	0.336	n/a	958.699	53.0	2	3.02	2.0	20.0719	70.0	4.2	Outcome2	1.55	3.02	2.99675	Yes	n/a	1.46825396825397	n/a	n/a	424.0	TrialHappinessSliderResponse	Loss
416.16	3.987	4.012	962.472	53.0	2	3.02	2.0	20.0719	70.0	4.2	Outcome2	1.55	3.02	2.99675	Yes	n/a	1.46825396825397	n/a	n/a	n/a	ISIRate	Loss
420.172	3.0	0.025	966.484	54.0	2	-1.0	-1.0	19.9469	70.0	1.2	Certain	-2.44	-0.02	0.0	No	4.0	2.42233560090703	1.27	421.442	n/a	GetAnswer	Mixed
421.459	4.0	0.017	967.771	54.0	2	-1.0	-1.0	19.9469	70.0	1.2	Certain	-2.44	-0.02	0.0	No	n/a	2.42233560090703	n/a	n/a	n/a	ShowChoice	Mixed
425.471	1.0	0.012	971.783	54.0	2	-1.0	-1.0	19.9469	70.0	1.2	Certain	-2.44	-0.02	0.0	No	n/a	2.42233560090703	n/a	n/a	n/a	ShowResult	Mixed
426.49	8.0	0.019	972.802	54.0	2	-1.0	-1.0	19.9469	70.0	1.2	Certain	-2.44	-0.02	0.0	No	n/a	2.42233560090703	n/a	n/a	n/a	ISITrial	Mixed
497.62	1.222	n/a	1044.289	n/a	2	n/a	n/a	n/a	n/a	n/a	n/a	n/a	n/a	n/a	n/a	n/a	n/a	n/a	n/a	440.0	BlockStartHappinessSliderResponse	n/a
-86.174	-0.001	0.024	980.826	n/a	3	n/a	n/a	n/a	n/a	n/a	n/a	n/a	n/a	n/a	n/a	{SPACE}	n/a	59.08	-27.094	n/a	Rest	n/a
-27.081	4.0	0.013	1039.919	n/a	3	n/a	n/a	n/a	n/a	n/a	n/a	n/a	n/a	n/a	n/a	n/a	n/a	n/a	n/a	n/a	BlockHappyPreview	n/a
-23.069	1.579	0.012	1043.931	n/a	3	n/a	n/a	n/a	n/a	n/a	n/a	n/a	n/a	n/a	n/a	n/a	n/a	n/a	n/a	440.0	BlockStartHappiness	n/a
-4.58	-0.001	0.019	1062.42	n/a	3	n/a	n/a	n/a	n/a	n/a	n/a	n/a	n/a	n/a	n/a	5.0	n/a	4.556	-0.024	n/a	ScanWait	n/a
0.0	10.0	0.024	1067.0	n/a	3	n/a	n/a	n/a	n/a	n/a	n/a	n/a	n/a	n/a	n/a	n/a	n/a	n/a	n/a	n/a	GetReady	n/a
10.014	3.0	0.014	1077.014	55.0	3	0.0	0.0	19.9469	955.0	1.5	Certain	4.1	-4.65	2.53325	Yes	4.0	8.74858437146093	0.96	10.974	n/a	GetAnswer	Mixed
11.0	4.0	0.026	1078.0	55.0	3	0.0	0.0	19.9469	955.0	1.5	Certain	4.1	-4.65	2.53325	Yes	n/a	8.74858437146093	n/a	n/a	n/a	ShowChoice	Mixed
15.012	1.0	0.012	1082.012	55.0	3	0.0	0.0	19.9469	955.0	1.5	Certain	4.1	-4.65	2.53325	Yes	n/a	8.74858437146093	n/a	n/a	n/a	ShowResult	Mixed
16.032	7.709	0.02	1083.032	55.0	3	0.0	0.0	19.9469	955.0	1.5	Certain	4.1	-4.65	2.53325	Yes	n/a	8.74858437146093	n/a	n/a	n/a	ISITrial	Mixed
23.755	2.533	0.014	1090.755	55.0	3	0.0	0.0	19.9469	955.0	1.5	Certain	4.1	-4.65	2.53325	Yes	n/a	8.74858437146093	n/a	n/a	n/a	TrialHappPreview	Mixed
26.312	4.012	0.024	1093.312	55.0	3	0.0	0.0	19.9469	955.0	1.5	Certain	4.1	-4.65	2.53325	Yes	n/a	8.74858437146093	n/a	n/a	392.0	TrialHappiness	Mixed
26.313	0.392	n/a	1093.646	55.0	3	0.0	0.0	19.9469	955.0	1.5	Certain	4.1	-4.65	2.53325	Yes	n/a	8.74858437146093	n/a	n/a	392.0	TrialHappinessSliderResponse	Mixed
30.324	2.133	4.012	1097.324	55.0	3	0.0	0.0	19.9469	955.0	1.5	Certain	4.1	-4.65	2.53325	Yes	n/a	8.74858437146093	n/a	n/a	n/a	ISIRate	Mixed
32.481	3.0	0.024	1099.481	56.0	3	3.37	1.68	20.3681	955.0	3.16	Outcome2	5.7	3.37	0.0	No	2.0	-2.3333333333333304	0.582	33.063	n/a	GetAnswer	Gain
33.083	4.0	0.02	1100.083	56.0	3	3.37	1.68	20.3681	955.0	3.16	Outcome2	5.7	3.37	0.0	No	n/a	-2.3333333333333304	n/a	n/a	n/a	ShowChoice	Gain
37.094	1.0	0.011	1104.094	56.0	3	3.37	1.68	20.3681	955.0	3.16	Outcome2	5.7	3.37	0.0	No	n/a	-2.3333333333333304	n/a	n/a	n/a	ShowResult	Gain
38.114	4.697	0.02	1105.114	56.0	3	3.37	1.68	20.3681	955.0	3.16	Outcome2	5.7	3.37	0.0	No	n/a	-2.3333333333333304	n/a	n/a	n/a	ISITrial	Gain
42.828	3.0	0.017	1109.828	57.0	3	-1.14	-1.14	20.2256	955.0	1.68	Certain	8.5	-2.28	0.0	No	4.0	10.7848244620612	0.922	43.75	n/a	GetAnswer	Gain
43.764	4.0	0.014	1110.764	57.0	3	-1.14	-1.14	20.2256	955.0	1.68	Certain	8.5	-2.28	0.0	No	n/a	10.7848244620612	n/a	n/a	n/a	ShowChoice	Gain
47.776	1.0	0.012	1114.776	57.0	3	-1.14	-1.14	20.2256	955.0	1.68	Certain	8.5	-2.28	0.0	No	n/a	10.7848244620612	n/a	n/a	n/a	ShowResult	Gain
48.796	4.291	0.02	1115.796	57.0	3	-1.14	-1.14	20.2256	955.0	1.68	Certain	8.5	-2.28	0.0	No	n/a	10.7848244620612	n/a	n/a	n/a	ISITrial	Gain
53.109	3.0	0.022	1120.109	58.0	3	7.5	2.0	21.1631	955.0	2.8	Outcome2	-3.92	7.5	3.04575	Yes	2.0	11.4224235560589	0.858	53.967	n/a	GetAnswer	Gain
53.978	4.0	0.011	1120.978	58.0	3	7.5	2.0	21.1631	955.0	2.8	Outcome2	-3.92	7.5	3.04575	Yes	n/a	11.4224235560589	n/a	n/a	n/a	ShowChoice	Gain
57.99	1.0	0.012	1124.99	58.0	3	7.5	2.0	21.1631	955.0	2.8	Outcome2	-3.92	7.5	3.04575	Yes	n/a	11.4224235560589	n/a	n/a	n/a	ShowResult	Gain
59.01	2.037	0.02	1126.01	58.0	3	7.5	2.0	21.1631	955.0	2.8	Outcome2	-3.92	7.5	3.04575	Yes	n/a	11.4224235560589	n/a	n/a	n/a	ISITrial	Gain
61.066	3.046	0.019	1128.066	58.0	3	7.5	2.0	21.1631	955.0	2.8	Outcome2	-3.92	7.5	3.04575	Yes	n/a	11.4224235560589	n/a	n/a	n/a	TrialHappPreview	Gain
64.142	4.012	0.03	1131.142	58.0	3	7.5	2.0	21.1631	955.0	2.8	Outcome2	-3.92	7.5	3.04575	Yes	n/a	11.4224235560589	n/a	n/a	464.0	TrialHappiness	Gain
64.143	3.636	n/a	1131.427	58.0	3	7.5	2.0	21.1631	955.0	2.8	Outcome2	-3.92	7.5	3.04575	Yes	n/a	11.4224235560589	n/a	n/a	464.0	TrialHappinessSliderResponse	Gain
68.154	4.183	4.012	1135.154	58.0	3	7.5	2.0	21.1631	955.0	2.8	Outcome2	-3.92	7.5	3.04575	Yes	n/a	11.4224235560589	n/a	n/a	n/a	ISIRate	Gain
72.367	3.0	0.03	1139.367	59.0	3	-6.0	-6.0	20.4131	955.0	0.52	Certain	-11.74	-0.9	0.0	No	4.0	10.836919592299	1.545	73.912	n/a	GetAnswer	Mixed
73.938	4.0	0.026	1140.938	59.0	3	-6.0	-6.0	20.4131	955.0	0.52	Certain	-11.74	-0.9	0.0	No	n/a	10.836919592299	n/a	n/a	n/a	ShowChoice	Mixed
77.95	1.0	0.012	1144.95	59.0	3	-6.0	-6.0	20.4131	955.0	0.52	Certain	-11.74	-0.9	0.0	No	n/a	10.836919592299	n/a	n/a	n/a	ShowResult	Mixed
78.97	5.064	0.02	1145.97	59.0	3	-6.0	-6.0	20.4131	955.0	0.52	Certain	-11.74	-0.9	0.0	No	n/a	10.836919592299	n/a	n/a	n/a	ISITrial	Mixed
84.051	3.0	0.017	1151.051	60.0	3	0.9	-5.0	20.5256	955.0	0.4	Outcome2	-10.49	0.9	3.5625	Yes	2.0	11.392978482446198	0.901	84.952	n/a	GetAnswer	Mixed
84.971	4.0	0.019	1151.971	60.0	3	0.9	-5.0	20.5256	955.0	0.4	Outcome2	-10.49	0.9	3.5625	Yes	n/a	11.392978482446198	n/a	n/a	n/a	ShowChoice	Mixed
88.983	1.0	0.012	1155.983	60.0	3	0.9	-5.0	20.5256	955.0	0.4	Outcome2	-10.49	0.9	3.5625	Yes	n/a	11.392978482446198	n/a	n/a	n/a	ShowResult	Mixed
90.002	8.0	0.019	1157.002	60.0	3	0.9	-5.0	20.5256	955.0	0.4	Outcome2	-10.49	0.9	3.5625	Yes	n/a	11.392978482446198	n/a	n/a	n/a	ISITrial	Mixed
98.026	3.562	0.024	1165.026	60.0	3	0.9	-5.0	20.5256	955.0	0.4	Outcome2	-10.49	0.9	3.5625	Yes	n/a	11.392978482446198	n/a	n/a	n/a	TrialHappPreview	Mixed
101.604	4.012	0.016	1168.604	60.0	3	0.9	-5.0	20.5256	955.0	0.4	Outcome2	-10.49	0.9	3.5625	Yes	n/a	11.392978482446198	n/a	n/a	476.0	TrialHappiness	Mixed
101.604	1.448	n/a	1169.019	60.0	3	0.9	-5.0	20.5256	955.0	0.4	Outcome2	-10.49	0.9	3.5625	Yes	n/a	11.392978482446198	n/a	n/a	476.0	TrialHappinessSliderResponse	Mixed
105.616	6.25	4.012	1172.616	60.0	3	0.9	-5.0	20.5256	955.0	0.4	Outcome2	-10.49	0.9	3.5625	Yes	n/a	11.392978482446198	n/a	n/a	n/a	ISIRate	Mixed
111.885	3.0	0.019	1178.885	61.0	3	6.06	3.03	21.2831	955.0	5.0	Outcome1	6.06	8.3	0.0	No	2.0	-2.24452623631559	0.992	112.877	n/a	GetAnswer	Gain
112.904	4.0	0.027	1179.904	61.0	3	6.06	3.03	21.2831	955.0	5.0	Outcome1	6.06	8.3	0.0	No	n/a	-2.24452623631559	n/a	n/a	n/a	ShowChoice	Gain
116.916	1.0	0.012	1183.916	61.0	3	6.06	3.03	21.2831	955.0	5.0	Outcome1	6.06	8.3	0.0	No	n/a	-2.24452623631559	n/a	n/a	n/a	ShowResult	Gain
117.936	4.586	0.02	1184.936	61.0	3	6.06	3.03	21.2831	955.0	5.0	Outcome1	6.06	8.3	0.0	No	n/a	-2.24452623631559	n/a	n/a	n/a	ISITrial	Gain
122.55	3.0	0.028	1189.55	62.0	3	6.41	3.2	22.0843	955.0	1.82	Outcome2	8.7	6.41	3.74875	Yes	2.0	-2.28973197432994	0.914	123.464	n/a	GetAnswer	Gain
123.486	4.0	0.022	1190.486	62.0	3	6.41	3.2	22.0843	955.0	1.82	Outcome2	8.7	6.41	3.74875	Yes	n/a	-2.28973197432994	n/a	n/a	n/a	ShowChoice	Gain
127.498	1.0	0.012	1194.498	62.0	3	6.41	3.2	22.0843	955.0	1.82	Outcome2	8.7	6.41	3.74875	Yes	n/a	-2.28973197432994	n/a	n/a	n/a	ShowResult	Gain
128.518	5.212	0.02	1195.518	62.0	3	6.41	3.2	22.0843	955.0	1.82	Outcome2	8.7	6.41	3.74875	Yes	n/a	-2.28973197432994	n/a	n/a	n/a	ISITrial	Gain
133.75	3.749	0.02	1200.75	62.0	3	6.41	3.2	22.0843	955.0	1.82	Outcome2	8.7	6.41	3.74875	Yes	n/a	-2.28973197432994	n/a	n/a	n/a	TrialHappPreview	Gain
137.528	4.012	0.029	1204.528	62.0	3	6.41	3.2	22.0843	955.0	1.82	Outcome2	8.7	6.41	3.74875	Yes	n/a	-2.28973197432994	n/a	n/a	608.0	TrialHappiness	Gain
137.528	1.019	n/a	1204.904	62.0	3	6.41	3.2	22.0843	955.0	1.82	Outcome2	8.7	6.41	3.74875	Yes	n/a	-2.28973197432994	n/a	n/a	608.0	TrialHappinessSliderResponse	Gain
141.54	6.995	4.012	1208.54	62.0	3	6.41	3.2	22.0843	955.0	1.82	Outcome2	8.7	6.41	3.74875	Yes	n/a	-2.28973197432994	n/a	n/a	n/a	ISIRate	Gain
148.561	3.0	0.026	1215.561	63.0	3	2.7	-2.0	22.4218	955.0	0.3	Outcome2	-7.89	2.7	0.0	No	2.0	10.5877689694224	1.157	149.718	n/a	GetAnswer	Mixed
149.731	4.0	0.013	1216.731	63.0	3	2.7	-2.0	22.4218	955.0	0.3	Outcome2	-7.89	2.7	0.0	No	n/a	10.5877689694224	n/a	n/a	n/a	ShowChoice	Mixed
153.743	1.0	0.012	1220.743	63.0	3	2.7	-2.0	22.4218	955.0	0.3	Outcome2	-7.89	2.7	0.0	No	n/a	10.5877689694224	n/a	n/a	n/a	ShowResult	Mixed
154.763	5.595	0.02	1221.763	63.0	3	2.7	-2.0	22.4218	955.0	0.3	Outcome2	-7.89	2.7	0.0	No	n/a	10.5877689694224	n/a	n/a	n/a	ISITrial	Mixed
160.379	3.0	0.021	1227.379	64.0	3	-5.0	-5.0	21.7968	955.0	1.5	Certain	0.1	-10.88	0.0	No	4.0	10.9807474518686	1.282	161.661	n/a	GetAnswer	Mixed
161.683	4.0	0.022	1228.683	64.0	3	-5.0	-5.0	21.7968	955.0	1.5	Certain	0.1	-10.88	0.0	No	n/a	10.9807474518686	n/a	n/a	n/a	ShowChoice	Mixed
165.695	1.0	0.012	1232.695	64.0	3	-5.0	-5.0	21.7968	955.0	1.5	Certain	0.1	-10.88	0.0	No	n/a	10.9807474518686	n/a	n/a	n/a	ShowResult	Mixed
166.715	5.47	0.02	1233.715	64.0	3	-5.0	-5.0	21.7968	955.0	1.5	Certain	0.1	-10.88	0.0	No	n/a	10.9807474518686	n/a	n/a	n/a	ISITrial	Mixed
172.215	3.0	0.03	1239.215	65.0	3	11.64	5.82	23.2518	955.0	2.8	Outcome1	11.64	13.5	2.99675	Yes	2.0	-1.86476028690072	0.832	173.047	n/a	GetAnswer	Loss
173.067	4.0	0.02	1240.067	65.0	3	11.64	5.82	23.2518	955.0	2.8	Outcome1	11.64	13.5	2.99675	Yes	n/a	-1.86476028690072	n/a	n/a	n/a	ShowChoice	Loss
177.079	1.0	0.012	1244.079	65.0	3	11.64	5.82	23.2518	955.0	2.8	Outcome1	11.64	13.5	2.99675	Yes	n/a	-1.86476028690072	n/a	n/a	n/a	ShowResult	Loss
178.099	3.344	0.02	1245.099	65.0	3	11.64	5.82	23.2518	955.0	2.8	Outcome1	11.64	13.5	2.99675	Yes	n/a	-1.86476028690072	n/a	n/a	n/a	ISITrial	Loss
181.459	2.997	0.016	1248.459	65.0	3	11.64	5.82	23.2518	955.0	2.8	Outcome1	11.64	13.5	2.99675	Yes	n/a	-1.86476028690072	n/a	n/a	n/a	TrialHappPreview	Loss
184.485	4.012	0.029	1251.485	65.0	3	11.64	5.82	23.2518	955.0	2.8	Outcome1	11.64	13.5	2.99675	Yes	n/a	-1.86476028690072	n/a	n/a	512.0	TrialHappiness	Loss
184.485	0.0	n/a	1251.485	65.0	3	11.64	5.82	23.2518	955.0	2.8	Outcome1	11.64	13.5	2.99675	Yes	n/a	-1.86476028690072	n/a	n/a	512.0	TrialHappinessSliderResponse	Loss
188.497	3.987	4.012	1255.497	65.0	3	11.64	5.82	23.2518	955.0	2.8	Outcome1	11.64	13.5	2.99675	Yes	n/a	-1.86476028690072	n/a	n/a	n/a	ISIRate	Loss
192.509	3.0	0.025	1259.509	66.0	3	10.5	-1.45	24.5643	955.0	1.68	Outcome1	10.5	-2.9	0.0	No	2.0	13.3975084937712	1.407	193.916	n/a	GetAnswer	Loss
193.93	4.0	0.014	1260.93	66.0	3	10.5	-1.45	24.5643	955.0	1.68	Outcome1	10.5	-2.9	0.0	No	n/a	13.3975084937712	n/a	n/a	n/a	ShowChoice	Loss
197.942	1.0	0.012	1264.942	66.0	3	10.5	-1.45	24.5643	955.0	1.68	Outcome1	10.5	-2.9	0.0	No	n/a	13.3975084937712	n/a	n/a	n/a	ShowResult	Loss
198.961	3.959	0.019	1265.961	66.0	3	10.5	-1.45	24.5643	955.0	1.68	Outcome1	10.5	-2.9	0.0	No	n/a	13.3975084937712	n/a	n/a	n/a	ISITrial	Loss
202.94	3.0	0.02	1269.94	67.0	3	-2.0	-2.0	24.3143	955.0	0.2	Certain	-1.5	-3.83	2.9185	Yes	4.0	-2.328897697244241	1.246	204.186	n/a	GetAnswer	Mixed
204.21	4.0	0.024	1271.21	67.0	3	-2.0	-2.0	24.3143	955.0	0.2	Certain	-1.5	-3.83	2.9185	Yes	n/a	-2.328897697244241	n/a	n/a	n/a	ShowChoice	Mixed
208.222	1.0	0.012	1275.222	67.0	3	-2.0	-2.0	24.3143	955.0	0.2	Certain	-1.5	-3.83	2.9185	Yes	n/a	-2.328897697244241	n/a	n/a	n/a	ShowResult	Mixed
209.242	4.199	0.02	1276.242	67.0	3	-2.0	-2.0	24.3143	955.0	0.2	Certain	-1.5	-3.83	2.9185	Yes	n/a	-2.328897697244241	n/a	n/a	n/a	ISITrial	Mixed
213.455	2.918	0.014	1280.455	67.0	3	-2.0	-2.0	24.3143	955.0	0.2	Certain	-1.5	-3.83	2.9185	Yes	n/a	-2.328897697244241	n/a	n/a	n/a	TrialHappPreview	Mixed
216.397	4.012	0.024	1283.397	67.0	3	-2.0	-2.0	24.3143	955.0	0.2	Certain	-1.5	-3.83	2.9185	Yes	n/a	-2.328897697244241	n/a	n/a	512.0	TrialHappiness	Mixed
216.397	0.0	n/a	1283.397	67.0	3	-2.0	-2.0	24.3143	955.0	0.2	Certain	-1.5	-3.83	2.9185	Yes	n/a	-2.328897697244241	n/a	n/a	512.0	TrialHappinessSliderResponse	Mixed
220.409	3.674	4.012	1287.409	67.0	3	-2.0	-2.0	24.3143	955.0	0.2	Certain	-1.5	-3.83	2.9185	Yes	n/a	-2.328897697244241	n/a	n/a	n/a	ISIRate	Mixed
224.103	3.0	0.02	1291.103	68.0	3	6.5	0.0	25.1268	955.0	1.68	Outcome2	-7.9	6.5	0.0	No	2.0	14.400906002265	1.061	225.164	n/a	GetAnswer	Gain
225.19	4.0	0.026	1292.19	68.0	3	6.5	0.0	25.1268	955.0	1.68	Outcome2	-7.9	6.5	0.0	No	n/a	14.400906002265	n/a	n/a	n/a	ShowChoice	Gain
229.202	1.0	0.012	1296.202	68.0	3	6.5	0.0	25.1268	955.0	1.68	Outcome2	-7.9	6.5	0.0	No	n/a	14.400906002265	n/a	n/a	n/a	ShowResult	Gain
230.221	2.185	0.019	1297.221	68.0	3	6.5	0.0	25.1268	955.0	1.68	Outcome2	-7.9	6.5	0.0	No	n/a	14.400906002265	n/a	n/a	n/a	ISITrial	Gain
232.428	3.0	0.022	1299.428	69.0	3	-2.1	-2.1	24.8643	955.0	1.82	Certain	10.7	-4.2	0.0	No	4.0	14.9026047565119	1.238	233.666	n/a	GetAnswer	Loss
233.682	4.0	0.016	1300.682	69.0	3	-2.1	-2.1	24.8643	955.0	1.82	Certain	10.7	-4.2	0.0	No	n/a	14.9026047565119	n/a	n/a	n/a	ShowChoice	Loss
237.694	1.0	0.012	1304.694	69.0	3	-2.1	-2.1	24.8643	955.0	1.82	Certain	10.7	-4.2	0.0	No	n/a	14.9026047565119	n/a	n/a	n/a	ShowResult	Loss
238.713	2.0	0.019	1305.713	69.0	3	-2.1	-2.1	24.8643	955.0	1.82	Certain	10.7	-4.2	0.0	No	n/a	14.9026047565119	n/a	n/a	n/a	ISITrial	Loss
240.736	3.0	0.023	1307.736	70.0	3	0.0	0.0	24.8643	955.0	3.16	Certain	7.7	-7.7	3.65125	Yes	4.0	15.4043035107588	1.028	241.764	n/a	GetAnswer	Gain
241.789	4.0	0.025	1308.789	70.0	3	0.0	0.0	24.8643	955.0	3.16	Certain	7.7	-7.7	3.65125	Yes	n/a	15.4043035107588	n/a	n/a	n/a	ShowChoice	Gain
245.801	1.0	0.012	1312.801	70.0	3	0.0	0.0	24.8643	955.0	3.16	Certain	7.7	-7.7	3.65125	Yes	n/a	15.4043035107588	n/a	n/a	n/a	ShowResult	Gain
246.821	2.623	0.02	1313.821	70.0	3	0.0	0.0	24.8643	955.0	3.16	Certain	7.7	-7.7	3.65125	Yes	n/a	15.4043035107588	n/a	n/a	n/a	ISITrial	Gain
249.462	3.651	0.018	1316.462	70.0	3	0.0	0.0	24.8643	955.0	3.16	Certain	7.7	-7.7	3.65125	Yes	n/a	15.4043035107588	n/a	n/a	n/a	TrialHappPreview	Gain
253.14	4.012	0.027	1320.14	70.0	3	0.0	0.0	24.8643	955.0	3.16	Certain	7.7	-7.7	3.65125	Yes	4{-4}2{-2}	15.4043035107588	2.045	255.185	512.0	TrialHappiness	Gain
253.14	0.855	n/a	1321.33	70.0	3	0.0	0.0	24.8643	955.0	3.16	Certain	7.7	-7.7	3.65125	Yes	n/a	15.4043035107588	n/a	n/a	512.0	TrialHappinessSliderResponse	Gain
257.152	6.605	4.012	1324.152	70.0	3	0.0	0.0	24.8643	955.0	3.16	Certain	7.7	-7.7	3.65125	Yes	n/a	15.4043035107588	n/a	n/a	n/a	ISIRate	Gain
263.788	3.0	0.031	1330.788	71.0	3	10.9	-2.5	26.2268	955.0	2.0	Outcome2	-5.01	10.9	0.0	No	2.0	15.906002265005698	0.874	264.662	n/a	GetAnswer	Loss
264.674	4.0	0.012	1331.674	71.0	3	10.9	-2.5	26.2268	955.0	2.0	Outcome2	-5.01	10.9	0.0	No	n/a	15.906002265005698	n/a	n/a	n/a	ShowChoice	Loss
268.686	1.0	0.012	1335.686	71.0	3	10.9	-2.5	26.2268	955.0	2.0	Outcome2	-5.01	10.9	0.0	No	n/a	15.906002265005698	n/a	n/a	n/a	ShowResult	Loss
269.706	5.499	0.02	1336.706	71.0	3	10.9	-2.5	26.2268	955.0	2.0	Outcome2	-5.01	10.9	0.0	No	n/a	15.906002265005698	n/a	n/a	n/a	ISITrial	Loss
275.222	3.0	0.017	1342.222	72.0	3	2.3	-6.0	26.5143	955.0	2.0	Outcome1	2.3	-14.11	3.0805	Yes	2.0	16.4077010192525	1.156	276.378	n/a	GetAnswer	Mixed
276.392	4.0	0.014	1343.392	72.0	3	2.3	-6.0	26.5143	955.0	2.0	Outcome1	2.3	-14.11	3.0805	Yes	n/a	16.4077010192525	n/a	n/a	n/a	ShowChoice	Mixed
280.404	1.0	0.012	1347.404	72.0	3	2.3	-6.0	26.5143	955.0	2.0	Outcome1	2.3	-14.11	3.0805	Yes	n/a	16.4077010192525	n/a	n/a	n/a	ShowResult	Mixed
281.424	5.672	0.02	1348.424	72.0	3	2.3	-6.0	26.5143	955.0	2.0	Outcome1	2.3	-14.11	3.0805	Yes	n/a	16.4077010192525	n/a	n/a	n/a	ISITrial	Mixed
287.108	3.08	0.012	1354.108	72.0	3	2.3	-6.0	26.5143	955.0	2.0	Outcome1	2.3	-14.11	3.0805	Yes	n/a	16.4077010192525	n/a	n/a	n/a	TrialHappPreview	Mixed
290.217	4.012	0.029	1357.217	72.0	3	2.3	-6.0	26.5143	955.0	2.0	Outcome1	2.3	-14.11	3.0805	Yes	n/a	16.4077010192525	n/a	n/a	512.0	TrialHappiness	Mixed
290.218	0.0	n/a	1357.218	72.0	3	2.3	-6.0	26.5143	955.0	2.0	Outcome1	2.3	-14.11	3.0805	Yes	n/a	16.4077010192525	n/a	n/a	512.0	TrialHappinessSliderResponse	Mixed
294.229	4.322	4.012	1361.229	72.0	3	2.3	-6.0	26.5143	955.0	2.0	Outcome1	2.3	-14.11	3.0805	Yes	n/a	16.4077010192525	n/a	n/a	n/a	ISIRate	Mixed
298.575	3.0	0.024	1365.575	73.0	3	-6.0	-6.0	25.7643	955.0	1.2	Certain	1.9	-15.01	0.0	No	4.0	16.909399773499402	2.095	300.67	n/a	GetAnswer	Mixed
300.682	4.0	0.012	1367.682	73.0	3	-6.0	-6.0	25.7643	955.0	1.2	Certain	1.9	-15.01	0.0	No	n/a	16.909399773499402	n/a	n/a	n/a	ShowChoice	Mixed
304.694	1.0	0.012	1371.694	73.0	3	-6.0	-6.0	25.7643	955.0	1.2	Certain	1.9	-15.01	0.0	No	n/a	16.909399773499402	n/a	n/a	n/a	ShowResult	Mixed
305.713	4.616	0.019	1372.713	73.0	3	-6.0	-6.0	25.7643	955.0	1.2	Certain	1.9	-15.01	0.0	No	n/a	16.909399773499402	n/a	n/a	n/a	ISITrial	Mixed
310.361	3.0	0.032	1377.361	74.0	3	-3.72	-2.0	25.2993	955.0	0.4	Outcome2	-1.1	-3.72	3.05625	Yes	2.0	-2.62155530388826	0.628	310.989	n/a	GetAnswer	Mixed
311.013	4.0	0.024	1378.013	74.0	3	-3.72	-2.0	25.2993	955.0	0.4	Outcome2	-1.1	-3.72	3.05625	Yes	n/a	-2.62155530388826	n/a	n/a	n/a	ShowChoice	Mixed
315.025	1.0	0.012	1382.025	74.0	3	-3.72	-2.0	25.2993	955.0	0.4	Outcome2	-1.1	-3.72	3.05625	Yes	n/a	-2.62155530388826	n/a	n/a	n/a	ShowResult	Mixed
316.044	3.909	0.019	1383.044	74.0	3	-3.72	-2.0	25.2993	955.0	0.4	Outcome2	-1.1	-3.72	3.05625	Yes	n/a	-2.62155530388826	n/a	n/a	n/a	ISITrial	Mixed
319.973	3.056	0.02	1386.973	74.0	3	-3.72	-2.0	25.2993	955.0	0.4	Outcome2	-1.1	-3.72	3.05625	Yes	n/a	-2.62155530388826	n/a	n/a	n/a	TrialHappPreview	Mixed
323.048	4.012	0.019	1390.048	74.0	3	-3.72	-2.0	25.2993	955.0	0.4	Outcome2	-1.1	-3.72	3.05625	Yes	n/a	-2.62155530388826	n/a	n/a	512.0	TrialHappiness	Mixed
323.049	0.0	n/a	1390.049	74.0	3	-3.72	-2.0	25.2993	955.0	0.4	Outcome2	-1.1	-3.72	3.05625	Yes	n/a	-2.62155530388826	n/a	n/a	512.0	TrialHappinessSliderResponse	Mixed
327.06	4.225	4.012	1394.06	74.0	3	-3.72	-2.0	25.2993	955.0	0.4	Outcome2	-1.1	-3.72	3.05625	Yes	n/a	-2.62155530388826	n/a	n/a	n/a	ISIRate	Mixed
331.306	3.0	0.021	1398.306	75.0	3	3.3	-5.0	25.7118	955.0	0.66	Outcome1	3.3	-14.61	0.0	No	2.0	17.9127972819932	0.959	332.265	n/a	GetAnswer	Mixed
332.276	4.0	0.011	1399.276	75.0	3	3.3	-5.0	25.7118	955.0	0.66	Outcome1	3.3	-14.61	0.0	No	n/a	17.9127972819932	n/a	n/a	n/a	ShowChoice	Mixed
336.288	1.0	0.012	1403.288	75.0	3	3.3	-5.0	25.7118	955.0	0.66	Outcome1	3.3	-14.61	0.0	No	n/a	17.9127972819932	n/a	n/a	n/a	ShowResult	Mixed
337.308	4.979	0.02	1404.308	75.0	3	3.3	-5.0	25.7118	955.0	0.66	Outcome1	3.3	-14.61	0.0	No	n/a	17.9127972819932	n/a	n/a	n/a	ISITrial	Mixed
342.306	3.0	0.019	1409.306	76.0	3	0.0	0.0	25.7118	955.0	0.52	Certain	-1.61	1.1	0.0	No	4.0	-2.7051717629294103	0.902	343.208	n/a	GetAnswer	Mixed
343.225	4.0	0.017	1410.225	76.0	3	0.0	0.0	25.7118	955.0	0.52	Certain	-1.61	1.1	0.0	No	n/a	-2.7051717629294103	n/a	n/a	n/a	ShowChoice	Mixed
347.237	1.0	0.012	1414.237	76.0	3	0.0	0.0	25.7118	955.0	0.52	Certain	-1.61	1.1	0.0	No	n/a	-2.7051717629294103	n/a	n/a	n/a	ShowResult	Mixed
348.257	3.931	0.02	1415.257	76.0	3	0.0	0.0	25.7118	955.0	0.52	Certain	-1.61	1.1	0.0	No	n/a	-2.7051717629294103	n/a	n/a	n/a	ISITrial	Mixed
352.219	3.0	0.031	1419.219	77.0	3	1.3	-8.0	25.8743	955.0	0.66	Outcome2	-17.62	1.3	4.0	Yes	2.0	18.916194790487	0.872	353.091	n/a	GetAnswer	Mixed
353.105	4.0	0.014	1420.105	77.0	3	1.3	-8.0	25.8743	955.0	0.66	Outcome2	-17.62	1.3	4.0	Yes	n/a	18.916194790487	n/a	n/a	n/a	ShowChoice	Mixed
357.117	1.0	0.012	1424.117	77.0	3	1.3	-8.0	25.8743	955.0	0.66	Outcome2	-17.62	1.3	4.0	Yes	n/a	18.916194790487	n/a	n/a	n/a	ShowResult	Mixed
358.137	7.022	0.02	1425.137	77.0	3	1.3	-8.0	25.8743	955.0	0.66	Outcome2	-17.62	1.3	4.0	Yes	n/a	18.916194790487	n/a	n/a	n/a	ISITrial	Mixed
365.174	4.0	0.015	1432.174	77.0	3	1.3	-8.0	25.8743	955.0	0.66	Outcome2	-17.62	1.3	4.0	Yes	n/a	18.916194790487	n/a	n/a	n/a	TrialHappPreview	Mixed
369.203	4.012	0.029	1436.203	77.0	3	1.3	-8.0	25.8743	955.0	0.66	Outcome2	-17.62	1.3	4.0	Yes	n/a	18.916194790487	n/a	n/a	576.0	TrialHappiness	Mixed
369.204	1.965	n/a	1436.476	77.0	3	1.3	-8.0	25.8743	955.0	0.66	Outcome2	-17.62	1.3	4.0	Yes	n/a	18.916194790487	n/a	n/a	576.0	TrialHappinessSliderResponse	Mixed
373.215	8.0	4.012	1440.215	77.0	3	1.3	-8.0	25.8743	955.0	0.66	Outcome2	-17.62	1.3	4.0	Yes	n/a	18.916194790487	n/a	n/a	n/a	ISIRate	Mixed
381.239	3.0	0.024	1448.239	78.0	3	4.3	-5.0	26.4118	955.0	2.0	Outcome2	-14.03	4.3	0.0	No	2.0	18.330690826727103	1.885	383.124	n/a	GetAnswer	Mixed
383.145	4.0	0.021	1450.145	78.0	3	4.3	-5.0	26.4118	955.0	2.0	Outcome2	-14.03	4.3	0.0	No	n/a	18.330690826727103	n/a	n/a	n/a	ShowChoice	Mixed
387.157	1.0	0.012	1454.157	78.0	3	4.3	-5.0	26.4118	955.0	2.0	Outcome2	-14.03	4.3	0.0	No	n/a	18.330690826727103	n/a	n/a	n/a	ShowResult	Mixed
388.176	2.078	0.019	1455.176	78.0	3	4.3	-5.0	26.4118	955.0	2.0	Outcome2	-14.03	4.3	0.0	No	n/a	18.330690826727103	n/a	n/a	n/a	ISITrial	Mixed
390.283	3.0	0.029	1457.283	79.0	3	2.34	1.17	26.7043	955.0	2.0	Outcome2	4.9	2.34	2.7295	Yes	2.0	-2.5648357870894705	0.823	391.106	n/a	GetAnswer	Gain
391.118	4.0	0.012	1458.118	79.0	3	2.34	1.17	26.7043	955.0	2.0	Outcome2	4.9	2.34	2.7295	Yes	n/a	-2.5648357870894705	n/a	n/a	n/a	ShowChoice	Gain
395.13	1.0	0.012	1462.13	79.0	3	2.34	1.17	26.7043	955.0	2.0	Outcome2	4.9	2.34	2.7295	Yes	n/a	-2.5648357870894705	n/a	n/a	n/a	ShowResult	Gain
396.15	3.829	0.02	1463.15	79.0	3	2.34	1.17	26.7043	955.0	2.0	Outcome2	4.9	2.34	2.7295	Yes	n/a	-2.5648357870894705	n/a	n/a	n/a	ISITrial	Gain
399.995	2.73	0.016	1466.995	79.0	3	2.34	1.17	26.7043	955.0	2.0	Outcome2	4.9	2.34	2.7295	Yes	n/a	-2.5648357870894705	n/a	n/a	n/a	TrialHappPreview	Gain
402.753	4.012	0.028	1469.753	79.0	3	2.34	1.17	26.7043	955.0	2.0	Outcome2	4.9	2.34	2.7295	Yes	n/a	-2.5648357870894705	n/a	n/a	548.0	TrialHappiness	Gain
402.754	1.456	n/a	1469.857	79.0	3	2.34	1.17	26.7043	955.0	2.0	Outcome2	4.9	2.34	2.7295	Yes	n/a	-2.5648357870894705	n/a	n/a	548.0	TrialHappinessSliderResponse	Gain
406.765	2.918	4.012	1473.765	79.0	3	2.34	1.17	26.7043	955.0	2.0	Outcome2	4.9	2.34	2.7295	Yes	n/a	-2.5648357870894705	n/a	n/a	n/a	ISIRate	Gain
409.707	3.0	0.024	1476.707	80.0	3	4.39	2.19	27.2531	955.0	2.22	Outcome1	4.39	7.1	0.0	No	2.0	-2.7142317855794595	0.701	410.408	n/a	GetAnswer	Gain
410.426	4.0	0.018	1477.426	80.0	3	4.39	2.19	27.2531	955.0	2.22	Outcome1	4.39	7.1	0.0	No	n/a	-2.7142317855794595	n/a	n/a	n/a	ShowChoice	Gain
414.438	1.0	0.012	1481.438	80.0	3	4.39	2.19	27.2531	955.0	2.22	Outcome1	4.39	7.1	0.0	No	n/a	-2.7142317855794595	n/a	n/a	n/a	ShowResult	Gain
415.458	3.336	0.02	1482.458	80.0	3	4.39	2.19	27.2531	955.0	2.22	Outcome1	4.39	7.1	0.0	No	n/a	-2.7142317855794595	n/a	n/a	n/a	ISITrial	Gain
418.818	3.0	0.024	1485.818	81.0	3	11.3	1.0	28.6656	955.0	2.48	Outcome2	-8.83	11.3	3.92375	Yes	2.0	20.1257078142695	0.72	419.538	n/a	GetAnswer	Loss
419.553	4.0	0.015	1486.553	81.0	3	11.3	1.0	28.6656	955.0	2.48	Outcome2	-8.83	11.3	3.92375	Yes	n/a	20.1257078142695	n/a	n/a	n/a	ShowChoice	Loss
423.565	1.0	0.012	1490.565	81.0	3	11.3	1.0	28.6656	955.0	2.48	Outcome2	-8.83	11.3	3.92375	Yes	n/a	20.1257078142695	n/a	n/a	n/a	ShowResult	Loss
424.585	3.919	0.02	1491.585	81.0	3	11.3	1.0	28.6656	955.0	2.48	Outcome2	-8.83	11.3	3.92375	Yes	n/a	20.1257078142695	n/a	n/a	n/a	ISITrial	Loss
428.53	3.924	0.026	1495.53	81.0	3	11.3	1.0	28.6656	955.0	2.48	Outcome2	-8.83	11.3	3.92375	Yes	n/a	20.1257078142695	n/a	n/a	n/a	TrialHappPreview	Loss
432.475	4.012	0.021	1499.475	81.0	3	11.3	1.0	28.6656	955.0	2.48	Outcome2	-8.83	11.3	3.92375	Yes	n/a	20.1257078142695	n/a	n/a	568.0	TrialHappiness	Loss
432.476	0.268	n/a	1499.951	81.0	3	11.3	1.0	28.6656	955.0	2.48	Outcome2	-8.83	11.3	3.92375	Yes	n/a	20.1257078142695	n/a	n/a	568.0	TrialHappinessSliderResponse	Loss
436.487	7.695	4.012	1503.487	81.0	3	11.3	1.0	28.6656	955.0	2.48	Outcome2	-8.83	11.3	3.92375	Yes	n/a	20.1257078142695	n/a	n/a	n/a	ISIRate	Loss
444.21	3.0	0.028	1511.21	n/a	3	n/a	n/a	n/a	n/a	n/a	n/a	n/a	n/a	n/a	n/a	n/a	n/a	n/a	n/a	n/a	CurrentEarnings	n/a
447.236	-0.001	0.026	1514.236	n/a	3	n/a	n/a	n/a	n/a	n/a	n/a	n/a	n/a	n/a	n/a	{SPACE}	n/a	144.517	591.753	n/a	Goodbye	n/a
