onset	duration	onset_delay	onset_unadjusted	trial_number	block	amount_change	certain_amount	current_amount	mood_target	multiplier	outcome	outcome1_amount	outcome2_amount	question_duration	rating	response	rpe	rt	rt_time	slider_response	trial_phase	trial_type
-86.21	-0.001	0.018	35.356	n/a	0	n/a	n/a	n/a	n/a	n/a	n/a	n/a	n/a	n/a	n/a	{SPACE}	n/a	2.284	-83.926	n/a	Welcome	n/a
-83.9	5.0	0.026	37.666	n/a	0	n/a	n/a	n/a	n/a	n/a	n/a	n/a	n/a	n/a	n/a	n/a	n/a	n/a	n/a	n/a	LifeHappyPreview	n/a
-78.869	4.946	0.031	42.697	n/a	0	n/a	n/a	n/a	n/a	n/a	n/a	n/a	n/a	n/a	n/a	n/a	n/a	n/a	n/a	704.0	LifeHappiness	n/a
-78.868	2.762	n/a	44.882	n/a	0	n/a	n/a	n/a	n/a	n/a	n/a	n/a	n/a	n/a	n/a	n/a	n/a	n/a	n/a	704.0	LifeHappinessSliderResponse	n/a
-60.414	4.0	0.024	61.152	n/a	0	n/a	n/a	n/a	n/a	n/a	n/a	n/a	n/a	n/a	n/a	n/a	n/a	n/a	n/a	n/a	BlockHappyPreview	n/a
-56.402	1.027	0.012	65.164	n/a	0	n/a	n/a	n/a	n/a	n/a	n/a	n/a	n/a	n/a	n/a	n/a	n/a	n/a	n/a	560.0	BlockStartHappiness	n/a
-56.401	0.244	n/a	65.948	n/a	0	n/a	n/a	n/a	n/a	n/a	n/a	n/a	n/a	n/a	n/a	n/a	n/a	n/a	n/a	560.0	BlockStartHappinessSliderResponse	n/a
-2.775	-0.001	0.017	118.791	n/a	0	n/a	n/a	n/a	n/a	n/a	n/a	n/a	n/a	n/a	n/a	5.0	n/a	2.749	-0.026	n/a	ScanWait	n/a
0.0	10.0	0.026	121.566	n/a	1	n/a	n/a	n/a	n/a	n/a	n/a	n/a	n/a	n/a	n/a	n/a	n/a	n/a	n/a	n/a	GetReady	n/a
10.03	3.0	0.03	131.596	1.0	1	0.0	0.0	10.0	955.0	0.3	Certain	-4.01	2.7	0.0	No	4.0	6.71007927519819	2.904	12.934	n/a	GetAnswer	Mixed
12.956	4.0	0.022	134.522	1.0	1	0.0	0.0	10.0	955.0	0.3	Certain	-4.01	2.7	0.0	No	n/a	6.71007927519819	n/a	n/a	n/a	ShowChoice	Mixed
16.985	1.0	0.029	138.551	1.0	1	0.0	0.0	10.0	955.0	0.3	Certain	-4.01	2.7	0.0	No	n/a	6.71007927519819	n/a	n/a	n/a	ShowResult	Mixed
18.004	2.431	0.019	139.57	1.0	1	0.0	0.0	10.0	955.0	0.3	Certain	-4.01	2.7	0.0	No	n/a	6.71007927519819	n/a	n/a	n/a	ISITrial	Mixed
20.462	3.0	0.027	142.028	2.0	1	-3.0	-3.0	9.625	955.0	1.2	Certain	-7.26	-0.1	0.0	No	4.0	7.15741789354473	2.699	23.161	n/a	GetAnswer	Mixed
23.186	4.0	0.025	144.752	2.0	1	-3.0	-3.0	9.625	955.0	1.2	Certain	-7.26	-0.1	0.0	No	n/a	7.15741789354473	n/a	n/a	n/a	ShowChoice	Mixed
27.198	1.0	0.012	148.764	2.0	1	-3.0	-3.0	9.625	955.0	1.2	Certain	-7.26	-0.1	0.0	No	n/a	7.15741789354473	n/a	n/a	n/a	ShowResult	Mixed
28.218	4.568	0.02	149.784	2.0	1	-3.0	-3.0	9.625	955.0	1.2	Certain	-7.26	-0.1	0.0	No	n/a	7.15741789354473	n/a	n/a	n/a	ISITrial	Mixed
32.815	3.0	0.029	154.381	3.0	1	6.7	-0.45	10.4625	955.0	1.82	Outcome2	-0.9	6.7	2.868	Yes	2.0	7.60475651189128	1.974	34.789	n/a	GetAnswer	Gain
34.821	4.0	0.032	156.387	3.0	1	6.7	-0.45	10.4625	955.0	1.82	Outcome2	-0.9	6.7	2.868	Yes	n/a	7.60475651189128	n/a	n/a	n/a	ShowChoice	Gain
38.85	1.0	0.029	160.416	3.0	1	6.7	-0.45	10.4625	955.0	1.82	Outcome2	-0.9	6.7	2.868	Yes	n/a	7.60475651189128	n/a	n/a	n/a	ShowResult	Gain
39.87	3.243	0.02	161.436	3.0	1	6.7	-0.45	10.4625	955.0	1.82	Outcome2	-0.9	6.7	2.868	Yes	n/a	7.60475651189128	n/a	n/a	n/a	ISITrial	Gain
43.129	2.868	0.016	164.695	3.0	1	6.7	-0.45	10.4625	955.0	1.82	Outcome2	-0.9	6.7	2.868	Yes	n/a	7.60475651189128	n/a	n/a	n/a	TrialHappPreview	Gain
46.021	4.029	0.024	167.587	3.0	1	6.7	-0.45	10.4625	955.0	1.82	Outcome2	-0.9	6.7	2.868	Yes	n/a	7.60475651189128	n/a	n/a	584.0	TrialHappiness	Gain
46.022	3.171	n/a	168.185	3.0	1	6.7	-0.45	10.4625	955.0	1.82	Outcome2	-0.9	6.7	2.868	Yes	n/a	7.60475651189128	n/a	n/a	584.0	TrialHappinessSliderResponse	Gain
50.05	3.472	4.029	171.616	3.0	1	6.7	-0.45	10.4625	955.0	1.82	Outcome2	-0.9	6.7	2.868	Yes	n/a	7.60475651189128	n/a	n/a	n/a	ISIRate	Gain
53.544	3.0	0.022	175.11	4.0	1	0.0	0.0	10.4625	955.0	1.5	Certain	-3.54	4.1	0.0	No	4.0	7.644394110985281	2.763	56.307	n/a	GetAnswer	Mixed
56.336	4.0	0.029	177.902	4.0	1	0.0	0.0	10.4625	955.0	1.5	Certain	-3.54	4.1	0.0	No	n/a	7.644394110985281	n/a	n/a	n/a	ShowChoice	Mixed
60.364	1.0	0.028	181.93	4.0	1	0.0	0.0	10.4625	955.0	1.5	Certain	-3.54	4.1	0.0	No	n/a	7.644394110985281	n/a	n/a	n/a	ShowResult	Mixed
61.384	2.011	0.02	182.95	4.0	1	0.0	0.0	10.4625	955.0	1.5	Certain	-3.54	4.1	0.0	No	n/a	7.644394110985281	n/a	n/a	n/a	ISITrial	Mixed
63.423	3.0	0.028	184.989	5.0	1	-1.0	-1.0	10.3375	955.0	0.52	Certain	-0.9	-2.55	2.5825	Yes	4.0	-1.65241600604002	2.537	65.96	n/a	GetAnswer	Mixed
65.981	4.0	0.02	187.547	5.0	1	-1.0	-1.0	10.3375	955.0	0.52	Certain	-0.9	-2.55	2.5825	Yes	n/a	-1.65241600604002	n/a	n/a	n/a	ShowChoice	Mixed
70.01	1.0	0.029	191.576	5.0	1	-1.0	-1.0	10.3375	955.0	0.52	Certain	-0.9	-2.55	2.5825	Yes	n/a	-1.65241600604002	n/a	n/a	n/a	ShowResult	Mixed
71.029	5.129	0.019	192.595	5.0	1	-1.0	-1.0	10.3375	955.0	0.52	Certain	-0.9	-2.55	2.5825	Yes	n/a	-1.65241600604002	n/a	n/a	n/a	ISITrial	Mixed
76.178	2.582	0.02	197.744	5.0	1	-1.0	-1.0	10.3375	955.0	0.52	Certain	-0.9	-2.55	2.5825	Yes	n/a	-1.65241600604002	n/a	n/a	n/a	TrialHappPreview	Mixed
78.786	4.029	0.026	200.352	5.0	1	-1.0	-1.0	10.3375	955.0	0.52	Certain	-0.9	-2.55	2.5825	Yes	n/a	-1.65241600604002	n/a	n/a	532.0	TrialHappiness	Mixed
78.787	0.137	n/a	201.346	5.0	1	-1.0	-1.0	10.3375	955.0	0.52	Certain	-0.9	-2.55	2.5825	Yes	n/a	-1.65241600604002	n/a	n/a	532.0	TrialHappinessSliderResponse	Mixed
82.815	2.33	4.029	204.381	5.0	1	-1.0	-1.0	10.3375	955.0	0.52	Certain	-0.9	-2.55	2.5825	Yes	n/a	-1.65241600604002	n/a	n/a	n/a	ISIRate	Mixed
85.172	3.0	0.027	206.738	6.0	1	5.7	1.0	11.05	955.0	3.16	Outcome1	5.7	-3.67	0.0	No	2.0	9.36806342015855	2.693	87.865	n/a	GetAnswer	Gain
87.88	4.0	0.015	209.446	6.0	1	5.7	1.0	11.05	955.0	3.16	Outcome1	5.7	-3.67	0.0	No	n/a	9.36806342015855	n/a	n/a	n/a	ShowChoice	Gain
91.909	1.0	0.029	213.475	6.0	1	5.7	1.0	11.05	955.0	3.16	Outcome1	5.7	-3.67	0.0	No	n/a	9.36806342015855	n/a	n/a	n/a	ShowResult	Gain
92.928	6.232	0.019	214.494	6.0	1	5.7	1.0	11.05	955.0	3.16	Outcome1	5.7	-3.67	0.0	No	n/a	9.36806342015855	n/a	n/a	n/a	ISITrial	Gain
99.18	3.0	0.02	220.746	7.0	1	4.7	0.0	11.6375	955.0	1.82	Outcome1	4.7	-5.15	0.0	No	n/a	9.84711211778029	n/a	n/a	n/a	GetAnswer	Gain
102.206	4.0	0.026	223.772	7.0	1	4.7	0.0	11.6375	955.0	1.82	Outcome1	4.7	-5.15	0.0	No	n/a	9.84711211778029	n/a	n/a	n/a	ShowChoice	Gain
106.235	1.0	0.029	227.801	7.0	1	4.7	0.0	11.6375	955.0	1.82	Outcome1	4.7	-5.15	0.0	No	n/a	9.84711211778029	n/a	n/a	n/a	ShowResult	Gain
107.254	2.305	0.019	228.82	7.0	1	4.7	0.0	11.6375	955.0	1.82	Outcome1	4.7	-5.15	0.0	No	n/a	9.84711211778029	n/a	n/a	n/a	ISITrial	Gain
109.578	3.0	0.019	231.144	8.0	1	7.1	2.0	12.525	955.0	2.22	Outcome2	-3.23	7.1	3.1125	Yes	2.0	10.326160815402	1.851	111.429	n/a	GetAnswer	Gain
111.45	4.0	0.021	233.016	8.0	1	7.1	2.0	12.525	955.0	2.22	Outcome2	-3.23	7.1	3.1125	Yes	n/a	10.326160815402	n/a	n/a	n/a	ShowChoice	Gain
115.479	1.0	0.029	237.045	8.0	1	7.1	2.0	12.525	955.0	2.22	Outcome2	-3.23	7.1	3.1125	Yes	n/a	10.326160815402	n/a	n/a	n/a	ShowResult	Gain
116.499	3.506	0.02	238.065	8.0	1	7.1	2.0	12.525	955.0	2.22	Outcome2	-3.23	7.1	3.1125	Yes	n/a	10.326160815402	n/a	n/a	n/a	ISITrial	Gain
120.026	3.112	0.021	241.592	8.0	1	7.1	2.0	12.525	955.0	2.22	Outcome2	-3.23	7.1	3.1125	Yes	n/a	10.326160815402	n/a	n/a	n/a	TrialHappPreview	Gain
123.169	4.028	0.031	244.735	8.0	1	7.1	2.0	12.525	955.0	2.22	Outcome2	-3.23	7.1	3.1125	Yes	n/a	10.326160815402	n/a	n/a	632.0	TrialHappiness	Gain
123.169	0.395	n/a	245.281	8.0	1	7.1	2.0	12.525	955.0	2.22	Outcome2	-3.23	7.1	3.1125	Yes	n/a	10.326160815402	n/a	n/a	632.0	TrialHappinessSliderResponse	Gain
127.197	4.45	4.028	248.763	8.0	1	7.1	2.0	12.525	955.0	2.22	Outcome2	-3.23	7.1	3.1125	Yes	n/a	10.326160815402	n/a	n/a	n/a	ISIRate	Gain
131.677	3.0	0.03	253.243	9.0	1	10.3	0.6	13.8125	955.0	5.0	Outcome1	10.3	1.19	0.0	No	2.0	9.10645526613817	1.433	133.11	n/a	GetAnswer	Gain
133.132	4.0	0.022	254.698	9.0	1	10.3	0.6	13.8125	955.0	5.0	Outcome1	10.3	1.19	0.0	No	n/a	9.10645526613817	n/a	n/a	n/a	ShowChoice	Gain
137.144	1.0	0.012	258.71	9.0	1	10.3	0.6	13.8125	955.0	5.0	Outcome1	10.3	1.19	0.0	No	n/a	9.10645526613817	n/a	n/a	n/a	ShowResult	Gain
138.164	2.0	0.02	259.73	9.0	1	10.3	0.6	13.8125	955.0	5.0	Outcome1	10.3	1.19	0.0	No	n/a	9.10645526613817	n/a	n/a	n/a	ISITrial	Gain
140.186	3.0	0.022	261.752	10.0	1	2.06	1.03	14.07	955.0	1.0	Outcome2	3.7	2.06	4.0	Yes	2.0	-1.6428841072102702	1.824	142.01	n/a	GetAnswer	Mixed
142.025	4.0	0.015	263.591	10.0	1	2.06	1.03	14.07	955.0	1.0	Outcome2	3.7	2.06	4.0	Yes	n/a	-1.6428841072102702	n/a	n/a	n/a	ShowChoice	Mixed
146.037	1.0	0.012	267.603	10.0	1	2.06	1.03	14.07	955.0	1.0	Outcome2	3.7	2.06	4.0	Yes	n/a	-1.6428841072102702	n/a	n/a	n/a	ShowResult	Mixed
147.057	2.0	0.02	268.623	10.0	1	2.06	1.03	14.07	955.0	1.0	Outcome2	3.7	2.06	4.0	Yes	n/a	-1.6428841072102702	n/a	n/a	n/a	ISITrial	Mixed
149.079	4.0	0.022	270.645	10.0	1	2.06	1.03	14.07	955.0	1.0	Outcome2	3.7	2.06	4.0	Yes	n/a	-1.6428841072102702	n/a	n/a	n/a	TrialHappPreview	Mixed
153.108	4.029	0.029	274.674	10.0	1	2.06	1.03	14.07	955.0	1.0	Outcome2	3.7	2.06	4.0	Yes	n/a	-1.6428841072102702	n/a	n/a	628.0	TrialHappiness	Mixed
153.109	2.38	n/a	275.19	10.0	1	2.06	1.03	14.07	955.0	1.0	Outcome2	3.7	2.06	4.0	Yes	n/a	-1.6428841072102702	n/a	n/a	628.0	TrialHappinessSliderResponse	Mixed
157.137	8.0	4.029	278.703	10.0	1	2.06	1.03	14.07	955.0	1.0	Outcome2	3.7	2.06	4.0	Yes	n/a	-1.6428841072102702	n/a	n/a	n/a	ISIRate	Mixed
165.161	3.0	0.024	286.727	11.0	1	13.1	1.6	15.7075	955.0	2.22	Outcome2	3.19	13.1	0.0	No	2.0	9.90600226500566	1.27	166.431	n/a	GetAnswer	Loss
166.448	4.0	0.017	288.014	11.0	1	13.1	1.6	15.7075	955.0	2.22	Outcome2	3.19	13.1	0.0	No	n/a	9.90600226500566	n/a	n/a	n/a	ShowChoice	Loss
170.46	1.0	0.012	292.026	11.0	1	13.1	1.6	15.7075	955.0	2.22	Outcome2	3.19	13.1	0.0	No	n/a	9.90600226500566	n/a	n/a	n/a	ShowResult	Loss
171.48	3.324	0.02	293.046	11.0	1	13.1	1.6	15.7075	955.0	2.22	Outcome2	3.19	13.1	0.0	No	n/a	9.90600226500566	n/a	n/a	n/a	ISITrial	Loss
174.823	3.0	0.019	296.389	12.0	1	10.18	5.09	16.98	955.0	3.6	Outcome1	10.18	11.9	2.61875	Yes	2.0	-1.72046055115138	1.029	175.852	n/a	GetAnswer	Loss
175.876	4.0	0.024	297.442	12.0	1	10.18	5.09	16.98	955.0	3.6	Outcome1	10.18	11.9	2.61875	Yes	n/a	-1.72046055115138	n/a	n/a	n/a	ShowChoice	Loss
179.905	1.0	0.029	301.471	12.0	1	10.18	5.09	16.98	955.0	3.6	Outcome1	10.18	11.9	2.61875	Yes	n/a	-1.72046055115138	n/a	n/a	n/a	ShowResult	Loss
180.925	6.642	0.02	302.491	12.0	1	10.18	5.09	16.98	955.0	3.6	Outcome1	10.18	11.9	2.61875	Yes	n/a	-1.72046055115138	n/a	n/a	n/a	ISITrial	Loss
187.595	2.619	0.028	309.161	12.0	1	10.18	5.09	16.98	955.0	3.6	Outcome1	10.18	11.9	2.61875	Yes	n/a	-1.72046055115138	n/a	n/a	n/a	TrialHappPreview	Loss
190.236	4.029	0.022	311.802	12.0	1	10.18	5.09	16.98	955.0	3.6	Outcome1	10.18	11.9	2.61875	Yes	n/a	-1.72046055115138	n/a	n/a	648.0	TrialHappiness	Loss
190.236	0.418	n/a	312.461	12.0	1	10.18	5.09	16.98	955.0	3.6	Outcome1	10.18	11.9	2.61875	Yes	n/a	-1.72046055115138	n/a	n/a	648.0	TrialHappinessSliderResponse	Loss
194.265	2.475	4.029	315.831	12.0	1	10.18	5.09	16.98	955.0	3.6	Outcome1	10.18	11.9	2.61875	Yes	n/a	-1.72046055115138	n/a	n/a	n/a	ISIRate	Loss
196.772	3.0	0.032	318.338	13.0	1	-5.0	-5.0	16.355	955.0	0.82	Certain	-0.5	-10.81	0.0	No	4.0	10.3069082672707	1.78	198.552	n/a	GetAnswer	Mixed
198.577	4.0	0.025	320.143	13.0	1	-5.0	-5.0	16.355	955.0	0.82	Certain	-0.5	-10.81	0.0	No	n/a	10.3069082672707	n/a	n/a	n/a	ShowChoice	Mixed
202.589	1.0	0.012	324.155	13.0	1	-5.0	-5.0	16.355	955.0	0.82	Certain	-0.5	-10.81	0.0	No	n/a	10.3069082672707	n/a	n/a	n/a	ShowResult	Mixed
203.609	3.48	0.02	325.175	13.0	1	-5.0	-5.0	16.355	955.0	0.82	Certain	-0.5	-10.81	0.0	No	n/a	10.3069082672707	n/a	n/a	n/a	ISITrial	Mixed
207.12	3.0	0.031	328.686	14.0	1	-2.8	-2.0	16.005	955.0	0.4	Outcome1	-2.8	-1.1	0.0	No	2.0	-1.6991317478293702	2.21	209.33	n/a	GetAnswer	Mixed
209.36	4.0	0.03	330.926	14.0	1	-2.8	-2.0	16.005	955.0	0.4	Outcome1	-2.8	-1.1	0.0	No	n/a	-1.6991317478293702	n/a	n/a	n/a	ShowChoice	Mixed
213.388	1.0	0.028	334.954	14.0	1	-2.8	-2.0	16.005	955.0	0.4	Outcome1	-2.8	-1.1	0.0	No	n/a	-1.6991317478293702	n/a	n/a	n/a	ShowResult	Mixed
214.408	5.019	0.02	335.974	14.0	1	-2.8	-2.0	16.005	955.0	0.4	Outcome1	-2.8	-1.1	0.0	No	n/a	-1.6991317478293702	n/a	n/a	n/a	ISITrial	Mixed
219.457	3.0	0.03	341.023	15.0	1	10.5	-0.25	17.3175	955.0	1.68	Outcome2	-0.5	10.5	3.3485	Yes	2.0	11.0022650056625	2.31	221.767	n/a	GetAnswer	Loss
221.797	4.0	0.03	343.363	15.0	1	10.5	-0.25	17.3175	955.0	1.68	Outcome2	-0.5	10.5	3.3485	Yes	n/a	11.0022650056625	n/a	n/a	n/a	ShowChoice	Loss
225.826	1.0	0.029	347.392	15.0	1	10.5	-0.25	17.3175	955.0	1.68	Outcome2	-0.5	10.5	3.3485	Yes	n/a	11.0022650056625	n/a	n/a	n/a	ShowResult	Loss
226.845	7.614	0.019	348.411	15.0	1	10.5	-0.25	17.3175	955.0	1.68	Outcome2	-0.5	10.5	3.3485	Yes	n/a	11.0022650056625	n/a	n/a	n/a	ISITrial	Loss
234.485	3.348	0.026	356.051	15.0	1	10.5	-0.25	17.3175	955.0	1.68	Outcome2	-0.5	10.5	3.3485	Yes	n/a	11.0022650056625	n/a	n/a	n/a	TrialHappPreview	Loss
237.862	4.028	0.029	359.428	15.0	1	10.5	-0.25	17.3175	955.0	1.68	Outcome2	-0.5	10.5	3.3485	Yes	n/a	11.0022650056625	n/a	n/a	628.0	TrialHappiness	Loss
237.862	1.198	n/a	360.088	15.0	1	10.5	-0.25	17.3175	955.0	1.68	Outcome2	-0.5	10.5	3.3485	Yes	n/a	11.0022650056625	n/a	n/a	628.0	TrialHappinessSliderResponse	Loss
241.89	5.394	4.028	363.456	15.0	1	10.5	-0.25	17.3175	955.0	1.68	Outcome2	-0.5	10.5	3.3485	Yes	n/a	11.0022650056625	n/a	n/a	n/a	ISIRate	Loss
247.307	3.0	0.023	368.873	16.0	1	-3.0	-3.0	16.9425	955.0	2.0	Certain	-9.39	2.3	0.0	No	4.0	11.689694224235598	1.889	249.196	n/a	GetAnswer	Mixed
249.212	4.0	0.016	370.778	16.0	1	-3.0	-3.0	16.9425	955.0	2.0	Certain	-9.39	2.3	0.0	No	n/a	11.689694224235598	n/a	n/a	n/a	ShowChoice	Mixed
253.241	1.0	0.029	374.807	16.0	1	-3.0	-3.0	16.9425	955.0	2.0	Certain	-9.39	2.3	0.0	No	n/a	11.689694224235598	n/a	n/a	n/a	ShowResult	Mixed
254.261	3.008	0.02	375.827	16.0	1	-3.0	-3.0	16.9425	955.0	2.0	Certain	-9.39	2.3	0.0	No	n/a	11.689694224235598	n/a	n/a	n/a	ISITrial	Mixed
257.286	3.0	0.017	378.852	17.0	1	0.03	1.0	16.9463	955.0	1.2	Outcome2	1.9	0.03	3.0415	Yes	2.0	-1.8691015477538704	1.529	258.815	n/a	GetAnswer	Mixed
258.841	4.0	0.026	380.407	17.0	1	0.03	1.0	16.9463	955.0	1.2	Outcome2	1.9	0.03	3.0415	Yes	n/a	-1.8691015477538704	n/a	n/a	n/a	ShowChoice	Mixed
262.87	1.0	0.029	384.436	17.0	1	0.03	1.0	16.9463	955.0	1.2	Outcome2	1.9	0.03	3.0415	Yes	n/a	-1.8691015477538704	n/a	n/a	n/a	ShowResult	Mixed
263.889	3.566	0.019	385.455	17.0	1	0.03	1.0	16.9463	955.0	1.2	Outcome2	1.9	0.03	3.0415	Yes	n/a	-1.8691015477538704	n/a	n/a	n/a	ISITrial	Mixed
267.484	3.042	0.029	389.05	17.0	1	0.03	1.0	16.9463	955.0	1.2	Outcome2	1.9	0.03	3.0415	Yes	n/a	-1.8691015477538704	n/a	n/a	n/a	TrialHappPreview	Mixed
270.543	4.028	0.017	392.109	17.0	1	0.03	1.0	16.9463	955.0	1.2	Outcome2	1.9	0.03	3.0415	Yes	n/a	-1.8691015477538704	n/a	n/a	632.0	TrialHappiness	Mixed
270.543	0.398	n/a	392.719	17.0	1	0.03	1.0	16.9463	955.0	1.2	Outcome2	1.9	0.03	3.0415	Yes	n/a	-1.8691015477538704	n/a	n/a	632.0	TrialHappinessSliderResponse	Mixed
274.571	4.166	4.028	396.137	17.0	1	0.03	1.0	16.9463	955.0	1.2	Outcome2	1.9	0.03	3.0415	Yes	n/a	-1.8691015477538704	n/a	n/a	n/a	ISIRate	Mixed
278.767	3.0	0.03	400.333	18.0	1	8.5	2.0	18.0088	955.0	1.68	Outcome1	8.5	-3.86	0.0	No	2.0	12.3624009060023	1.608	280.375	n/a	GetAnswer	Gain
280.405	4.0	0.03	401.971	18.0	1	8.5	2.0	18.0088	955.0	1.68	Outcome1	8.5	-3.86	0.0	No	n/a	12.3624009060023	n/a	n/a	n/a	ShowChoice	Gain
284.434	1.0	0.029	406.0	18.0	1	8.5	2.0	18.0088	955.0	1.68	Outcome1	8.5	-3.86	0.0	No	n/a	12.3624009060023	n/a	n/a	n/a	ShowResult	Gain
285.454	6.787	0.02	407.02	18.0	1	8.5	2.0	18.0088	955.0	1.68	Outcome1	8.5	-3.86	0.0	No	n/a	12.3624009060023	n/a	n/a	n/a	ISITrial	Gain
292.274	3.0	0.033	413.84	19.0	1	10.1	-1.32	19.2713	955.0	4.2	Outcome1	10.1	-2.63	0.0	No	2.0	12.7281993204983	1.625	293.899	n/a	GetAnswer	Gain
293.929	4.0	0.03	415.495	19.0	1	10.1	-1.32	19.2713	955.0	4.2	Outcome1	10.1	-2.63	0.0	No	n/a	12.7281993204983	n/a	n/a	n/a	ShowChoice	Gain
297.941	1.0	0.012	419.507	19.0	1	10.1	-1.32	19.2713	955.0	4.2	Outcome1	10.1	-2.63	0.0	No	n/a	12.7281993204983	n/a	n/a	n/a	ShowResult	Gain
298.961	2.0	0.02	420.527	19.0	1	10.1	-1.32	19.2713	955.0	4.2	Outcome1	10.1	-2.63	0.0	No	n/a	12.7281993204983	n/a	n/a	n/a	ISITrial	Gain
300.984	3.0	0.023	422.55	20.0	1	9.5	-1.8	20.4588	955.0	2.8	Outcome2	-3.59	9.5	2.92125	Yes	2.0	13.093997734994302	1.795	302.779	n/a	GetAnswer	Gain
302.806	4.0	0.027	424.372	20.0	1	9.5	-1.8	20.4588	955.0	2.8	Outcome2	-3.59	9.5	2.92125	Yes	n/a	13.093997734994302	n/a	n/a	n/a	ShowChoice	Gain
306.834	1.0	0.028	428.4	20.0	1	9.5	-1.8	20.4588	955.0	2.8	Outcome2	-3.59	9.5	2.92125	Yes	n/a	13.093997734994302	n/a	n/a	n/a	ShowResult	Gain
307.854	8.0	0.02	429.42	20.0	1	9.5	-1.8	20.4588	955.0	2.8	Outcome2	-3.59	9.5	2.92125	Yes	n/a	13.093997734994302	n/a	n/a	n/a	ISITrial	Gain
315.878	2.921	0.024	437.444	20.0	1	9.5	-1.8	20.4588	955.0	2.8	Outcome2	-3.59	9.5	2.92125	Yes	n/a	13.093997734994302	n/a	n/a	n/a	TrialHappPreview	Gain
318.82	4.029	0.021	440.386	20.0	1	9.5	-1.8	20.4588	955.0	2.8	Outcome2	-3.59	9.5	2.92125	Yes	n/a	13.093997734994302	n/a	n/a	668.0	TrialHappiness	Gain
318.821	2.621	n/a	441.034	20.0	1	9.5	-1.8	20.4588	955.0	2.8	Outcome2	-3.59	9.5	2.92125	Yes	n/a	13.093997734994302	n/a	n/a	668.0	TrialHappinessSliderResponse	Gain
322.849	3.685	4.029	444.415	20.0	1	9.5	-1.8	20.4588	955.0	2.8	Outcome2	-3.59	9.5	2.92125	Yes	n/a	13.093997734994302	n/a	n/a	n/a	ISIRate	Gain
326.56	3.0	0.026	448.126	21.0	1	11.7	-0.57	21.9213	955.0	3.16	Outcome1	11.7	-1.15	0.0	No	2.0	12.8482446206116	1.566	328.126	n/a	GetAnswer	Loss
328.148	4.0	0.021	449.714	21.0	1	11.7	-0.57	21.9213	955.0	3.16	Outcome1	11.7	-1.15	0.0	No	n/a	12.8482446206116	n/a	n/a	n/a	ShowChoice	Loss
332.177	1.0	0.029	453.743	21.0	1	11.7	-0.57	21.9213	955.0	3.16	Outcome1	11.7	-1.15	0.0	No	n/a	12.8482446206116	n/a	n/a	n/a	ShowResult	Loss
333.197	3.555	0.02	454.763	21.0	1	11.7	-0.57	21.9213	955.0	3.16	Outcome1	11.7	-1.15	0.0	No	n/a	12.8482446206116	n/a	n/a	n/a	ISITrial	Loss
336.774	3.0	0.022	458.34	22.0	1	1.0	1.0	22.0463	955.0	3.16	Certain	7.7	-5.47	3.2195	Yes	4.0	13.173272933182302	1.766	338.54	n/a	GetAnswer	Gain
338.563	4.0	0.023	460.129	22.0	1	1.0	1.0	22.0463	955.0	3.16	Certain	7.7	-5.47	3.2195	Yes	n/a	13.173272933182302	n/a	n/a	n/a	ShowChoice	Gain
342.591	1.0	0.028	464.157	22.0	1	1.0	1.0	22.0463	955.0	3.16	Certain	7.7	-5.47	3.2195	Yes	n/a	13.173272933182302	n/a	n/a	n/a	ShowResult	Gain
343.611	6.793	0.02	465.177	22.0	1	1.0	1.0	22.0463	955.0	3.16	Certain	7.7	-5.47	3.2195	Yes	n/a	13.173272933182302	n/a	n/a	n/a	ISITrial	Gain
350.432	3.22	0.028	471.998	22.0	1	1.0	1.0	22.0463	955.0	3.16	Certain	7.7	-5.47	3.2195	Yes	n/a	13.173272933182302	n/a	n/a	n/a	TrialHappPreview	Gain
353.675	4.028	0.023	475.241	22.0	1	1.0	1.0	22.0463	955.0	3.16	Certain	7.7	-5.47	3.2195	Yes	2{-2}2{-2}	13.173272933182302	2.044	355.719	580.0	TrialHappiness	Gain
353.675	1.274	n/a	476.011	22.0	1	1.0	1.0	22.0463	955.0	3.16	Certain	7.7	-5.47	3.2195	Yes	n/a	13.173272933182302	n/a	n/a	580.0	TrialHappinessSliderResponse	Gain
357.703	4.878	4.028	479.269	22.0	1	1.0	1.0	22.0463	955.0	3.16	Certain	7.7	-5.47	3.2195	Yes	n/a	13.173272933182302	n/a	n/a	n/a	ISIRate	Gain
362.601	3.0	0.02	484.167	23.0	1	-3.0	-3.0	21.6713	955.0	2.0	Certain	4.3	-10.69	0.0	No	4.0	14.9932049830125	1.781	364.382	n/a	GetAnswer	Mixed
364.407	4.0	0.025	485.973	23.0	1	-3.0	-3.0	21.6713	955.0	2.0	Certain	4.3	-10.69	0.0	No	n/a	14.9932049830125	n/a	n/a	n/a	ShowChoice	Mixed
368.435	1.0	0.028	490.001	23.0	1	-3.0	-3.0	21.6713	955.0	2.0	Certain	4.3	-10.69	0.0	No	n/a	14.9932049830125	n/a	n/a	n/a	ShowResult	Mixed
369.455	8.0	0.02	491.021	23.0	1	-3.0	-3.0	21.6713	955.0	2.0	Certain	4.3	-10.69	0.0	No	n/a	14.9932049830125	n/a	n/a	n/a	ISITrial	Mixed
377.479	3.0	0.024	499.045	24.0	1	-7.0	-7.0	20.7963	955.0	2.0	Certain	-15.12	0.3	3.255	Yes	4.0	15.417893544733902	1.558	379.037	n/a	GetAnswer	Mixed
379.05	4.0	0.013	500.616	24.0	1	-7.0	-7.0	20.7963	955.0	2.0	Certain	-15.12	0.3	3.255	Yes	n/a	15.417893544733902	n/a	n/a	n/a	ShowChoice	Mixed
383.062	1.0	0.012	504.628	24.0	1	-7.0	-7.0	20.7963	955.0	2.0	Certain	-15.12	0.3	3.255	Yes	n/a	15.417893544733902	n/a	n/a	n/a	ShowResult	Mixed
384.082	2.0	0.02	505.648	24.0	1	-7.0	-7.0	20.7963	955.0	2.0	Certain	-15.12	0.3	3.255	Yes	n/a	15.417893544733902	n/a	n/a	n/a	ISITrial	Mixed
386.105	3.255	0.023	507.671	24.0	1	-7.0	-7.0	20.7963	955.0	2.0	Certain	-15.12	0.3	3.255	Yes	n/a	15.417893544733902	n/a	n/a	n/a	TrialHappPreview	Mixed
389.381	4.029	0.021	510.947	24.0	1	-7.0	-7.0	20.7963	955.0	2.0	Certain	-15.12	0.3	3.255	Yes	n/a	15.417893544733902	n/a	n/a	492.0	TrialHappiness	Mixed
389.382	0.084	n/a	511.795	24.0	1	-7.0	-7.0	20.7963	955.0	2.0	Certain	-15.12	0.3	3.255	Yes	n/a	15.417893544733902	n/a	n/a	492.0	TrialHappinessSliderResponse	Mixed
393.41	5.02	4.029	514.976	24.0	1	-7.0	-7.0	20.7963	955.0	2.0	Certain	-15.12	0.3	3.255	Yes	n/a	15.417893544733902	n/a	n/a	n/a	ISIRate	Mixed
398.458	3.0	0.028	520.024	25.0	1	-6.0	-6.0	20.0463	955.0	1.5	Certain	-15.24	2.1	0.0	No	4.0	17.3374858437146	1.486	399.944	n/a	GetAnswer	Mixed
399.963	4.0	0.019	521.529	25.0	1	-6.0	-6.0	20.0463	955.0	1.5	Certain	-15.24	2.1	0.0	No	n/a	17.3374858437146	n/a	n/a	n/a	ShowChoice	Mixed
403.975	1.0	0.012	525.541	25.0	1	-6.0	-6.0	20.0463	955.0	1.5	Certain	-15.24	2.1	0.0	No	n/a	17.3374858437146	n/a	n/a	n/a	ShowResult	Mixed
404.995	3.749	0.02	526.561	25.0	1	-6.0	-6.0	20.0463	955.0	1.5	Certain	-15.24	2.1	0.0	No	n/a	17.3374858437146	n/a	n/a	n/a	ISITrial	Mixed
408.773	3.0	0.029	530.339	26.0	1	9.3	0.0	21.2088	955.0	2.48	Outcome2	-8.56	9.3	0.0	No	2.0	17.861834654586602	2.202	410.975	n/a	GetAnswer	Gain
410.996	4.0	0.02	532.562	26.0	1	9.3	0.0	21.2088	955.0	2.48	Outcome2	-8.56	9.3	0.0	No	n/a	17.861834654586602	n/a	n/a	n/a	ShowChoice	Gain
415.025	1.0	0.029	536.591	26.0	1	9.3	0.0	21.2088	955.0	2.48	Outcome2	-8.56	9.3	0.0	No	n/a	17.861834654586602	n/a	n/a	n/a	ShowResult	Gain
416.044	7.834	0.019	537.61	26.0	1	9.3	0.0	21.2088	955.0	2.48	Outcome2	-8.56	9.3	0.0	No	n/a	17.861834654586602	n/a	n/a	n/a	ISITrial	Gain
423.901	3.0	0.023	545.467	27.0	1	-9.0	-9.0	20.0838	955.0	1.5	Certain	-18.29	0.1	2.54975	Yes	4.0	18.3861834654587	2.051	425.952	n/a	GetAnswer	Mixed
425.974	4.0	0.022	547.54	27.0	1	-9.0	-9.0	20.0838	955.0	1.5	Certain	-18.29	0.1	2.54975	Yes	n/a	18.3861834654587	n/a	n/a	n/a	ShowChoice	Mixed
429.986	1.0	0.012	551.552	27.0	1	-9.0	-9.0	20.0838	955.0	1.5	Certain	-18.29	0.1	2.54975	Yes	n/a	18.3861834654587	n/a	n/a	n/a	ShowResult	Mixed
431.006	4.225	0.02	552.572	27.0	1	-9.0	-9.0	20.0838	955.0	1.5	Certain	-18.29	0.1	2.54975	Yes	n/a	18.3861834654587	n/a	n/a	n/a	ISITrial	Mixed
435.252	2.55	0.021	556.818	27.0	1	-9.0	-9.0	20.0838	955.0	1.5	Certain	-18.29	0.1	2.54975	Yes	n/a	18.3861834654587	n/a	n/a	n/a	TrialHappPreview	Mixed
437.826	4.029	0.024	559.392	27.0	1	-9.0	-9.0	20.0838	955.0	1.5	Certain	-18.29	0.1	2.54975	Yes	n/a	18.3861834654587	n/a	n/a	512.0	TrialHappiness	Mixed
437.827	2.277	n/a	560.601	27.0	1	-9.0	-9.0	20.0838	955.0	1.5	Certain	-18.29	0.1	2.54975	Yes	n/a	18.3861834654587	n/a	n/a	512.0	TrialHappinessSliderResponse	Mixed
441.855	2.199	4.029	563.421	27.0	1	-9.0	-9.0	20.0838	955.0	1.5	Certain	-18.29	0.1	2.54975	Yes	n/a	18.3861834654587	n/a	n/a	n/a	ISIRate	Mixed
467.114	0.268	n/a	589.171	n/a	1	n/a	n/a	n/a	n/a	n/a	n/a	n/a	n/a	n/a	n/a	n/a	n/a	n/a	n/a	568.0	BlockStartHappinessSliderResponse	n/a
-37.696	-0.001	0.024	565.644	n/a	2	n/a	n/a	n/a	n/a	n/a	n/a	n/a	n/a	n/a	n/a	{SPACE}	n/a	19.007	-18.689	n/a	Rest	n/a
-18.672	4.0	0.017	584.668	n/a	2	n/a	n/a	n/a	n/a	n/a	n/a	n/a	n/a	n/a	n/a	n/a	n/a	n/a	n/a	n/a	BlockHappyPreview	n/a
-14.66	0.759	0.012	588.68	n/a	2	n/a	n/a	n/a	n/a	n/a	n/a	n/a	n/a	n/a	n/a	n/a	n/a	n/a	n/a	568.0	BlockStartHappiness	n/a
-1.153	-0.001	0.016	602.187	n/a	2	n/a	n/a	n/a	n/a	n/a	n/a	n/a	n/a	n/a	n/a	5.0	n/a	1.127	-0.026	n/a	ScanWait	n/a
0.0	10.0	0.026	603.34	n/a	2	n/a	n/a	n/a	n/a	n/a	n/a	n/a	n/a	n/a	n/a	n/a	n/a	n/a	n/a	n/a	GetReady	n/a
10.03	3.0	0.03	613.37	28.0	2	5.03	2.52	20.7126	70.0	2.8	Outcome2	13.5	5.03	0.0	No	2.0	-8.469387755102039	1.165	11.195	n/a	GetAnswer	Loss
11.217	4.0	0.022	614.557	28.0	2	5.03	2.52	20.7126	70.0	2.8	Outcome2	13.5	5.03	0.0	No	n/a	-8.469387755102039	n/a	n/a	n/a	ShowChoice	Loss
15.229	1.0	0.012	618.569	28.0	2	5.03	2.52	20.7126	70.0	2.8	Outcome2	13.5	5.03	0.0	No	n/a	-8.469387755102039	n/a	n/a	n/a	ShowResult	Loss
16.249	3.575	0.02	619.589	28.0	2	5.03	2.52	20.7126	70.0	2.8	Outcome2	13.5	5.03	0.0	No	n/a	-8.469387755102039	n/a	n/a	n/a	ISITrial	Loss
19.843	3.0	0.019	623.183	29.0	2	4.27	2.13	21.2464	70.0	2.48	Outcome1	4.27	13.3	3.529	Yes	2.0	-9.03401360544218	1.068	20.911	n/a	GetAnswer	Loss
20.929	4.0	0.018	624.269	29.0	2	4.27	2.13	21.2464	70.0	2.48	Outcome1	4.27	13.3	3.529	Yes	n/a	-9.03401360544218	n/a	n/a	n/a	ShowChoice	Loss
24.941	1.0	0.012	628.281	29.0	2	4.27	2.13	21.2464	70.0	2.48	Outcome1	4.27	13.3	3.529	Yes	n/a	-9.03401360544218	n/a	n/a	n/a	ShowResult	Loss
25.961	3.955	0.02	629.301	29.0	2	4.27	2.13	21.2464	70.0	2.48	Outcome1	4.27	13.3	3.529	Yes	n/a	-9.03401360544218	n/a	n/a	n/a	ISITrial	Loss
29.94	3.529	0.024	633.28	29.0	2	4.27	2.13	21.2464	70.0	2.48	Outcome1	4.27	13.3	3.529	Yes	n/a	-9.03401360544218	n/a	n/a	n/a	TrialHappPreview	Loss
33.5	4.012	0.031	636.84	29.0	2	4.27	2.13	21.2464	70.0	2.48	Outcome1	4.27	13.3	3.529	Yes	n/a	-9.03401360544218	n/a	n/a	592.0	TrialHappiness	Loss
33.501	0.732	n/a	637.438	29.0	2	4.27	2.13	21.2464	70.0	2.48	Outcome1	4.27	13.3	3.529	Yes	n/a	-9.03401360544218	n/a	n/a	592.0	TrialHappinessSliderResponse	Loss
37.512	6.116	4.012	640.852	29.0	2	4.27	2.13	21.2464	70.0	2.48	Outcome1	4.27	13.3	3.529	Yes	n/a	-9.03401360544218	n/a	n/a	n/a	ISIRate	Loss
43.647	3.0	0.019	646.987	30.0	2	-4.0	-4.0	20.7464	70.0	0.4	Certain	0.9	-9.11	0.0	No	4.0	-10.0068027210884	1.266	44.913	n/a	GetAnswer	Mixed
44.935	4.0	0.022	648.275	30.0	2	-4.0	-4.0	20.7464	70.0	0.4	Certain	0.9	-9.11	0.0	No	n/a	-10.0068027210884	n/a	n/a	n/a	ShowChoice	Mixed
48.947	1.0	0.012	652.287	30.0	2	-4.0	-4.0	20.7464	70.0	0.4	Certain	0.9	-9.11	0.0	No	n/a	-10.0068027210884	n/a	n/a	n/a	ShowResult	Mixed
49.966	4.453	0.019	653.306	30.0	2	-4.0	-4.0	20.7464	70.0	0.4	Certain	0.9	-9.11	0.0	No	n/a	-10.0068027210884	n/a	n/a	n/a	ISITrial	Mixed
54.446	3.0	0.027	657.786	31.0	2	-1.7	-0.85	20.5339	70.0	2.0	Outcome1	-1.7	8.9	2.50325	Yes	2.0	-10.5986394557823	1.685	56.131	n/a	GetAnswer	Gain
56.151	4.0	0.02	659.491	31.0	2	-1.7	-0.85	20.5339	70.0	2.0	Outcome1	-1.7	8.9	2.50325	Yes	n/a	-10.5986394557823	n/a	n/a	n/a	ShowChoice	Gain
60.163	1.0	0.012	663.503	31.0	2	-1.7	-0.85	20.5339	70.0	2.0	Outcome1	-1.7	8.9	2.50325	Yes	n/a	-10.5986394557823	n/a	n/a	n/a	ShowResult	Gain
61.183	4.786	0.02	664.523	31.0	2	-1.7	-0.85	20.5339	70.0	2.0	Outcome1	-1.7	8.9	2.50325	Yes	n/a	-10.5986394557823	n/a	n/a	n/a	ISITrial	Gain
65.981	2.503	0.012	669.321	31.0	2	-1.7	-0.85	20.5339	70.0	2.0	Outcome1	-1.7	8.9	2.50325	Yes	n/a	-10.5986394557823	n/a	n/a	n/a	TrialHappPreview	Gain
68.505	4.012	0.021	671.845	31.0	2	-1.7	-0.85	20.5339	70.0	2.0	Outcome1	-1.7	8.9	2.50325	Yes	n/a	-10.5986394557823	n/a	n/a	500.0	TrialHappiness	Gain
68.506	1.233	n/a	672.351	31.0	2	-1.7	-0.85	20.5339	70.0	2.0	Outcome1	-1.7	8.9	2.50325	Yes	n/a	-10.5986394557823	n/a	n/a	500.0	TrialHappinessSliderResponse	Gain
72.517	2.013	4.012	675.857	31.0	2	-1.7	-0.85	20.5339	70.0	2.0	Outcome1	-1.7	8.9	2.50325	Yes	n/a	-10.5986394557823	n/a	n/a	n/a	ISIRate	Gain
74.556	3.0	0.026	677.896	32.0	2	0.07	0.04	20.5427	70.0	3.16	Outcome2	9.7	0.07	0.0	No	2.0	-9.62585034013605	1.32	75.876	n/a	GetAnswer	Gain
75.894	4.0	0.018	679.234	32.0	2	0.07	0.04	20.5427	70.0	3.16	Outcome2	9.7	0.07	0.0	No	n/a	-9.62585034013605	n/a	n/a	n/a	ShowChoice	Gain
79.906	1.0	0.012	683.246	32.0	2	0.07	0.04	20.5427	70.0	3.16	Outcome2	9.7	0.07	0.0	No	n/a	-9.62585034013605	n/a	n/a	n/a	ShowResult	Gain
80.926	2.0	0.02	684.266	32.0	2	0.07	0.04	20.5427	70.0	3.16	Outcome2	9.7	0.07	0.0	No	n/a	-9.62585034013605	n/a	n/a	n/a	ISITrial	Gain
82.948	3.0	0.022	686.288	33.0	2	-4.0	-4.0	20.0427	70.0	0.3	Certain	0.7	-9.41	0.0	No	4.0	-10.1133786848073	1.507	84.455	n/a	GetAnswer	Mixed
84.469	4.0	0.014	687.809	33.0	2	-4.0	-4.0	20.0427	70.0	0.3	Certain	0.7	-9.41	0.0	No	n/a	-10.1133786848073	n/a	n/a	n/a	ShowChoice	Mixed
88.481	1.0	0.012	691.821	33.0	2	-4.0	-4.0	20.0427	70.0	0.3	Certain	0.7	-9.41	0.0	No	n/a	-10.1133786848073	n/a	n/a	n/a	ShowResult	Mixed
89.501	5.099	0.02	692.841	33.0	2	-4.0	-4.0	20.0427	70.0	0.3	Certain	0.7	-9.41	0.0	No	n/a	-10.1133786848073	n/a	n/a	n/a	ISITrial	Mixed
94.616	3.0	0.016	697.956	34.0	2	-6.0	-6.0	19.2927	70.0	0.66	Certain	-11.3	-0.7	3.2315	Yes	4.0	-10.6009070294785	1.578	96.194	n/a	GetAnswer	Mixed
96.205	4.0	0.011	699.545	34.0	2	-6.0	-6.0	19.2927	70.0	0.66	Certain	-11.3	-0.7	3.2315	Yes	n/a	-10.6009070294785	n/a	n/a	n/a	ShowChoice	Mixed
100.217	1.0	0.012	703.557	34.0	2	-6.0	-6.0	19.2927	70.0	0.66	Certain	-11.3	-0.7	3.2315	Yes	n/a	-10.6009070294785	n/a	n/a	n/a	ShowResult	Mixed
101.236	4.784	0.019	704.576	34.0	2	-6.0	-6.0	19.2927	70.0	0.66	Certain	-11.3	-0.7	3.2315	Yes	n/a	-10.6009070294785	n/a	n/a	n/a	ISITrial	Mixed
106.034	3.232	0.014	709.374	34.0	2	-6.0	-6.0	19.2927	70.0	0.66	Certain	-11.3	-0.7	3.2315	Yes	n/a	-10.6009070294785	n/a	n/a	n/a	TrialHappPreview	Mixed
109.294	4.012	0.028	712.634	34.0	2	-6.0	-6.0	19.2927	70.0	0.66	Certain	-11.3	-0.7	3.2315	Yes	4{-4}4{-4}4{-4}	-10.6009070294785	1.604	110.898	476.0	TrialHappiness	Mixed
109.294	0.923	n/a	713.315	34.0	2	-6.0	-6.0	19.2927	70.0	0.66	Certain	-11.3	-0.7	3.2315	Yes	n/a	-10.6009070294785	n/a	n/a	476.0	TrialHappinessSliderResponse	Mixed
113.306	4.926	4.012	716.646	34.0	2	-6.0	-6.0	19.2927	70.0	0.66	Certain	-11.3	-0.7	3.2315	Yes	n/a	-10.6009070294785	n/a	n/a	n/a	ISIRate	Mixed
118.254	3.0	0.022	721.594	35.0	2	-2.0	-2.0	19.0427	70.0	0.4	Certain	-7.78	2.9	0.0	No	4.0	-10.6802721088435	1.661	119.915	n/a	GetAnswer	Mixed
119.942	4.0	0.027	723.282	35.0	2	-2.0	-2.0	19.0427	70.0	0.4	Certain	-7.78	2.9	0.0	No	n/a	-10.6802721088435	n/a	n/a	n/a	ShowChoice	Mixed
123.954	1.0	0.012	727.294	35.0	2	-2.0	-2.0	19.0427	70.0	0.4	Certain	-7.78	2.9	0.0	No	n/a	-10.6802721088435	n/a	n/a	n/a	ShowResult	Mixed
124.974	2.098	0.02	728.314	35.0	2	-2.0	-2.0	19.0427	70.0	0.4	Certain	-7.78	2.9	0.0	No	n/a	-10.6802721088435	n/a	n/a	n/a	ISITrial	Mixed
127.097	3.0	0.025	730.437	36.0	2	0.0	0.0	19.0427	70.0	1.0	Certain	-1.58	0.42	3.33575	Yes	4.0	2.0024565381708204	1.932	129.029	n/a	GetAnswer	Mixed
129.053	4.0	0.024	732.393	36.0	2	0.0	0.0	19.0427	70.0	1.0	Certain	-1.58	0.42	3.33575	Yes	n/a	2.0024565381708204	n/a	n/a	n/a	ShowChoice	Mixed
133.065	1.0	0.012	736.405	36.0	2	0.0	0.0	19.0427	70.0	1.0	Certain	-1.58	0.42	3.33575	Yes	n/a	2.0024565381708204	n/a	n/a	n/a	ShowResult	Mixed
134.084	5.156	0.019	737.424	36.0	2	0.0	0.0	19.0427	70.0	1.0	Certain	-1.58	0.42	3.33575	Yes	n/a	2.0024565381708204	n/a	n/a	n/a	ISITrial	Mixed
139.267	3.336	0.027	742.607	36.0	2	0.0	0.0	19.0427	70.0	1.0	Certain	-1.58	0.42	3.33575	Yes	n/a	2.0024565381708204	n/a	n/a	n/a	TrialHappPreview	Mixed
142.627	4.012	0.024	745.967	36.0	2	0.0	0.0	19.0427	70.0	1.0	Certain	-1.58	0.42	3.33575	Yes	n/a	2.0024565381708204	n/a	n/a	512.0	TrialHappiness	Mixed
142.627	0.0	n/a	745.967	36.0	2	0.0	0.0	19.0427	70.0	1.0	Certain	-1.58	0.42	3.33575	Yes	n/a	2.0024565381708204	n/a	n/a	512.0	TrialHappinessSliderResponse	Mixed
146.639	5.343	4.012	749.979	36.0	2	0.0	0.0	19.0427	70.0	1.0	Certain	-1.58	0.42	3.33575	Yes	n/a	2.0024565381708204	n/a	n/a	n/a	ISIRate	Mixed
152.005	3.0	0.023	755.345	37.0	2	-5.0	-5.0	18.4177	70.0	0.52	Certain	1.1	-11.11	0.0	No	4.0	-12.2131519274376	1.661	153.666	n/a	GetAnswer	Mixed
153.693	4.0	0.027	757.033	37.0	2	-5.0	-5.0	18.4177	70.0	0.52	Certain	1.1	-11.11	0.0	No	n/a	-12.2131519274376	n/a	n/a	n/a	ShowChoice	Mixed
157.705	1.0	0.012	761.045	37.0	2	-5.0	-5.0	18.4177	70.0	0.52	Certain	1.1	-11.11	0.0	No	n/a	-12.2131519274376	n/a	n/a	n/a	ShowResult	Mixed
158.725	3.598	0.02	762.065	37.0	2	-5.0	-5.0	18.4177	70.0	0.52	Certain	1.1	-11.11	0.0	No	n/a	-12.2131519274376	n/a	n/a	n/a	ISITrial	Mixed
162.352	3.0	0.029	765.692	38.0	2	-6.21	0.0	17.6415	70.0	1.68	Outcome1	-6.21	6.5	0.0	No	2.0	-12.7142857142857	2.703	165.055	n/a	GetAnswer	Gain
165.077	4.0	0.022	768.417	38.0	2	-6.21	0.0	17.6415	70.0	1.68	Outcome1	-6.21	6.5	0.0	No	n/a	-12.7142857142857	n/a	n/a	n/a	ShowChoice	Gain
169.089	1.0	0.012	772.429	38.0	2	-6.21	0.0	17.6415	70.0	1.68	Outcome1	-6.21	6.5	0.0	No	n/a	-12.7142857142857	n/a	n/a	n/a	ShowResult	Gain
170.109	4.787	0.02	773.449	38.0	2	-6.21	0.0	17.6415	70.0	1.68	Outcome1	-6.21	6.5	0.0	No	n/a	-12.7142857142857	n/a	n/a	n/a	ISITrial	Gain
174.923	3.0	0.027	778.263	39.0	2	-8.0	-8.0	16.6415	70.0	0.2	Certain	-1.5	-14.72	2.86425	Yes	4.0	-13.215419501133802	1.782	176.705	n/a	GetAnswer	Mixed
176.729	4.0	0.024	780.069	39.0	2	-8.0	-8.0	16.6415	70.0	0.2	Certain	-1.5	-14.72	2.86425	Yes	n/a	-13.215419501133802	n/a	n/a	n/a	ShowChoice	Mixed
180.741	1.0	0.012	784.081	39.0	2	-8.0	-8.0	16.6415	70.0	0.2	Certain	-1.5	-14.72	2.86425	Yes	n/a	-13.215419501133802	n/a	n/a	n/a	ShowResult	Mixed
181.76	2.348	0.019	785.1	39.0	2	-8.0	-8.0	16.6415	70.0	0.2	Certain	-1.5	-14.72	2.86425	Yes	n/a	-13.215419501133802	n/a	n/a	n/a	ISITrial	Mixed
184.134	2.864	0.026	787.474	39.0	2	-8.0	-8.0	16.6415	70.0	0.2	Certain	-1.5	-14.72	2.86425	Yes	n/a	-13.215419501133802	n/a	n/a	n/a	TrialHappPreview	Mixed
187.026	4.012	0.028	790.366	39.0	2	-8.0	-8.0	16.6415	70.0	0.2	Certain	-1.5	-14.72	2.86425	Yes	n/a	-13.215419501133802	n/a	n/a	472.0	TrialHappiness	Mixed
187.027	0.712	n/a	790.916	39.0	2	-8.0	-8.0	16.6415	70.0	0.2	Certain	-1.5	-14.72	2.86425	Yes	n/a	-13.215419501133802	n/a	n/a	472.0	TrialHappinessSliderResponse	Mixed
191.038	3.457	4.012	794.378	39.0	2	-8.0	-8.0	16.6415	70.0	0.2	Certain	-1.5	-14.72	2.86425	Yes	n/a	-13.215419501133802	n/a	n/a	n/a	ISIRate	Mixed
194.515	3.0	0.02	797.855	40.0	2	2.72	1.0	16.9815	70.0	2.0	Outcome1	2.72	0.57	0.0	No	2.0	2.14984882842026	1.192	195.707	n/a	GetAnswer	Loss
195.719	4.0	0.012	799.059	40.0	2	2.72	1.0	16.9815	70.0	2.0	Outcome1	2.72	0.57	0.0	No	n/a	2.14984882842026	n/a	n/a	n/a	ShowChoice	Loss
199.731	1.0	0.012	803.071	40.0	2	2.72	1.0	16.9815	70.0	2.0	Outcome1	2.72	0.57	0.0	No	n/a	2.14984882842026	n/a	n/a	n/a	ShowResult	Loss
200.75	3.158	0.019	804.09	40.0	2	2.72	1.0	16.9815	70.0	2.0	Outcome1	2.72	0.57	0.0	No	n/a	2.14984882842026	n/a	n/a	n/a	ISITrial	Loss
203.927	3.0	0.019	807.267	41.0	2	0.0	0.0	16.9815	70.0	2.0	Certain	6.9	-6.59	4.0	Yes	4.0	-13.4920634920635	2.037	205.964	n/a	GetAnswer	Gain
205.983	4.0	0.019	809.323	41.0	2	0.0	0.0	16.9815	70.0	2.0	Certain	6.9	-6.59	4.0	Yes	n/a	-13.4920634920635	n/a	n/a	n/a	ShowChoice	Gain
209.995	1.0	0.012	813.335	41.0	2	0.0	0.0	16.9815	70.0	2.0	Certain	6.9	-6.59	4.0	Yes	n/a	-13.4920634920635	n/a	n/a	n/a	ShowResult	Gain
211.014	4.506	0.019	814.354	41.0	2	0.0	0.0	16.9815	70.0	2.0	Certain	6.9	-6.59	4.0	Yes	n/a	-13.4920634920635	n/a	n/a	n/a	ISITrial	Gain
215.545	4.0	0.025	818.885	41.0	2	0.0	0.0	16.9815	70.0	2.0	Certain	6.9	-6.59	4.0	Yes	n/a	-13.4920634920635	n/a	n/a	n/a	TrialHappPreview	Gain
219.573	4.012	0.028	822.913	41.0	2	0.0	0.0	16.9815	70.0	2.0	Certain	6.9	-6.59	4.0	Yes	n/a	-13.4920634920635	n/a	n/a	512.0	TrialHappiness	Gain
219.574	0.0	n/a	822.914	41.0	2	0.0	0.0	16.9815	70.0	2.0	Certain	6.9	-6.59	4.0	Yes	n/a	-13.4920634920635	n/a	n/a	512.0	TrialHappinessSliderResponse	Gain
223.585	8.0	4.012	826.925	41.0	2	0.0	0.0	16.9815	70.0	2.0	Certain	6.9	-6.59	4.0	Yes	n/a	-13.4920634920635	n/a	n/a	n/a	ISIRate	Gain
231.609	3.0	0.024	834.949	42.0	2	1.0	1.0	17.1065	70.0	2.22	Certain	-0.11	2.28	0.0	No	4.0	2.38832199546485	1.665	233.274	n/a	GetAnswer	Gain
233.298	4.0	0.024	836.638	42.0	2	1.0	1.0	17.1065	70.0	2.22	Certain	-0.11	2.28	0.0	No	n/a	2.38832199546485	n/a	n/a	n/a	ShowChoice	Gain
237.31	1.0	0.012	840.65	42.0	2	1.0	1.0	17.1065	70.0	2.22	Certain	-0.11	2.28	0.0	No	n/a	2.38832199546485	n/a	n/a	n/a	ShowResult	Gain
238.329	6.248	0.019	841.669	42.0	2	1.0	1.0	17.1065	70.0	2.22	Certain	-0.11	2.28	0.0	No	n/a	2.38832199546485	n/a	n/a	n/a	ISITrial	Gain
244.598	3.0	0.021	847.938	43.0	2	-10.63	-3.0	15.7777	70.0	1.68	Outcome1	-10.63	4.5	2.77575	Yes	2.0	-15.1292517006803	1.854	246.452	n/a	GetAnswer	Gain
246.47	4.0	0.018	849.81	43.0	2	-10.63	-3.0	15.7777	70.0	1.68	Outcome1	-10.63	4.5	2.77575	Yes	n/a	-15.1292517006803	n/a	n/a	n/a	ShowChoice	Gain
250.482	1.0	0.012	853.822	43.0	2	-10.63	-3.0	15.7777	70.0	1.68	Outcome1	-10.63	4.5	2.77575	Yes	n/a	-15.1292517006803	n/a	n/a	n/a	ShowResult	Gain
251.502	4.596	0.02	854.842	43.0	2	-10.63	-3.0	15.7777	70.0	1.68	Outcome1	-10.63	4.5	2.77575	Yes	n/a	-15.1292517006803	n/a	n/a	n/a	ISITrial	Gain
256.116	2.776	0.018	859.456	43.0	2	-10.63	-3.0	15.7777	70.0	1.68	Outcome1	-10.63	4.5	2.77575	Yes	n/a	-15.1292517006803	n/a	n/a	n/a	TrialHappPreview	Gain
258.908	4.012	0.016	862.248	43.0	2	-10.63	-3.0	15.7777	70.0	1.68	Outcome1	-10.63	4.5	2.77575	Yes	n/a	-15.1292517006803	n/a	n/a	396.0	TrialHappiness	Gain
258.908	3.041	n/a	862.64	43.0	2	-10.63	-3.0	15.7777	70.0	1.68	Outcome1	-10.63	4.5	2.77575	Yes	n/a	-15.1292517006803	n/a	n/a	396.0	TrialHappinessSliderResponse	Gain
262.92	3.103	4.012	866.26	43.0	2	-10.63	-3.0	15.7777	70.0	1.68	Outcome1	-10.63	4.5	2.77575	Yes	n/a	-15.1292517006803	n/a	n/a	n/a	ISIRate	Gain
266.046	3.0	0.023	869.386	44.0	2	2.0	2.0	16.0277	70.0	1.82	Certain	8.7	-4.96	0.0	No	4.0	-13.6575963718821	1.538	267.584	n/a	GetAnswer	Gain
267.6	4.0	0.016	870.94	44.0	2	2.0	2.0	16.0277	70.0	1.82	Certain	8.7	-4.96	0.0	No	n/a	-13.6575963718821	n/a	n/a	n/a	ShowChoice	Gain
271.612	1.0	0.012	874.952	44.0	2	2.0	2.0	16.0277	70.0	1.82	Certain	8.7	-4.96	0.0	No	n/a	-13.6575963718821	n/a	n/a	n/a	ShowResult	Gain
272.632	2.42	0.02	875.972	44.0	2	2.0	2.0	16.0277	70.0	1.82	Certain	8.7	-4.96	0.0	No	n/a	-13.6575963718821	n/a	n/a	n/a	ISITrial	Gain
275.073	3.0	0.021	878.413	45.0	2	-8.0	-8.0	15.0277	70.0	0.3	Certain	-15.33	-1.3	0.0	No	4.0	-14.0272108843537	2.038	277.111	n/a	GetAnswer	Mixed
277.129	4.0	0.018	880.469	45.0	2	-8.0	-8.0	15.0277	70.0	0.3	Certain	-15.33	-1.3	0.0	No	n/a	-14.0272108843537	n/a	n/a	n/a	ShowChoice	Mixed
281.141	1.0	0.012	884.481	45.0	2	-8.0	-8.0	15.0277	70.0	0.3	Certain	-15.33	-1.3	0.0	No	n/a	-14.0272108843537	n/a	n/a	n/a	ShowResult	Mixed
282.161	3.144	0.02	885.501	45.0	2	-8.0	-8.0	15.0277	70.0	0.3	Certain	-15.33	-1.3	0.0	No	n/a	-14.0272108843537	n/a	n/a	n/a	ISITrial	Mixed
285.337	3.0	0.032	888.677	46.0	2	-2.3	-1.15	14.7402	70.0	4.2	Outcome1	-2.3	12.1	3.84125	Yes	2.0	-14.3968253968254	1.85	287.187	n/a	GetAnswer	Loss
287.209	4.0	0.022	890.549	46.0	2	-2.3	-1.15	14.7402	70.0	4.2	Outcome1	-2.3	12.1	3.84125	Yes	n/a	-14.3968253968254	n/a	n/a	n/a	ShowChoice	Loss
291.221	1.0	0.012	894.561	46.0	2	-2.3	-1.15	14.7402	70.0	4.2	Outcome1	-2.3	12.1	3.84125	Yes	n/a	-14.3968253968254	n/a	n/a	n/a	ShowResult	Loss
292.241	2.246	0.02	895.581	46.0	2	-2.3	-1.15	14.7402	70.0	4.2	Outcome1	-2.3	12.1	3.84125	Yes	n/a	-14.3968253968254	n/a	n/a	n/a	ISITrial	Loss
294.497	3.841	0.01	897.837	46.0	2	-2.3	-1.15	14.7402	70.0	4.2	Outcome1	-2.3	12.1	3.84125	Yes	n/a	-14.3968253968254	n/a	n/a	n/a	TrialHappPreview	Loss
298.359	4.012	0.021	901.699	46.0	2	-2.3	-1.15	14.7402	70.0	4.2	Outcome1	-2.3	12.1	3.84125	Yes	n/a	-14.3968253968254	n/a	n/a	472.0	TrialHappiness	Loss
298.36	3.137	n/a	902.287	46.0	2	-2.3	-1.15	14.7402	70.0	4.2	Outcome1	-2.3	12.1	3.84125	Yes	n/a	-14.3968253968254	n/a	n/a	472.0	TrialHappinessSliderResponse	Loss
302.371	7.365	4.012	905.711	46.0	2	-2.3	-1.15	14.7402	70.0	4.2	Outcome1	-2.3	12.1	3.84125	Yes	n/a	-14.3968253968254	n/a	n/a	n/a	ISIRate	Loss
309.76	3.0	0.024	913.1	47.0	2	-3.0	-3.0	14.3652	70.0	2.0	Certain	-11.16	4.9	0.0	No	4.0	-16.058956916099802	2.263	312.023	n/a	GetAnswer	Gain
312.033	4.0	0.01	915.373	47.0	2	-3.0	-3.0	14.3652	70.0	2.0	Certain	-11.16	4.9	0.0	No	n/a	-16.058956916099802	n/a	n/a	n/a	ShowChoice	Gain
316.045	1.0	0.012	919.385	47.0	2	-3.0	-3.0	14.3652	70.0	2.0	Certain	-11.16	4.9	0.0	No	n/a	-16.058956916099802	n/a	n/a	n/a	ShowResult	Gain
317.065	2.0	0.02	920.405	47.0	2	-3.0	-3.0	14.3652	70.0	2.0	Certain	-11.16	4.9	0.0	No	n/a	-16.058956916099802	n/a	n/a	n/a	ISITrial	Gain
319.088	3.0	0.023	922.428	48.0	2	1.0	1.0	14.4902	70.0	3.6	Certain	-6.61	9.9	2.83175	Yes	4.0	-16.5147392290249	1.9	320.988	n/a	GetAnswer	Gain
321.01	4.0	0.022	924.35	48.0	2	1.0	1.0	14.4902	70.0	3.6	Certain	-6.61	9.9	2.83175	Yes	n/a	-16.5147392290249	n/a	n/a	n/a	ShowChoice	Gain
325.022	1.0	0.012	928.362	48.0	2	1.0	1.0	14.4902	70.0	3.6	Certain	-6.61	9.9	2.83175	Yes	n/a	-16.5147392290249	n/a	n/a	n/a	ShowResult	Gain
326.042	3.692	0.02	929.382	48.0	2	1.0	1.0	14.4902	70.0	3.6	Certain	-6.61	9.9	2.83175	Yes	n/a	-16.5147392290249	n/a	n/a	n/a	ISITrial	Gain
329.753	2.832	0.019	933.093	48.0	2	1.0	1.0	14.4902	70.0	3.6	Certain	-6.61	9.9	2.83175	Yes	n/a	-16.5147392290249	n/a	n/a	n/a	TrialHappPreview	Gain
332.611	4.012	0.026	935.951	48.0	2	1.0	1.0	14.4902	70.0	3.6	Certain	-6.61	9.9	2.83175	Yes	n/a	-16.5147392290249	n/a	n/a	512.0	TrialHappiness	Gain
332.612	0.0	n/a	935.952	48.0	2	1.0	1.0	14.4902	70.0	3.6	Certain	-6.61	9.9	2.83175	Yes	n/a	-16.5147392290249	n/a	n/a	512.0	TrialHappinessSliderResponse	Gain
336.623	3.327	4.012	939.963	48.0	2	1.0	1.0	14.4902	70.0	3.6	Certain	-6.61	9.9	2.83175	Yes	n/a	-16.5147392290249	n/a	n/a	n/a	ISIRate	Gain
339.983	3.0	0.033	943.323	49.0	2	-3.0	-3.0	14.1152	70.0	2.22	Certain	5.1	-12.55	0.0	No	4.0	-17.650793650793602	1.893	341.876	n/a	GetAnswer	Gain
341.889	4.0	0.013	945.229	49.0	2	-3.0	-3.0	14.1152	70.0	2.22	Certain	5.1	-12.55	0.0	No	n/a	-17.650793650793602	n/a	n/a	n/a	ShowChoice	Gain
345.901	1.0	0.012	949.241	49.0	2	-3.0	-3.0	14.1152	70.0	2.22	Certain	5.1	-12.55	0.0	No	n/a	-17.650793650793602	n/a	n/a	n/a	ShowResult	Gain
346.921	8.0	0.02	950.261	49.0	2	-3.0	-3.0	14.1152	70.0	2.22	Certain	5.1	-12.55	0.0	No	n/a	-17.650793650793602	n/a	n/a	n/a	ISITrial	Gain
354.945	3.0	0.024	958.285	50.0	2	-5.0	-5.0	13.4902	70.0	0.82	Certain	-14.65	3.5	3.54725	Yes	4.0	-18.1519274376417	1.624	356.569	n/a	GetAnswer	Mixed
356.583	4.0	0.014	959.923	50.0	2	-5.0	-5.0	13.4902	70.0	0.82	Certain	-14.65	3.5	3.54725	Yes	n/a	-18.1519274376417	n/a	n/a	n/a	ShowChoice	Mixed
360.595	1.0	0.012	963.935	50.0	2	-5.0	-5.0	13.4902	70.0	0.82	Certain	-14.65	3.5	3.54725	Yes	n/a	-18.1519274376417	n/a	n/a	n/a	ShowResult	Mixed
361.615	7.537	0.02	964.955	50.0	2	-5.0	-5.0	13.4902	70.0	0.82	Certain	-14.65	3.5	3.54725	Yes	n/a	-18.1519274376417	n/a	n/a	n/a	ISITrial	Mixed
369.171	3.547	0.019	972.511	50.0	2	-5.0	-5.0	13.4902	70.0	0.82	Certain	-14.65	3.5	3.54725	Yes	n/a	-18.1519274376417	n/a	n/a	n/a	TrialHappPreview	Mixed
372.748	4.012	0.03	976.088	50.0	2	-5.0	-5.0	13.4902	70.0	0.82	Certain	-14.65	3.5	3.54725	Yes	n/a	-18.1519274376417	n/a	n/a	460.0	TrialHappiness	Mixed
372.749	0.62	n/a	976.45	50.0	2	-5.0	-5.0	13.4902	70.0	0.82	Certain	-14.65	3.5	3.54725	Yes	n/a	-18.1519274376417	n/a	n/a	460.0	TrialHappinessSliderResponse	Mixed
376.76	6.189	4.012	980.1	50.0	2	-5.0	-5.0	13.4902	70.0	0.82	Certain	-14.65	3.5	3.54725	Yes	n/a	-18.1519274376417	n/a	n/a	n/a	ISIRate	Mixed
382.979	3.0	0.03	986.319	51.0	2	-1.0	-1.0	13.3652	70.0	2.48	Certain	7.3	-10.47	0.0	No	4.0	-17.7687074829932	2.602	385.581	n/a	GetAnswer	Gain
385.603	4.0	0.022	988.943	51.0	2	-1.0	-1.0	13.3652	70.0	2.48	Certain	7.3	-10.47	0.0	No	n/a	-17.7687074829932	n/a	n/a	n/a	ShowChoice	Gain
389.615	1.0	0.012	992.955	51.0	2	-1.0	-1.0	13.3652	70.0	2.48	Certain	7.3	-10.47	0.0	No	n/a	-17.7687074829932	n/a	n/a	n/a	ShowResult	Gain
390.635	5.508	0.02	993.975	51.0	2	-1.0	-1.0	13.3652	70.0	2.48	Certain	7.3	-10.47	0.0	No	n/a	-17.7687074829932	n/a	n/a	n/a	ISITrial	Gain
396.168	3.0	0.025	999.508	52.0	2	3.18	2.0	13.7627	70.0	1.82	Outcome2	0.63	3.18	0.0	No	2.0	2.5493197278911603	1.621	397.789	n/a	GetAnswer	Loss
397.806	4.0	0.017	1001.146	52.0	2	3.18	2.0	13.7627	70.0	1.82	Outcome2	0.63	3.18	0.0	No	n/a	2.5493197278911603	n/a	n/a	n/a	ShowChoice	Loss
401.818	1.0	0.012	1005.158	52.0	2	3.18	2.0	13.7627	70.0	1.82	Outcome2	0.63	3.18	0.0	No	n/a	2.5493197278911603	n/a	n/a	n/a	ShowResult	Loss
402.838	5.913	0.02	1006.178	52.0	2	3.18	2.0	13.7627	70.0	1.82	Outcome2	0.63	3.18	0.0	No	n/a	2.5493197278911603	n/a	n/a	n/a	ISITrial	Loss
408.772	3.0	0.021	1012.112	53.0	2	-3.18	-3.18	13.3652	70.0	5.0	Certain	12.3	-6.35	2.99675	Yes	4.0	-18.6530612244898	1.668	410.44	n/a	GetAnswer	Loss
410.461	4.0	0.021	1013.801	53.0	2	-3.18	-3.18	13.3652	70.0	5.0	Certain	12.3	-6.35	2.99675	Yes	n/a	-18.6530612244898	n/a	n/a	n/a	ShowChoice	Loss
414.473	1.0	0.012	1017.813	53.0	2	-3.18	-3.18	13.3652	70.0	5.0	Certain	12.3	-6.35	2.99675	Yes	n/a	-18.6530612244898	n/a	n/a	n/a	ShowResult	Loss
415.492	3.66	0.019	1018.832	53.0	2	-3.18	-3.18	13.3652	70.0	5.0	Certain	12.3	-6.35	2.99675	Yes	n/a	-18.6530612244898	n/a	n/a	n/a	ISITrial	Loss
419.17	2.997	0.018	1022.51	53.0	2	-3.18	-3.18	13.3652	70.0	5.0	Certain	12.3	-6.35	2.99675	Yes	n/a	-18.6530612244898	n/a	n/a	n/a	TrialHappPreview	Loss
422.196	4.012	0.029	1025.536	53.0	2	-3.18	-3.18	13.3652	70.0	5.0	Certain	12.3	-6.35	2.99675	Yes	n/a	-18.6530612244898	n/a	n/a	492.0	TrialHappiness	Loss
422.196	0.138	n/a	1026.2	53.0	2	-3.18	-3.18	13.3652	70.0	5.0	Certain	12.3	-6.35	2.99675	Yes	n/a	-18.6530612244898	n/a	n/a	492.0	TrialHappinessSliderResponse	Loss
426.208	3.987	4.012	1029.548	53.0	2	-3.18	-3.18	13.3652	70.0	5.0	Certain	12.3	-6.35	2.99675	Yes	n/a	-18.6530612244898	n/a	n/a	n/a	ISIRate	Loss
430.22	3.0	0.025	1033.56	54.0	2	-1.0	-1.0	13.2402	70.0	0.2	Certain	-2.13	0.62	0.0	No	4.0	2.75302343159486	1.6	431.82	n/a	GetAnswer	Mixed
431.841	4.0	0.021	1035.181	54.0	2	-1.0	-1.0	13.2402	70.0	0.2	Certain	-2.13	0.62	0.0	No	n/a	2.75302343159486	n/a	n/a	n/a	ShowChoice	Mixed
435.853	1.0	0.012	1039.193	54.0	2	-1.0	-1.0	13.2402	70.0	0.2	Certain	-2.13	0.62	0.0	No	n/a	2.75302343159486	n/a	n/a	n/a	ShowResult	Mixed
436.873	8.0	0.02	1040.213	54.0	2	-1.0	-1.0	13.2402	70.0	0.2	Certain	-2.13	0.62	0.0	No	n/a	2.75302343159486	n/a	n/a	n/a	ISITrial	Mixed
462.066	0.23	n/a	1066.036	n/a	2	n/a	n/a	n/a	n/a	n/a	n/a	n/a	n/a	n/a	n/a	n/a	n/a	n/a	n/a	552.0	BlockStartHappinessSliderResponse	n/a
-39.802	-0.001	0.024	1048.237	n/a	3	n/a	n/a	n/a	n/a	n/a	n/a	n/a	n/a	n/a	n/a	{SPACE}	n/a	13.139	-26.663	n/a	Rest	n/a
-26.646	4.0	0.017	1061.393	n/a	3	n/a	n/a	n/a	n/a	n/a	n/a	n/a	n/a	n/a	n/a	n/a	n/a	n/a	n/a	n/a	BlockHappyPreview	n/a
-22.634	0.86	0.012	1065.405	n/a	3	n/a	n/a	n/a	n/a	n/a	n/a	n/a	n/a	n/a	n/a	n/a	n/a	n/a	n/a	552.0	BlockStartHappiness	n/a
-14.493	-0.001	0.01	1073.546	n/a	3	n/a	n/a	n/a	n/a	n/a	n/a	n/a	n/a	n/a	n/a	5.0	n/a	14.468	-0.025	n/a	ScanWait	n/a
0.0	10.0	0.025	1088.039	n/a	3	n/a	n/a	n/a	n/a	n/a	n/a	n/a	n/a	n/a	n/a	n/a	n/a	n/a	n/a	n/a	GetReady	n/a
10.014	3.0	0.014	1098.053	55.0	3	4.46	2.23	13.7977	955.0	4.2	Outcome2	6.1	4.46	2.53325	Yes	2.0	-1.6354284635711598	1.426	11.44	n/a	GetAnswer	Gain
11.451	4.0	0.011	1099.49	55.0	3	4.46	2.23	13.7977	955.0	4.2	Outcome2	6.1	4.46	2.53325	Yes	n/a	-1.6354284635711598	n/a	n/a	n/a	ShowChoice	Gain
15.463	1.0	0.012	1103.502	55.0	3	4.46	2.23	13.7977	955.0	4.2	Outcome2	6.1	4.46	2.53325	Yes	n/a	-1.6354284635711598	n/a	n/a	n/a	ShowResult	Gain
16.483	7.709	0.02	1104.522	55.0	3	4.46	2.23	13.7977	955.0	4.2	Outcome2	6.1	4.46	2.53325	Yes	n/a	-1.6354284635711598	n/a	n/a	n/a	ISITrial	Gain
24.206	2.533	0.014	1112.245	55.0	3	4.46	2.23	13.7977	955.0	4.2	Outcome2	6.1	4.46	2.53325	Yes	n/a	-1.6354284635711598	n/a	n/a	n/a	TrialHappPreview	Gain
26.764	4.012	0.025	1114.803	55.0	3	4.46	2.23	13.7977	955.0	4.2	Outcome2	6.1	4.46	2.53325	Yes	n/a	-1.6354284635711598	n/a	n/a	540.0	TrialHappiness	Gain
26.764	2.074	n/a	1115.294	55.0	3	4.46	2.23	13.7977	955.0	4.2	Outcome2	6.1	4.46	2.53325	Yes	n/a	-1.6354284635711598	n/a	n/a	540.0	TrialHappinessSliderResponse	Gain
30.776	2.133	4.012	1118.815	55.0	3	4.46	2.23	13.7977	955.0	4.2	Outcome2	6.1	4.46	2.53325	Yes	n/a	-1.6354284635711598	n/a	n/a	n/a	ISIRate	Gain
32.932	3.0	0.023	1120.971	56.0	3	0.0	0.0	13.7977	955.0	1.2	Certain	3.9	-3.61	0.0	No	4.0	7.50622876557191	1.518	34.45	n/a	GetAnswer	Mixed
34.47	4.0	0.02	1122.509	56.0	3	0.0	0.0	13.7977	955.0	1.2	Certain	3.9	-3.61	0.0	No	n/a	7.50622876557191	n/a	n/a	n/a	ShowChoice	Mixed
38.482	1.0	0.012	1126.521	56.0	3	0.0	0.0	13.7977	955.0	1.2	Certain	3.9	-3.61	0.0	No	n/a	7.50622876557191	n/a	n/a	n/a	ShowResult	Mixed
39.502	4.697	0.02	1127.541	56.0	3	0.0	0.0	13.7977	955.0	1.2	Certain	3.9	-3.61	0.0	No	n/a	7.50622876557191	n/a	n/a	n/a	ISITrial	Mixed
44.216	3.0	0.017	1132.255	57.0	3	10.74	5.37	15.1402	955.0	1.68	Outcome2	12.5	10.74	0.0	No	2.0	-1.76132502831257	1.233	45.449	n/a	GetAnswer	Loss
45.47	4.0	0.02	1133.509	57.0	3	10.74	5.37	15.1402	955.0	1.68	Outcome2	12.5	10.74	0.0	No	n/a	-1.76132502831257	n/a	n/a	n/a	ShowChoice	Loss
49.482	1.0	0.012	1137.521	57.0	3	10.74	5.37	15.1402	955.0	1.68	Outcome2	12.5	10.74	0.0	No	n/a	-1.76132502831257	n/a	n/a	n/a	ShowResult	Loss
50.501	4.291	0.019	1138.54	57.0	3	10.74	5.37	15.1402	955.0	1.68	Outcome2	12.5	10.74	0.0	No	n/a	-1.76132502831257	n/a	n/a	n/a	ISITrial	Loss
54.814	3.0	0.022	1142.853	58.0	3	6.1	3.05	15.9027	955.0	3.6	Outcome1	6.1	7.9	3.04575	Yes	2.0	-1.80049075122688	1.243	56.057	n/a	GetAnswer	Gain
56.085	4.0	0.028	1144.124	58.0	3	6.1	3.05	15.9027	955.0	3.6	Outcome1	6.1	7.9	3.04575	Yes	n/a	-1.80049075122688	n/a	n/a	n/a	ShowChoice	Gain
60.097	1.0	0.012	1148.136	58.0	3	6.1	3.05	15.9027	955.0	3.6	Outcome1	6.1	7.9	3.04575	Yes	n/a	-1.80049075122688	n/a	n/a	n/a	ShowResult	Gain
61.116	2.037	0.019	1149.155	58.0	3	6.1	3.05	15.9027	955.0	3.6	Outcome1	6.1	7.9	3.04575	Yes	n/a	-1.80049075122688	n/a	n/a	n/a	ISITrial	Gain
63.173	3.046	0.02	1151.212	58.0	3	6.1	3.05	15.9027	955.0	3.6	Outcome1	6.1	7.9	3.04575	Yes	n/a	-1.80049075122688	n/a	n/a	n/a	TrialHappPreview	Gain
66.248	4.012	0.029	1154.287	58.0	3	6.1	3.05	15.9027	955.0	3.6	Outcome1	6.1	7.9	3.04575	Yes	2{-2}	-1.80049075122688	0.792	67.04	632.0	TrialHappiness	Gain
66.249	0.4	n/a	1154.68	58.0	3	6.1	3.05	15.9027	955.0	3.6	Outcome1	6.1	7.9	3.04575	Yes	n/a	-1.80049075122688	n/a	n/a	632.0	TrialHappinessSliderResponse	Gain
70.26	4.183	4.012	1158.299	58.0	3	6.1	3.05	15.9027	955.0	3.6	Outcome1	6.1	7.9	3.04575	Yes	n/a	-1.80049075122688	n/a	n/a	n/a	ISIRate	Gain
74.473	3.0	0.03	1162.512	59.0	3	0.0	0.0	15.9027	955.0	0.2	Certain	0.5	-0.97	0.0	No	4.0	-1.4663080407701	1.702	76.175	n/a	GetAnswer	Mixed
76.195	4.0	0.02	1164.234	59.0	3	0.0	0.0	15.9027	955.0	0.2	Certain	0.5	-0.97	0.0	No	n/a	-1.4663080407701	n/a	n/a	n/a	ShowChoice	Mixed
80.207	1.0	0.012	1168.246	59.0	3	0.0	0.0	15.9027	955.0	0.2	Certain	0.5	-0.97	0.0	No	n/a	-1.4663080407701	n/a	n/a	n/a	ShowResult	Mixed
81.227	5.064	0.02	1169.266	59.0	3	0.0	0.0	15.9027	955.0	0.2	Certain	0.5	-0.97	0.0	No	n/a	-1.4663080407701	n/a	n/a	n/a	ISITrial	Mixed
86.308	3.0	0.017	1174.347	60.0	3	2.0	2.0	16.1527	955.0	3.6	Certain	5.9	-1.82	3.5625	Yes	4.0	7.71913929784824	1.341	87.649	n/a	GetAnswer	Gain
87.663	4.0	0.014	1175.702	60.0	3	2.0	2.0	16.1527	955.0	3.6	Certain	5.9	-1.82	3.5625	Yes	n/a	7.71913929784824	n/a	n/a	n/a	ShowChoice	Gain
91.675	1.0	0.012	1179.714	60.0	3	2.0	2.0	16.1527	955.0	3.6	Certain	5.9	-1.82	3.5625	Yes	n/a	7.71913929784824	n/a	n/a	n/a	ShowResult	Gain
92.694	8.0	0.019	1180.733	60.0	3	2.0	2.0	16.1527	955.0	3.6	Certain	5.9	-1.82	3.5625	Yes	n/a	7.71913929784824	n/a	n/a	n/a	ISITrial	Gain
100.718	3.562	0.024	1188.757	60.0	3	2.0	2.0	16.1527	955.0	3.6	Certain	5.9	-1.82	3.5625	Yes	n/a	7.71913929784824	n/a	n/a	n/a	TrialHappPreview	Gain
104.296	4.012	0.016	1192.335	60.0	3	2.0	2.0	16.1527	955.0	3.6	Certain	5.9	-1.82	3.5625	Yes	n/a	7.71913929784824	n/a	n/a	576.0	TrialHappiness	Gain
104.296	0.284	n/a	1192.994	60.0	3	2.0	2.0	16.1527	955.0	3.6	Certain	5.9	-1.82	3.5625	Yes	n/a	7.71913929784824	n/a	n/a	576.0	TrialHappinessSliderResponse	Gain
108.308	6.25	4.012	1196.347	60.0	3	2.0	2.0	16.1527	955.0	3.6	Certain	5.9	-1.82	3.5625	Yes	n/a	7.71913929784824	n/a	n/a	n/a	ISIRate	Gain
114.576	3.0	0.018	1202.615	61.0	3	-1.0	-1.0	16.0277	955.0	0.52	Certain	3.1	-5.94	0.0	No	4.0	9.03624009060023	1.446	116.022	n/a	GetAnswer	Mixed
116.047	4.0	0.025	1204.086	61.0	3	-1.0	-1.0	16.0277	955.0	0.52	Certain	3.1	-5.94	0.0	No	n/a	9.03624009060023	n/a	n/a	n/a	ShowChoice	Mixed
120.059	1.0	0.012	1208.098	61.0	3	-1.0	-1.0	16.0277	955.0	0.52	Certain	3.1	-5.94	0.0	No	n/a	9.03624009060023	n/a	n/a	n/a	ShowResult	Mixed
121.079	4.586	0.02	1209.118	61.0	3	-1.0	-1.0	16.0277	955.0	0.52	Certain	3.1	-5.94	0.0	No	n/a	9.03624009060023	n/a	n/a	n/a	ISITrial	Mixed
125.693	3.0	0.028	1213.732	62.0	3	13.9	2.22	17.7652	955.0	3.6	Outcome1	13.9	4.43	3.74875	Yes	2.0	9.46545866364666	1.761	127.454	n/a	GetAnswer	Loss
127.465	4.0	0.011	1215.504	62.0	3	13.9	2.22	17.7652	955.0	3.6	Outcome1	13.9	4.43	3.74875	Yes	n/a	9.46545866364666	n/a	n/a	n/a	ShowChoice	Loss
131.477	1.0	0.012	1219.516	62.0	3	13.9	2.22	17.7652	955.0	3.6	Outcome1	13.9	4.43	3.74875	Yes	n/a	9.46545866364666	n/a	n/a	n/a	ShowResult	Loss
132.497	5.212	0.02	1220.536	62.0	3	13.9	2.22	17.7652	955.0	3.6	Outcome1	13.9	4.43	3.74875	Yes	n/a	9.46545866364666	n/a	n/a	n/a	ISITrial	Loss
137.729	3.749	0.02	1225.768	62.0	3	13.9	2.22	17.7652	955.0	3.6	Outcome1	13.9	4.43	3.74875	Yes	n/a	9.46545866364666	n/a	n/a	n/a	TrialHappPreview	Loss
141.507	4.012	0.029	1229.546	62.0	3	13.9	2.22	17.7652	955.0	3.6	Outcome1	13.9	4.43	3.74875	Yes	n/a	9.46545866364666	n/a	n/a	656.0	TrialHappiness	Loss
141.507	2.864	n/a	1230.341	62.0	3	13.9	2.22	17.7652	955.0	3.6	Outcome1	13.9	4.43	3.74875	Yes	n/a	9.46545866364666	n/a	n/a	656.0	TrialHappinessSliderResponse	Loss
145.519	6.995	4.012	1233.558	62.0	3	13.9	2.22	17.7652	955.0	3.6	Outcome1	13.9	4.43	3.74875	Yes	n/a	9.46545866364666	n/a	n/a	n/a	ISIRate	Loss
152.54	3.0	0.026	1240.579	63.0	3	9.8	4.9	18.9902	955.0	2.48	Outcome1	9.8	11.3	0.0	No	2.0	-1.5014156285390703	0.842	153.382	n/a	GetAnswer	Loss
153.409	4.0	0.027	1241.448	63.0	3	9.8	4.9	18.9902	955.0	2.48	Outcome1	9.8	11.3	0.0	No	n/a	-1.5014156285390703	n/a	n/a	n/a	ShowChoice	Loss
157.421	1.0	0.012	1245.46	63.0	3	9.8	4.9	18.9902	955.0	2.48	Outcome1	9.8	11.3	0.0	No	n/a	-1.5014156285390703	n/a	n/a	n/a	ShowResult	Loss
158.441	5.595	0.02	1246.48	63.0	3	9.8	4.9	18.9902	955.0	2.48	Outcome1	9.8	11.3	0.0	No	n/a	-1.5014156285390703	n/a	n/a	n/a	ISITrial	Loss
164.058	3.0	0.022	1252.097	64.0	3	-0.28	-0.28	18.9552	955.0	5.0	Certain	-0.57	8.3	0.0	No	4.0	8.87429218573046	1.462	165.52	n/a	GetAnswer	Gain
165.545	4.0	0.025	1253.584	64.0	3	-0.28	-0.28	18.9552	955.0	5.0	Certain	-0.57	8.3	0.0	No	n/a	8.87429218573046	n/a	n/a	n/a	ShowChoice	Gain
169.557	1.0	0.012	1257.596	64.0	3	-0.28	-0.28	18.9552	955.0	5.0	Certain	-0.57	8.3	0.0	No	n/a	8.87429218573046	n/a	n/a	n/a	ShowResult	Gain
170.577	5.47	0.02	1258.616	64.0	3	-0.28	-0.28	18.9552	955.0	5.0	Certain	-0.57	8.3	0.0	No	n/a	8.87429218573046	n/a	n/a	n/a	ISITrial	Gain
176.077	3.0	0.03	1264.116	65.0	3	-0.86	-0.86	18.8477	955.0	2.8	Certain	7.5	-1.71	2.99675	Yes	4.0	9.21291053227633	2.234	178.311	n/a	GetAnswer	Gain
178.334	4.0	0.023	1266.373	65.0	3	-0.86	-0.86	18.8477	955.0	2.8	Certain	7.5	-1.71	2.99675	Yes	n/a	9.21291053227633	n/a	n/a	n/a	ShowChoice	Gain
182.346	1.0	0.012	1270.385	65.0	3	-0.86	-0.86	18.8477	955.0	2.8	Certain	7.5	-1.71	2.99675	Yes	n/a	9.21291053227633	n/a	n/a	n/a	ShowResult	Gain
183.365	3.344	0.019	1271.404	65.0	3	-0.86	-0.86	18.8477	955.0	2.8	Certain	7.5	-1.71	2.99675	Yes	n/a	9.21291053227633	n/a	n/a	n/a	ISITrial	Gain
186.725	2.997	0.016	1274.764	65.0	3	-0.86	-0.86	18.8477	955.0	2.8	Certain	7.5	-1.71	2.99675	Yes	n/a	9.21291053227633	n/a	n/a	n/a	TrialHappPreview	Gain
189.751	4.012	0.029	1277.79	65.0	3	-0.86	-0.86	18.8477	955.0	2.8	Certain	7.5	-1.71	2.99675	Yes	n/a	9.21291053227633	n/a	n/a	492.0	TrialHappiness	Gain
189.752	0.104	n/a	1278.251	65.0	3	-0.86	-0.86	18.8477	955.0	2.8	Certain	7.5	-1.71	2.99675	Yes	n/a	9.21291053227633	n/a	n/a	492.0	TrialHappinessSliderResponse	Gain
193.763	3.987	4.012	1281.802	65.0	3	-0.86	-0.86	18.8477	955.0	2.8	Certain	7.5	-1.71	2.99675	Yes	n/a	9.21291053227633	n/a	n/a	n/a	ISIRate	Gain
197.775	3.0	0.025	1285.814	66.0	3	11.1	-0.62	20.2352	955.0	2.22	Outcome1	11.1	-1.24	0.0	No	2.0	12.3374858437146	1.501	199.276	n/a	GetAnswer	Loss
199.296	4.0	0.02	1287.335	66.0	3	11.1	-0.62	20.2352	955.0	2.22	Outcome1	11.1	-1.24	0.0	No	n/a	12.3374858437146	n/a	n/a	n/a	ShowChoice	Loss
203.308	1.0	0.012	1291.347	66.0	3	11.1	-0.62	20.2352	955.0	2.22	Outcome1	11.1	-1.24	0.0	No	n/a	12.3374858437146	n/a	n/a	n/a	ShowResult	Loss
204.328	3.959	0.02	1292.367	66.0	3	11.1	-0.62	20.2352	955.0	2.22	Outcome1	11.1	-1.24	0.0	No	n/a	12.3374858437146	n/a	n/a	n/a	ISITrial	Loss
208.307	3.0	0.02	1296.346	67.0	3	5.8	2.9	20.9602	955.0	4.2	Outcome1	5.8	8.1	2.9185	Yes	2.0	-2.29530011325028	1.047	209.354	n/a	GetAnswer	Gain
209.376	4.0	0.022	1297.415	67.0	3	5.8	2.9	20.9602	955.0	4.2	Outcome1	5.8	8.1	2.9185	Yes	n/a	-2.29530011325028	n/a	n/a	n/a	ShowChoice	Gain
213.388	1.0	0.012	1301.427	67.0	3	5.8	2.9	20.9602	955.0	4.2	Outcome1	5.8	8.1	2.9185	Yes	n/a	-2.29530011325028	n/a	n/a	n/a	ShowResult	Gain
214.408	4.199	0.02	1302.447	67.0	3	5.8	2.9	20.9602	955.0	4.2	Outcome1	5.8	8.1	2.9185	Yes	n/a	-2.29530011325028	n/a	n/a	n/a	ISITrial	Gain
218.621	2.918	0.014	1306.66	67.0	3	5.8	2.9	20.9602	955.0	4.2	Outcome1	5.8	8.1	2.9185	Yes	n/a	-2.29530011325028	n/a	n/a	n/a	TrialHappPreview	Gain
221.563	4.012	0.024	1309.602	67.0	3	5.8	2.9	20.9602	955.0	4.2	Outcome1	5.8	8.1	2.9185	Yes	n/a	-2.29530011325028	n/a	n/a	664.0	TrialHappiness	Gain
221.563	0.453	n/a	1310.191	67.0	3	5.8	2.9	20.9602	955.0	4.2	Outcome1	5.8	8.1	2.9185	Yes	n/a	-2.29530011325028	n/a	n/a	664.0	TrialHappinessSliderResponse	Gain
225.575	3.674	4.012	1313.614	67.0	3	5.8	2.9	20.9602	955.0	4.2	Outcome1	5.8	8.1	2.9185	Yes	n/a	-2.29530011325028	n/a	n/a	n/a	ISIRate	Gain
229.269	3.0	0.02	1317.308	68.0	3	9.06	4.53	22.0927	955.0	1.82	Outcome2	10.7	9.06	0.0	No	2.0	-1.64099660249151	0.834	230.103	n/a	GetAnswer	Loss
230.122	4.0	0.019	1318.161	68.0	3	9.06	4.53	22.0927	955.0	1.82	Outcome2	10.7	9.06	0.0	No	n/a	-1.64099660249151	n/a	n/a	n/a	ShowChoice	Loss
234.134	1.0	0.012	1322.173	68.0	3	9.06	4.53	22.0927	955.0	1.82	Outcome2	10.7	9.06	0.0	No	n/a	-1.64099660249151	n/a	n/a	n/a	ShowResult	Loss
235.154	2.185	0.02	1323.193	68.0	3	9.06	4.53	22.0927	955.0	1.82	Outcome2	10.7	9.06	0.0	No	n/a	-1.64099660249151	n/a	n/a	n/a	ISITrial	Loss
237.36	3.0	0.021	1325.399	69.0	3	11.5	0.36	23.5302	955.0	2.8	Outcome1	11.5	0.71	0.0	No	2.0	10.7938844847112	0.94	238.3	n/a	GetAnswer	Loss
238.313	4.0	0.013	1326.352	69.0	3	11.5	0.36	23.5302	955.0	2.8	Outcome1	11.5	0.71	0.0	No	n/a	10.7938844847112	n/a	n/a	n/a	ShowChoice	Loss
242.325	1.0	0.012	1330.364	69.0	3	11.5	0.36	23.5302	955.0	2.8	Outcome1	11.5	0.71	0.0	No	n/a	10.7938844847112	n/a	n/a	n/a	ShowResult	Loss
243.345	2.0	0.02	1331.384	69.0	3	11.5	0.36	23.5302	955.0	2.8	Outcome1	11.5	0.71	0.0	No	n/a	10.7938844847112	n/a	n/a	n/a	ISITrial	Loss
245.367	3.0	0.022	1333.406	70.0	3	0.0	0.0	23.5302	955.0	2.8	Certain	-5.62	5.5	3.65125	Yes	4.0	11.123442808607	1.412	246.779	n/a	GetAnswer	Gain
246.805	4.0	0.026	1334.844	70.0	3	0.0	0.0	23.5302	955.0	2.8	Certain	-5.62	5.5	3.65125	Yes	n/a	11.123442808607	n/a	n/a	n/a	ShowChoice	Gain
250.817	1.0	0.012	1338.856	70.0	3	0.0	0.0	23.5302	955.0	2.8	Certain	-5.62	5.5	3.65125	Yes	n/a	11.123442808607	n/a	n/a	n/a	ShowResult	Gain
251.837	2.623	0.02	1339.876	70.0	3	0.0	0.0	23.5302	955.0	2.8	Certain	-5.62	5.5	3.65125	Yes	n/a	11.123442808607	n/a	n/a	n/a	ISITrial	Gain
254.478	3.651	0.018	1342.517	70.0	3	0.0	0.0	23.5302	955.0	2.8	Certain	-5.62	5.5	3.65125	Yes	n/a	11.123442808607	n/a	n/a	n/a	TrialHappPreview	Gain
258.156	4.012	0.027	1346.195	70.0	3	0.0	0.0	23.5302	955.0	2.8	Certain	-5.62	5.5	3.65125	Yes	n/a	11.123442808607	n/a	n/a	640.0	TrialHappiness	Gain
258.156	1.96	n/a	1346.962	70.0	3	0.0	0.0	23.5302	955.0	2.8	Certain	-5.62	5.5	3.65125	Yes	n/a	11.123442808607	n/a	n/a	640.0	TrialHappinessSliderResponse	Gain
262.168	6.605	4.012	1350.207	70.0	3	0.0	0.0	23.5302	955.0	2.8	Certain	-5.62	5.5	3.65125	Yes	n/a	11.123442808607	n/a	n/a	n/a	ISIRate	Gain
268.804	3.0	0.031	1356.843	71.0	3	-6.0	-6.0	22.7802	955.0	1.0	Certain	-12.16	-0.3	0.0	No	4.0	11.8607021517554	1.1	269.904	n/a	GetAnswer	Mixed
269.924	4.0	0.02	1357.963	71.0	3	-6.0	-6.0	22.7802	955.0	1.0	Certain	-12.16	-0.3	0.0	No	n/a	11.8607021517554	n/a	n/a	n/a	ShowChoice	Mixed
273.936	1.0	0.012	1361.975	71.0	3	-6.0	-6.0	22.7802	955.0	1.0	Certain	-12.16	-0.3	0.0	No	n/a	11.8607021517554	n/a	n/a	n/a	ShowResult	Mixed
274.956	5.499	0.02	1362.995	71.0	3	-6.0	-6.0	22.7802	955.0	1.0	Certain	-12.16	-0.3	0.0	No	n/a	11.8607021517554	n/a	n/a	n/a	ISITrial	Mixed
280.472	3.0	0.017	1368.511	72.0	3	13.7	0.74	24.4927	955.0	3.16	Outcome2	1.48	13.7	3.0805	Yes	2.0	12.2174405436014	1.024	281.496	n/a	GetAnswer	Loss
281.509	4.0	0.013	1369.548	72.0	3	13.7	0.74	24.4927	955.0	3.16	Outcome2	1.48	13.7	3.0805	Yes	n/a	12.2174405436014	n/a	n/a	n/a	ShowChoice	Loss
285.521	1.0	0.012	1373.56	72.0	3	13.7	0.74	24.4927	955.0	3.16	Outcome2	1.48	13.7	3.0805	Yes	n/a	12.2174405436014	n/a	n/a	n/a	ShowResult	Loss
286.54	5.672	0.019	1374.579	72.0	3	13.7	0.74	24.4927	955.0	3.16	Outcome2	1.48	13.7	3.0805	Yes	n/a	12.2174405436014	n/a	n/a	n/a	ISITrial	Loss
292.224	3.08	0.012	1380.263	72.0	3	13.7	0.74	24.4927	955.0	3.16	Outcome2	1.48	13.7	3.0805	Yes	n/a	12.2174405436014	n/a	n/a	n/a	TrialHappPreview	Loss
295.333	4.012	0.029	1383.372	72.0	3	13.7	0.74	24.4927	955.0	3.16	Outcome2	1.48	13.7	3.0805	Yes	n/a	12.2174405436014	n/a	n/a	616.0	TrialHappiness	Loss
295.334	1.179	n/a	1383.79	72.0	3	13.7	0.74	24.4927	955.0	3.16	Outcome2	1.48	13.7	3.0805	Yes	n/a	12.2174405436014	n/a	n/a	616.0	TrialHappinessSliderResponse	Loss
299.345	4.322	4.012	1387.384	72.0	3	13.7	0.74	24.4927	955.0	3.16	Outcome2	1.48	13.7	3.0805	Yes	n/a	12.2174405436014	n/a	n/a	n/a	ISIRate	Loss
303.692	3.0	0.025	1391.731	73.0	3	0.0	0.0	24.4927	955.0	0.82	Certain	1.5	-0.48	0.0	No	4.0	-1.97763306908267	1.605	305.297	n/a	GetAnswer	Mixed
305.313	4.0	0.016	1393.352	73.0	3	0.0	0.0	24.4927	955.0	0.82	Certain	1.5	-0.48	0.0	No	n/a	-1.97763306908267	n/a	n/a	n/a	ShowChoice	Mixed
309.325	1.0	0.012	1397.364	73.0	3	0.0	0.0	24.4927	955.0	0.82	Certain	1.5	-0.48	0.0	No	n/a	-1.97763306908267	n/a	n/a	n/a	ShowResult	Mixed
310.345	4.616	0.02	1398.384	73.0	3	0.0	0.0	24.4927	955.0	0.82	Certain	1.5	-0.48	0.0	No	n/a	-1.97763306908267	n/a	n/a	n/a	ISITrial	Mixed
314.992	3.0	0.031	1403.031	74.0	3	3.29	1.64	24.9039	955.0	2.48	Outcome1	3.29	5.3	3.05625	Yes	2.0	-2.00962627406569	0.893	315.885	n/a	GetAnswer	Gain
315.912	4.0	0.027	1403.951	74.0	3	3.29	1.64	24.9039	955.0	2.48	Outcome1	3.29	5.3	3.05625	Yes	n/a	-2.00962627406569	n/a	n/a	n/a	ShowChoice	Gain
319.924	1.0	0.012	1407.963	74.0	3	3.29	1.64	24.9039	955.0	2.48	Outcome1	3.29	5.3	3.05625	Yes	n/a	-2.00962627406569	n/a	n/a	n/a	ShowResult	Gain
320.943	3.909	0.019	1408.982	74.0	3	3.29	1.64	24.9039	955.0	2.48	Outcome1	3.29	5.3	3.05625	Yes	n/a	-2.00962627406569	n/a	n/a	n/a	ISITrial	Gain
324.872	3.056	0.02	1412.911	74.0	3	3.29	1.64	24.9039	955.0	2.48	Outcome1	3.29	5.3	3.05625	Yes	n/a	-2.00962627406569	n/a	n/a	n/a	TrialHappPreview	Gain
327.948	4.012	0.02	1415.987	74.0	3	3.29	1.64	24.9039	955.0	2.48	Outcome1	3.29	5.3	3.05625	Yes	n/a	-2.00962627406569	n/a	n/a	604.0	TrialHappiness	Gain
327.948	2.888	n/a	1416.427	74.0	3	3.29	1.64	24.9039	955.0	2.48	Outcome1	3.29	5.3	3.05625	Yes	n/a	-2.00962627406569	n/a	n/a	604.0	TrialHappinessSliderResponse	Gain
331.96	4.225	4.012	1419.999	74.0	3	3.29	1.64	24.9039	955.0	2.48	Outcome1	3.29	5.3	3.05625	Yes	n/a	-2.00962627406569	n/a	n/a	n/a	ISIRate	Gain
336.206	3.0	0.021	1424.245	75.0	3	12.9	-0.52	26.5164	955.0	2.0	Outcome2	-1.05	12.9	0.0	No	2.0	13.9535673839185	1.809	338.015	n/a	GetAnswer	Loss
338.028	4.0	0.013	1426.067	75.0	3	12.9	-0.52	26.5164	955.0	2.0	Outcome2	-1.05	12.9	0.0	No	n/a	13.9535673839185	n/a	n/a	n/a	ShowChoice	Loss
342.04	1.0	0.012	1430.079	75.0	3	12.9	-0.52	26.5164	955.0	2.0	Outcome2	-1.05	12.9	0.0	No	n/a	13.9535673839185	n/a	n/a	n/a	ShowResult	Loss
343.059	4.979	0.019	1431.098	75.0	3	12.9	-0.52	26.5164	955.0	2.0	Outcome2	-1.05	12.9	0.0	No	n/a	13.9535673839185	n/a	n/a	n/a	ISITrial	Loss
348.058	3.0	0.02	1436.097	76.0	3	1.18	2.0	26.6639	955.0	0.66	Outcome2	3.3	1.18	0.0	No	2.0	-2.1234428086070203	0.975	349.033	n/a	GetAnswer	Mixed
349.061	4.0	0.028	1437.1	76.0	3	1.18	2.0	26.6639	955.0	0.66	Outcome2	3.3	1.18	0.0	No	n/a	-2.1234428086070203	n/a	n/a	n/a	ShowChoice	Mixed
353.089	1.0	0.028	1441.128	76.0	3	1.18	2.0	26.6639	955.0	0.66	Outcome2	3.3	1.18	0.0	No	n/a	-2.1234428086070203	n/a	n/a	n/a	ShowResult	Mixed
354.109	3.931	0.02	1442.148	76.0	3	1.18	2.0	26.6639	955.0	0.66	Outcome2	3.3	1.18	0.0	No	n/a	-2.1234428086070203	n/a	n/a	n/a	ISITrial	Mixed
358.071	3.0	0.031	1446.11	77.0	3	4.14	2.07	27.1814	955.0	5.0	Outcome1	4.14	6.3	4.0	Yes	2.0	-2.15656851642129	1.062	359.133	n/a	GetAnswer	Gain
359.158	4.0	0.025	1447.197	77.0	3	4.14	2.07	27.1814	955.0	5.0	Outcome1	4.14	6.3	4.0	Yes	n/a	-2.15656851642129	n/a	n/a	n/a	ShowChoice	Gain
363.17	1.0	0.012	1451.209	77.0	3	4.14	2.07	27.1814	955.0	5.0	Outcome1	4.14	6.3	4.0	Yes	n/a	-2.15656851642129	n/a	n/a	n/a	ShowResult	Gain
364.189	7.022	0.019	1452.228	77.0	3	4.14	2.07	27.1814	955.0	5.0	Outcome1	4.14	6.3	4.0	Yes	n/a	-2.15656851642129	n/a	n/a	n/a	ISITrial	Gain
371.227	4.0	0.016	1459.266	77.0	3	4.14	2.07	27.1814	955.0	5.0	Outcome1	4.14	6.3	4.0	Yes	n/a	-2.15656851642129	n/a	n/a	n/a	TrialHappPreview	Gain
375.256	4.028	0.029	1463.295	77.0	3	4.14	2.07	27.1814	955.0	5.0	Outcome1	4.14	6.3	4.0	Yes	2{-2}4{-4}2{-2}	-2.15656851642129	3.451	378.707	644.0	TrialHappiness	Gain
375.256	3.058	n/a	1463.688	77.0	3	4.14	2.07	27.1814	955.0	5.0	Outcome1	4.14	6.3	4.0	Yes	n/a	-2.15656851642129	n/a	n/a	644.0	TrialHappinessSliderResponse	Gain
379.284	8.0	4.028	1467.323	77.0	3	4.14	2.07	27.1814	955.0	5.0	Outcome1	4.14	6.3	4.0	Yes	n/a	-2.15656851642129	n/a	n/a	n/a	ISIRate	Gain
387.308	3.0	0.024	1475.347	78.0	3	-6.0	-6.0	26.4314	955.0	0.66	Certain	-13.17	1.3	0.0	No	4.0	14.4665911664779	1.183	388.491	n/a	GetAnswer	Mixed
388.512	4.0	0.02	1476.551	78.0	3	-6.0	-6.0	26.4314	955.0	0.66	Certain	-13.17	1.3	0.0	No	n/a	14.4665911664779	n/a	n/a	n/a	ShowChoice	Mixed
392.541	1.0	0.029	1480.58	78.0	3	-6.0	-6.0	26.4314	955.0	0.66	Certain	-13.17	1.3	0.0	No	n/a	14.4665911664779	n/a	n/a	n/a	ShowResult	Mixed
393.56	2.078	0.019	1481.599	78.0	3	-6.0	-6.0	26.4314	955.0	0.66	Certain	-13.17	1.3	0.0	No	n/a	14.4665911664779	n/a	n/a	n/a	ISITrial	Mixed
395.667	3.0	0.029	1483.706	79.0	3	7.84	3.92	27.4114	955.0	3.6	Outcome1	7.84	9.9	2.7295	Yes	2.0	-2.05671951679879	0.899	396.566	n/a	GetAnswer	Gain
396.586	4.0	0.02	1484.625	79.0	3	7.84	3.92	27.4114	955.0	3.6	Outcome1	7.84	9.9	2.7295	Yes	n/a	-2.05671951679879	n/a	n/a	n/a	ShowChoice	Gain
400.598	1.0	0.012	1488.637	79.0	3	7.84	3.92	27.4114	955.0	3.6	Outcome1	7.84	9.9	2.7295	Yes	n/a	-2.05671951679879	n/a	n/a	n/a	ShowResult	Gain
401.618	3.829	0.02	1489.657	79.0	3	7.84	3.92	27.4114	955.0	3.6	Outcome1	7.84	9.9	2.7295	Yes	n/a	-2.05671951679879	n/a	n/a	n/a	ISITrial	Gain
405.463	2.73	0.016	1493.502	79.0	3	7.84	3.92	27.4114	955.0	3.6	Outcome1	7.84	9.9	2.7295	Yes	n/a	-2.05671951679879	n/a	n/a	n/a	TrialHappPreview	Gain
408.221	4.029	0.028	1496.26	79.0	3	7.84	3.92	27.4114	955.0	3.6	Outcome1	7.84	9.9	2.7295	Yes	n/a	-2.05671951679879	n/a	n/a	552.0	TrialHappiness	Gain
408.222	1.205	n/a	1497.604	79.0	3	7.84	3.92	27.4114	955.0	3.6	Outcome1	7.84	9.9	2.7295	Yes	n/a	-2.05671951679879	n/a	n/a	552.0	TrialHappinessSliderResponse	Gain
412.25	2.918	4.029	1500.289	79.0	3	7.84	3.92	27.4114	955.0	3.6	Outcome1	7.84	9.9	2.7295	Yes	n/a	-2.05671951679879	n/a	n/a	n/a	ISIRate	Gain
415.192	3.0	0.024	1503.231	80.0	3	-7.0	-7.0	26.5364	955.0	0.3	Certain	0.7	-16.03	0.0	No	4.0	16.7338618346546	1.382	416.574	n/a	GetAnswer	Mixed
416.596	4.0	0.022	1504.635	80.0	3	-7.0	-7.0	26.5364	955.0	0.3	Certain	0.7	-16.03	0.0	No	n/a	16.7338618346546	n/a	n/a	n/a	ShowChoice	Mixed
420.625	1.0	0.029	1508.664	80.0	3	-7.0	-7.0	26.5364	955.0	0.3	Certain	0.7	-16.03	0.0	No	n/a	16.7338618346546	n/a	n/a	n/a	ShowResult	Mixed
421.644	3.336	0.019	1509.683	80.0	3	-7.0	-7.0	26.5364	955.0	0.3	Certain	0.7	-16.03	0.0	No	n/a	16.7338618346546	n/a	n/a	n/a	ISITrial	Mixed
425.004	3.0	0.024	1513.043	81.0	3	2.4	1.2	26.8364	955.0	2.0	Outcome2	4.9	2.4	3.92375	Yes	2.0	-2.49745186862967	1.694	426.698	n/a	GetAnswer	Gain
426.726	4.0	0.028	1514.765	81.0	3	2.4	1.2	26.8364	955.0	2.0	Outcome2	4.9	2.4	3.92375	Yes	n/a	-2.49745186862967	n/a	n/a	n/a	ShowChoice	Gain
430.738	1.0	0.012	1518.777	81.0	3	2.4	1.2	26.8364	955.0	2.0	Outcome2	4.9	2.4	3.92375	Yes	n/a	-2.49745186862967	n/a	n/a	n/a	ShowResult	Gain
431.758	3.919	0.02	1519.797	81.0	3	2.4	1.2	26.8364	955.0	2.0	Outcome2	4.9	2.4	3.92375	Yes	n/a	-2.49745186862967	n/a	n/a	n/a	ISITrial	Gain
435.703	3.924	0.026	1523.742	81.0	3	2.4	1.2	26.8364	955.0	2.0	Outcome2	4.9	2.4	3.92375	Yes	n/a	-2.49745186862967	n/a	n/a	n/a	TrialHappPreview	Gain
439.648	4.029	0.021	1527.687	81.0	3	2.4	1.2	26.8364	955.0	2.0	Outcome2	4.9	2.4	3.92375	Yes	n/a	-2.49745186862967	n/a	n/a	520.0	TrialHappiness	Gain
439.649	0.163	n/a	1528.516	81.0	3	2.4	1.2	26.8364	955.0	2.0	Outcome2	4.9	2.4	3.92375	Yes	n/a	-2.49745186862967	n/a	n/a	520.0	TrialHappinessSliderResponse	Gain
443.677	7.695	4.029	1531.716	81.0	3	2.4	1.2	26.8364	955.0	2.0	Outcome2	4.9	2.4	3.92375	Yes	n/a	-2.49745186862967	n/a	n/a	n/a	ISIRate	Gain
451.4	3.0	0.028	1539.439	n/a	3	n/a	n/a	n/a	n/a	n/a	n/a	n/a	n/a	n/a	n/a	n/a	n/a	n/a	n/a	n/a	CurrentEarnings	n/a
454.426	-0.001	0.026	1542.465	n/a	3	n/a	n/a	n/a	n/a	n/a	n/a	n/a	n/a	n/a	n/a	{SPACE}	n/a	6.74	461.166	n/a	Goodbye	n/a
