onset	duration	onset_delay	onset_unadjusted	trial_number	block	amount_change	certain_amount	current_amount	mood_target	multiplier	outcome	outcome1_amount	outcome2_amount	question_duration	rating	response	rpe	rt	rt_time	slider_response	trial_phase	trial_type
-41.725	-0.001	0.021	25.875	n/a	0	n/a	n/a	n/a	n/a	n/a	n/a	n/a	n/a	n/a	n/a	{SPACE}	n/a	3.846	-37.879	n/a	Welcome	n/a
-37.863	5.0	0.016	29.737	n/a	0	n/a	n/a	n/a	n/a	n/a	n/a	n/a	n/a	n/a	n/a	n/a	n/a	n/a	n/a	n/a	LifeHappyPreview	n/a
-32.831	2.163	0.032	34.769	n/a	0	n/a	n/a	n/a	n/a	n/a	n/a	n/a	n/a	n/a	n/a	n/a	n/a	n/a	n/a	464.0	LifeHappiness	n/a
-32.831	1.199	n/a	35.733	n/a	0	n/a	n/a	n/a	n/a	n/a	n/a	n/a	n/a	n/a	n/a	n/a	n/a	n/a	n/a	464.0	LifeHappinessSliderResponse	n/a
-15.413	4.0	0.019	52.187	n/a	0	n/a	n/a	n/a	n/a	n/a	n/a	n/a	n/a	n/a	n/a	n/a	n/a	n/a	n/a	n/a	BlockHappyPreview	n/a
-11.401	0.857	0.012	56.199	n/a	0	n/a	n/a	n/a	n/a	n/a	n/a	n/a	n/a	n/a	n/a	n/a	n/a	n/a	n/a	492.0	BlockStartHappiness	n/a
-11.4	0.133	n/a	56.924	n/a	0	n/a	n/a	n/a	n/a	n/a	n/a	n/a	n/a	n/a	n/a	n/a	n/a	n/a	n/a	492.0	BlockStartHappinessSliderResponse	n/a
-2.758	-0.001	0.018	64.842	n/a	0	n/a	n/a	n/a	n/a	n/a	n/a	n/a	n/a	n/a	n/a	5.0	n/a	2.739	-0.019	n/a	ScanWait	n/a
0.0	10.0	0.019	67.6	n/a	1	n/a	n/a	n/a	n/a	n/a	n/a	n/a	n/a	n/a	n/a	n/a	n/a	n/a	n/a	n/a	GetReady	n/a
10.03	3.0	0.03	77.63	1.0	1	4.3	0.0	10.5375	955.0	2.0	Outcome2	-3.57	4.3	0.0	No	2.0	7.865232163080409	0.934	10.964	n/a	GetAnswer	Mixed
10.983	4.0	0.019	78.583	1.0	1	4.3	0.0	10.5375	955.0	2.0	Outcome2	-3.57	4.3	0.0	No	n/a	7.865232163080409	n/a	n/a	n/a	ShowChoice	Mixed
14.995	1.0	0.012	82.595	1.0	1	4.3	0.0	10.5375	955.0	2.0	Outcome2	-3.57	4.3	0.0	No	n/a	7.865232163080409	n/a	n/a	n/a	ShowResult	Mixed
16.015	2.431	0.02	83.615	1.0	1	4.3	0.0	10.5375	955.0	2.0	Outcome2	-3.57	4.3	0.0	No	n/a	7.865232163080409	n/a	n/a	n/a	ISITrial	Mixed
18.472	3.0	0.026	86.072	2.0	1	0.7	-3.0	10.625	955.0	0.3	Outcome2	-7.69	0.7	0.0	No	n/a	8.38958097395244	n/a	n/a	n/a	GetAnswer	Mixed
21.498	4.0	0.026	89.098	2.0	1	0.7	-3.0	10.625	955.0	0.3	Outcome2	-7.69	0.7	0.0	No	n/a	8.38958097395244	n/a	n/a	n/a	ShowChoice	Mixed
25.51	1.0	0.012	93.11	2.0	1	0.7	-3.0	10.625	955.0	0.3	Outcome2	-7.69	0.7	0.0	No	n/a	8.38958097395244	n/a	n/a	n/a	ShowResult	Mixed
26.529	4.568	0.019	94.129	2.0	1	0.7	-3.0	10.625	955.0	0.3	Outcome2	-7.69	0.7	0.0	No	n/a	8.38958097395244	n/a	n/a	n/a	ISITrial	Mixed
31.127	3.0	0.03	98.727	3.0	1	8.9	0.0	11.7375	955.0	2.0	Outcome2	-0.01	8.9	2.868	Yes	2.0	8.913929784824461	1.064	32.191	n/a	GetAnswer	Gain
32.213	4.0	0.022	99.813	3.0	1	8.9	0.0	11.7375	955.0	2.0	Outcome2	-0.01	8.9	2.868	Yes	n/a	8.913929784824461	n/a	n/a	n/a	ShowChoice	Gain
36.225	1.0	0.012	103.825	3.0	1	8.9	0.0	11.7375	955.0	2.0	Outcome2	-0.01	8.9	2.868	Yes	n/a	8.913929784824461	n/a	n/a	n/a	ShowResult	Gain
37.245	3.243	0.02	104.845	3.0	1	8.9	0.0	11.7375	955.0	2.0	Outcome2	-0.01	8.9	2.868	Yes	n/a	8.913929784824461	n/a	n/a	n/a	ISITrial	Gain
40.505	2.868	0.017	108.105	3.0	1	8.9	0.0	11.7375	955.0	2.0	Outcome2	-0.01	8.9	2.868	Yes	n/a	8.913929784824461	n/a	n/a	n/a	TrialHappPreview	Gain
43.397	4.012	0.024	110.997	3.0	1	8.9	0.0	11.7375	955.0	2.0	Outcome2	-0.01	8.9	2.868	Yes	2{-2}	8.913929784824461	0.731	44.128	532.0	TrialHappiness	Gain
43.397	0.147	n/a	111.581	3.0	1	8.9	0.0	11.7375	955.0	2.0	Outcome2	-0.01	8.9	2.868	Yes	n/a	8.913929784824461	n/a	n/a	532.0	TrialHappinessSliderResponse	Gain
47.409	3.472	4.012	115.009	3.0	1	8.9	0.0	11.7375	955.0	2.0	Outcome2	-0.01	8.9	2.868	Yes	n/a	8.913929784824461	n/a	n/a	n/a	ISIRate	Gain
50.902	3.0	0.021	118.502	4.0	1	-2.95	-2.0	11.3687	955.0	0.4	Outcome1	-2.95	-1.1	0.0	No	2.0	-1.84767836919592	2.037	52.939	n/a	GetAnswer	Mixed
52.959	4.0	0.02	120.559	4.0	1	-2.95	-2.0	11.3687	955.0	0.4	Outcome1	-2.95	-1.1	0.0	No	n/a	-1.84767836919592	n/a	n/a	n/a	ShowChoice	Mixed
56.971	1.0	0.012	124.571	4.0	1	-2.95	-2.0	11.3687	955.0	0.4	Outcome1	-2.95	-1.1	0.0	No	n/a	-1.84767836919592	n/a	n/a	n/a	ShowResult	Mixed
57.99	2.011	0.019	125.59	4.0	1	-2.95	-2.0	11.3687	955.0	0.4	Outcome1	-2.95	-1.1	0.0	No	n/a	-1.84767836919592	n/a	n/a	n/a	ISITrial	Mixed
60.03	3.0	0.029	127.63	5.0	1	0.0	0.0	11.3687	955.0	0.2	Certain	-1.39	0.5	2.5825	Yes	4.0	-1.88759909399774	1.481	61.511	n/a	GetAnswer	Mixed
61.534	4.0	0.023	129.134	5.0	1	0.0	0.0	11.3687	955.0	0.2	Certain	-1.39	0.5	2.5825	Yes	n/a	-1.88759909399774	n/a	n/a	n/a	ShowChoice	Mixed
65.546	1.0	0.012	133.146	5.0	1	0.0	0.0	11.3687	955.0	0.2	Certain	-1.39	0.5	2.5825	Yes	n/a	-1.88759909399774	n/a	n/a	n/a	ShowResult	Mixed
66.566	5.129	0.02	134.166	5.0	1	0.0	0.0	11.3687	955.0	0.2	Certain	-1.39	0.5	2.5825	Yes	n/a	-1.88759909399774	n/a	n/a	n/a	ISITrial	Mixed
71.715	2.582	0.02	139.315	5.0	1	0.0	0.0	11.3687	955.0	0.2	Certain	-1.39	0.5	2.5825	Yes	n/a	-1.88759909399774	n/a	n/a	n/a	TrialHappPreview	Mixed
74.322	4.012	0.025	141.922	5.0	1	0.0	0.0	11.3687	955.0	0.2	Certain	-1.39	0.5	2.5825	Yes	n/a	-1.88759909399774	n/a	n/a	496.0	TrialHappiness	Mixed
74.323	0.18	n/a	142.486	5.0	1	0.0	0.0	11.3687	955.0	0.2	Certain	-1.39	0.5	2.5825	Yes	n/a	-1.88759909399774	n/a	n/a	496.0	TrialHappinessSliderResponse	Mixed
78.334	2.33	4.012	145.934	5.0	1	0.0	0.0	11.3687	955.0	0.2	Certain	-1.39	0.5	2.5825	Yes	n/a	-1.88759909399774	n/a	n/a	n/a	ISIRate	Mixed
80.691	3.0	0.027	148.291	6.0	1	9.1	-0.62	12.5062	955.0	2.22	Outcome1	9.1	-1.23	0.0	No	2.0	10.3284258210646	1.119	81.81	n/a	GetAnswer	Gain
81.828	4.0	0.018	149.428	6.0	1	9.1	-0.62	12.5062	955.0	2.22	Outcome1	9.1	-1.23	0.0	No	n/a	10.3284258210646	n/a	n/a	n/a	ShowChoice	Gain
85.84	1.0	0.012	153.44	6.0	1	9.1	-0.62	12.5062	955.0	2.22	Outcome1	9.1	-1.23	0.0	No	n/a	10.3284258210646	n/a	n/a	n/a	ShowResult	Gain
86.86	6.232	0.02	154.46	6.0	1	9.1	-0.62	12.5062	955.0	2.22	Outcome1	9.1	-1.23	0.0	No	n/a	10.3284258210646	n/a	n/a	n/a	ISITrial	Gain
93.112	3.0	0.02	160.712	7.0	1	11.5	0.32	13.9437	955.0	2.8	Outcome2	0.65	11.5	0.0	No	2.0	10.8482446206116	1.171	94.283	n/a	GetAnswer	Loss
94.299	4.0	0.016	161.899	7.0	1	11.5	0.32	13.9437	955.0	2.8	Outcome2	0.65	11.5	0.0	No	n/a	10.8482446206116	n/a	n/a	n/a	ShowChoice	Loss
98.311	1.0	0.012	165.911	7.0	1	11.5	0.32	13.9437	955.0	2.8	Outcome2	0.65	11.5	0.0	No	n/a	10.8482446206116	n/a	n/a	n/a	ShowResult	Loss
99.33	2.305	0.019	166.93	7.0	1	11.5	0.32	13.9437	955.0	2.8	Outcome2	0.65	11.5	0.0	No	n/a	10.8482446206116	n/a	n/a	n/a	ISITrial	Loss
101.654	3.0	0.019	169.254	8.0	1	11.7	0.16	15.4062	955.0	3.16	Outcome2	0.33	11.7	3.1125	Yes	2.0	11.3680634201585	0.859	102.513	n/a	GetAnswer	Loss
102.54	4.0	0.027	170.14	8.0	1	11.7	0.16	15.4062	955.0	3.16	Outcome2	0.33	11.7	3.1125	Yes	n/a	11.3680634201585	n/a	n/a	n/a	ShowChoice	Loss
106.552	1.0	0.012	174.152	8.0	1	11.7	0.16	15.4062	955.0	3.16	Outcome2	0.33	11.7	3.1125	Yes	n/a	11.3680634201585	n/a	n/a	n/a	ShowResult	Loss
107.572	3.506	0.02	175.172	8.0	1	11.7	0.16	15.4062	955.0	3.16	Outcome2	0.33	11.7	3.1125	Yes	n/a	11.3680634201585	n/a	n/a	n/a	ISITrial	Loss
111.099	3.112	0.021	178.699	8.0	1	11.7	0.16	15.4062	955.0	3.16	Outcome2	0.33	11.7	3.1125	Yes	n/a	11.3680634201585	n/a	n/a	n/a	TrialHappPreview	Loss
114.225	4.012	0.014	181.825	8.0	1	11.7	0.16	15.4062	955.0	3.16	Outcome2	0.33	11.7	3.1125	Yes	n/a	11.3680634201585	n/a	n/a	556.0	TrialHappiness	Loss
114.226	0.444	n/a	182.263	8.0	1	11.7	0.16	15.4062	955.0	3.16	Outcome2	0.33	11.7	3.1125	Yes	n/a	11.3680634201585	n/a	n/a	556.0	TrialHappinessSliderResponse	Loss
118.237	4.45	4.012	185.837	8.0	1	11.7	0.16	15.4062	955.0	3.16	Outcome2	0.33	11.7	3.1125	Yes	n/a	11.3680634201585	n/a	n/a	n/a	ISIRate	Loss
122.717	3.0	0.03	190.317	9.0	1	8.7	-1.08	16.4937	955.0	1.82	Outcome2	-2.17	8.7	0.0	No	2.0	10.8686296715742	0.788	123.505	n/a	GetAnswer	Gain
123.519	4.0	0.014	191.119	9.0	1	8.7	-1.08	16.4937	955.0	1.82	Outcome2	-2.17	8.7	0.0	No	n/a	10.8686296715742	n/a	n/a	n/a	ShowChoice	Gain
127.531	1.0	0.012	195.131	9.0	1	8.7	-1.08	16.4937	955.0	1.82	Outcome2	-2.17	8.7	0.0	No	n/a	10.8686296715742	n/a	n/a	n/a	ShowResult	Gain
128.551	2.0	0.02	196.151	9.0	1	8.7	-1.08	16.4937	955.0	1.82	Outcome2	-2.17	8.7	0.0	No	n/a	10.8686296715742	n/a	n/a	n/a	ISITrial	Gain
130.574	3.0	0.023	198.174	10.0	1	-0.9	-6.0	16.3812	955.0	0.52	Outcome1	-0.9	-12.22	4.0	Yes	2.0	11.320498301245802	0.873	131.447	n/a	GetAnswer	Mixed
131.46	4.0	0.013	199.06	10.0	1	-0.9	-6.0	16.3812	955.0	0.52	Outcome1	-0.9	-12.22	4.0	Yes	n/a	11.320498301245802	n/a	n/a	n/a	ShowChoice	Mixed
135.472	1.0	0.012	203.072	10.0	1	-0.9	-6.0	16.3812	955.0	0.52	Outcome1	-0.9	-12.22	4.0	Yes	n/a	11.320498301245802	n/a	n/a	n/a	ShowResult	Mixed
136.492	2.0	0.02	204.092	10.0	1	-0.9	-6.0	16.3812	955.0	0.52	Outcome1	-0.9	-12.22	4.0	Yes	n/a	11.320498301245802	n/a	n/a	n/a	ISITrial	Mixed
138.514	4.0	0.022	206.114	10.0	1	-0.9	-6.0	16.3812	955.0	0.52	Outcome1	-0.9	-12.22	4.0	Yes	n/a	11.320498301245802	n/a	n/a	n/a	TrialHappPreview	Mixed
142.543	4.012	0.029	210.143	10.0	1	-0.9	-6.0	16.3812	955.0	0.52	Outcome1	-0.9	-12.22	4.0	Yes	n/a	11.320498301245802	n/a	n/a	576.0	TrialHappiness	Mixed
142.544	0.778	n/a	210.492	10.0	1	-0.9	-6.0	16.3812	955.0	0.52	Outcome1	-0.9	-12.22	4.0	Yes	n/a	11.320498301245802	n/a	n/a	576.0	TrialHappinessSliderResponse	Mixed
146.555	8.0	4.012	214.155	10.0	1	-0.9	-6.0	16.3812	955.0	0.52	Outcome1	-0.9	-12.22	4.0	Yes	n/a	11.320498301245802	n/a	n/a	n/a	ISIRate	Mixed
154.579	3.0	0.024	222.179	11.0	1	1.9	-4.0	16.6187	955.0	1.2	Outcome1	1.9	-9.53	0.0	No	2.0	11.432616081540198	0.791	155.37	n/a	GetAnswer	Mixed
155.381	4.0	0.011	222.981	11.0	1	1.9	-4.0	16.6187	955.0	1.2	Outcome1	1.9	-9.53	0.0	No	n/a	11.432616081540198	n/a	n/a	n/a	ShowChoice	Mixed
159.393	1.0	0.012	226.993	11.0	1	1.9	-4.0	16.6187	955.0	1.2	Outcome1	1.9	-9.53	0.0	No	n/a	11.432616081540198	n/a	n/a	n/a	ShowResult	Mixed
160.413	3.324	0.02	228.013	11.0	1	1.9	-4.0	16.6187	955.0	1.2	Outcome1	1.9	-9.53	0.0	No	n/a	11.432616081540198	n/a	n/a	n/a	ISITrial	Mixed
163.756	3.0	0.019	231.356	12.0	1	13.9	1.02	18.3562	955.0	3.6	Outcome2	2.04	13.9	2.61875	Yes	2.0	11.861834654586598	0.999	164.755	n/a	GetAnswer	Loss
164.776	4.0	0.021	232.376	12.0	1	13.9	1.02	18.3562	955.0	3.6	Outcome2	2.04	13.9	2.61875	Yes	n/a	11.861834654586598	n/a	n/a	n/a	ShowChoice	Loss
168.788	1.0	0.012	236.388	12.0	1	13.9	1.02	18.3562	955.0	3.6	Outcome2	2.04	13.9	2.61875	Yes	n/a	11.861834654586598	n/a	n/a	n/a	ShowResult	Loss
169.808	6.642	0.02	237.408	12.0	1	13.9	1.02	18.3562	955.0	3.6	Outcome2	2.04	13.9	2.61875	Yes	n/a	11.861834654586598	n/a	n/a	n/a	ISITrial	Loss
176.461	2.619	0.011	244.061	12.0	1	13.9	1.02	18.3562	955.0	3.6	Outcome2	2.04	13.9	2.61875	Yes	n/a	11.861834654586598	n/a	n/a	n/a	TrialHappPreview	Loss
179.102	4.012	0.022	246.702	12.0	1	13.9	1.02	18.3562	955.0	3.6	Outcome2	2.04	13.9	2.61875	Yes	n/a	11.861834654586598	n/a	n/a	592.0	TrialHappiness	Loss
179.103	1.055	n/a	247.013	12.0	1	13.9	1.02	18.3562	955.0	3.6	Outcome2	2.04	13.9	2.61875	Yes	n/a	11.861834654586598	n/a	n/a	592.0	TrialHappinessSliderResponse	Loss
183.114	2.475	4.012	250.714	12.0	1	13.9	1.02	18.3562	955.0	3.6	Outcome2	2.04	13.9	2.61875	Yes	n/a	11.861834654586598	n/a	n/a	n/a	ISIRate	Loss
185.605	3.0	0.016	253.205	13.0	1	10.3	-0.86	19.6437	955.0	5.0	Outcome1	10.3	-1.72	0.0	No	2.0	12.0192525481314	0.797	186.402	n/a	GetAnswer	Gain
186.424	4.0	0.021	254.024	13.0	1	10.3	-0.86	19.6437	955.0	5.0	Outcome1	10.3	-1.72	0.0	No	n/a	12.0192525481314	n/a	n/a	n/a	ShowChoice	Gain
190.436	1.0	0.012	258.036	13.0	1	10.3	-0.86	19.6437	955.0	5.0	Outcome1	10.3	-1.72	0.0	No	n/a	12.0192525481314	n/a	n/a	n/a	ShowResult	Gain
191.456	3.48	0.02	259.056	13.0	1	10.3	-0.86	19.6437	955.0	5.0	Outcome1	10.3	-1.72	0.0	No	n/a	12.0192525481314	n/a	n/a	n/a	ISITrial	Gain
194.966	3.0	0.03	262.566	14.0	1	-2.0	-2.0	19.3937	955.0	1.5	Certain	-8.33	4.1	0.0	No	4.0	12.4303510758777	1.415	196.381	n/a	GetAnswer	Mixed
196.404	4.0	0.023	264.004	14.0	1	-2.0	-2.0	19.3937	955.0	1.5	Certain	-8.33	4.1	0.0	No	n/a	12.4303510758777	n/a	n/a	n/a	ShowChoice	Mixed
200.416	1.0	0.012	268.016	14.0	1	-2.0	-2.0	19.3937	955.0	1.5	Certain	-8.33	4.1	0.0	No	n/a	12.4303510758777	n/a	n/a	n/a	ShowResult	Mixed
201.436	5.019	0.02	269.036	14.0	1	-2.0	-2.0	19.3937	955.0	1.5	Certain	-8.33	4.1	0.0	No	n/a	12.4303510758777	n/a	n/a	n/a	ISITrial	Mixed
206.484	3.0	0.029	274.084	15.0	1	1.1	-5.0	19.5312	955.0	0.52	Outcome1	1.1	-11.74	3.3485	Yes	2.0	12.841449603624	0.687	207.171	n/a	GetAnswer	Mixed
207.186	4.0	0.015	274.786	15.0	1	1.1	-5.0	19.5312	955.0	0.52	Outcome1	1.1	-11.74	3.3485	Yes	n/a	12.841449603624	n/a	n/a	n/a	ShowChoice	Mixed
211.198	1.0	0.012	278.798	15.0	1	1.1	-5.0	19.5312	955.0	0.52	Outcome1	1.1	-11.74	3.3485	Yes	n/a	12.841449603624	n/a	n/a	n/a	ShowResult	Mixed
212.218	7.614	0.02	279.818	15.0	1	1.1	-5.0	19.5312	955.0	0.52	Outcome1	1.1	-11.74	3.3485	Yes	n/a	12.841449603624	n/a	n/a	n/a	ISITrial	Mixed
219.858	3.348	0.026	287.458	15.0	1	1.1	-5.0	19.5312	955.0	0.52	Outcome1	1.1	-11.74	3.3485	Yes	n/a	12.841449603624	n/a	n/a	n/a	TrialHappPreview	Mixed
223.234	4.012	0.028	290.834	15.0	1	1.1	-5.0	19.5312	955.0	0.52	Outcome1	1.1	-11.74	3.3485	Yes	n/a	12.841449603624	n/a	n/a	620.0	TrialHappiness	Mixed
223.235	1.071	n/a	291.543	15.0	1	1.1	-5.0	19.5312	955.0	0.52	Outcome1	1.1	-11.74	3.3485	Yes	n/a	12.841449603624	n/a	n/a	620.0	TrialHappinessSliderResponse	Mixed
227.246	5.394	4.012	294.846	15.0	1	1.1	-5.0	19.5312	955.0	0.52	Outcome1	1.1	-11.74	3.3485	Yes	n/a	12.841449603624	n/a	n/a	n/a	ISIRate	Mixed
232.662	3.0	0.022	300.262	16.0	1	7.9	1.0	20.5187	955.0	3.6	Outcome1	7.9	-4.88	0.0	No	2.0	12.7768969422424	1.339	234.001	n/a	GetAnswer	Gain
234.017	4.0	0.016	301.617	16.0	1	7.9	1.0	20.5187	955.0	3.6	Outcome1	7.9	-4.88	0.0	No	n/a	12.7768969422424	n/a	n/a	n/a	ShowChoice	Gain
238.029	1.0	0.012	305.629	16.0	1	7.9	1.0	20.5187	955.0	3.6	Outcome1	7.9	-4.88	0.0	No	n/a	12.7768969422424	n/a	n/a	n/a	ShowResult	Gain
239.048	3.008	0.019	306.648	16.0	1	7.9	1.0	20.5187	955.0	3.6	Outcome1	7.9	-4.88	0.0	No	n/a	12.7768969422424	n/a	n/a	n/a	ISITrial	Gain
242.074	3.0	0.018	309.674	17.0	1	-1.88	-1.0	20.2837	955.0	1.5	Outcome1	-1.88	0.1	3.0415	Yes	2.0	-1.98159682899207	1.111	243.185	n/a	GetAnswer	Mixed
243.211	4.0	0.026	310.811	17.0	1	-1.88	-1.0	20.2837	955.0	1.5	Outcome1	-1.88	0.1	3.0415	Yes	n/a	-1.98159682899207	n/a	n/a	n/a	ShowChoice	Mixed
247.223	1.0	0.012	314.823	17.0	1	-1.88	-1.0	20.2837	955.0	1.5	Outcome1	-1.88	0.1	3.0415	Yes	n/a	-1.98159682899207	n/a	n/a	n/a	ShowResult	Mixed
248.242	3.566	0.019	315.842	17.0	1	-1.88	-1.0	20.2837	955.0	1.5	Outcome1	-1.88	0.1	3.0415	Yes	n/a	-1.98159682899207	n/a	n/a	n/a	ISITrial	Mixed
251.82	3.042	0.012	319.42	17.0	1	-1.88	-1.0	20.2837	955.0	1.5	Outcome1	-1.88	0.1	3.0415	Yes	n/a	-1.98159682899207	n/a	n/a	n/a	TrialHappPreview	Mixed
254.879	4.012	0.017	322.479	17.0	1	-1.88	-1.0	20.2837	955.0	1.5	Outcome1	-1.88	0.1	3.0415	Yes	n/a	-1.98159682899207	n/a	n/a	572.0	TrialHappiness	Mixed
254.88	0.479	n/a	322.852	17.0	1	-1.88	-1.0	20.2837	955.0	1.5	Outcome1	-1.88	0.1	3.0415	Yes	n/a	-1.98159682899207	n/a	n/a	572.0	TrialHappinessSliderResponse	Mixed
258.891	4.166	4.012	326.491	17.0	1	-1.88	-1.0	20.2837	955.0	1.5	Outcome1	-1.88	0.1	3.0415	Yes	n/a	-1.98159682899207	n/a	n/a	n/a	ISIRate	Mixed
263.087	3.0	0.03	330.687	18.0	1	-7.0	-7.0	19.4087	955.0	1.0	Certain	-14.65	-0.3	0.0	No	4.0	14.3510758776897	1.428	264.515	n/a	GetAnswer	Mixed
264.541	4.0	0.026	332.141	18.0	1	-7.0	-7.0	19.4087	955.0	1.0	Certain	-14.65	-0.3	0.0	No	n/a	14.3510758776897	n/a	n/a	n/a	ShowChoice	Mixed
268.553	1.0	0.012	336.153	18.0	1	-7.0	-7.0	19.4087	955.0	1.0	Certain	-14.65	-0.3	0.0	No	n/a	14.3510758776897	n/a	n/a	n/a	ShowResult	Mixed
269.573	6.787	0.02	337.173	18.0	1	-7.0	-7.0	19.4087	955.0	1.0	Certain	-14.65	-0.3	0.0	No	n/a	14.3510758776897	n/a	n/a	n/a	ISITrial	Mixed
276.393	3.0	0.033	343.993	19.0	1	7.5	0.0	20.3462	955.0	2.8	Outcome1	7.5	-7.28	0.0	No	2.0	14.7848244620612	1.316	277.709	n/a	GetAnswer	Gain
277.731	4.0	0.022	345.331	19.0	1	7.5	0.0	20.3462	955.0	2.8	Outcome1	7.5	-7.28	0.0	No	n/a	14.7848244620612	n/a	n/a	n/a	ShowChoice	Gain
281.743	1.0	0.012	349.343	19.0	1	7.5	0.0	20.3462	955.0	2.8	Outcome1	7.5	-7.28	0.0	No	n/a	14.7848244620612	n/a	n/a	n/a	ShowResult	Gain
282.762	2.0	0.019	350.362	19.0	1	7.5	0.0	20.3462	955.0	2.8	Outcome1	7.5	-7.28	0.0	No	n/a	14.7848244620612	n/a	n/a	n/a	ISITrial	Gain
284.785	3.0	0.023	352.385	20.0	1	2.7	-5.0	20.6837	955.0	0.3	Outcome2	-12.52	2.7	2.92125	Yes	2.0	15.2185730464326	1.569	286.354	n/a	GetAnswer	Mixed
286.373	4.0	0.019	353.973	20.0	1	2.7	-5.0	20.6837	955.0	0.3	Outcome2	-12.52	2.7	2.92125	Yes	n/a	15.2185730464326	n/a	n/a	n/a	ShowChoice	Mixed
290.385	1.0	0.012	357.985	20.0	1	2.7	-5.0	20.6837	955.0	0.3	Outcome2	-12.52	2.7	2.92125	Yes	n/a	15.2185730464326	n/a	n/a	n/a	ShowResult	Mixed
291.405	8.0	0.02	359.005	20.0	1	2.7	-5.0	20.6837	955.0	0.3	Outcome2	-12.52	2.7	2.92125	Yes	n/a	15.2185730464326	n/a	n/a	n/a	ISITrial	Mixed
299.429	2.921	0.024	367.029	20.0	1	2.7	-5.0	20.6837	955.0	0.3	Outcome2	-12.52	2.7	2.92125	Yes	n/a	15.2185730464326	n/a	n/a	n/a	TrialHappPreview	Mixed
302.371	4.012	0.021	369.971	20.0	1	2.7	-5.0	20.6837	955.0	0.3	Outcome2	-12.52	2.7	2.92125	Yes	n/a	15.2185730464326	n/a	n/a	616.0	TrialHappiness	Mixed
302.372	1.842	n/a	370.381	20.0	1	2.7	-5.0	20.6837	955.0	0.3	Outcome2	-12.52	2.7	2.92125	Yes	n/a	15.2185730464326	n/a	n/a	616.0	TrialHappinessSliderResponse	Mixed
306.383	3.685	4.012	373.983	20.0	1	2.7	-5.0	20.6837	955.0	0.3	Outcome2	-12.52	2.7	2.92125	Yes	n/a	15.2185730464326	n/a	n/a	n/a	ISIRate	Mixed
310.094	3.0	0.026	377.694	21.0	1	6.1	-1.0	21.4462	955.0	4.2	Outcome2	-8.8	6.1	0.0	No	2.0	14.904869762174402	1.199	311.293	n/a	GetAnswer	Gain
311.314	4.0	0.021	378.914	21.0	1	6.1	-1.0	21.4462	955.0	4.2	Outcome2	-8.8	6.1	0.0	No	n/a	14.904869762174402	n/a	n/a	n/a	ShowChoice	Gain
315.326	1.0	0.012	382.926	21.0	1	6.1	-1.0	21.4462	955.0	4.2	Outcome2	-8.8	6.1	0.0	No	n/a	14.904869762174402	n/a	n/a	n/a	ShowResult	Gain
316.346	3.555	0.02	383.946	21.0	1	6.1	-1.0	21.4462	955.0	4.2	Outcome2	-8.8	6.1	0.0	No	n/a	14.904869762174402	n/a	n/a	n/a	ISITrial	Gain
319.923	3.0	0.022	387.523	22.0	1	10.7	-2.3	22.7837	955.0	1.82	Outcome2	-4.59	10.7	3.2195	Yes	2.0	15.2887882219706	2.19	322.113	n/a	GetAnswer	Loss
322.13	4.0	0.017	389.73	22.0	1	10.7	-2.3	22.7837	955.0	1.82	Outcome2	-4.59	10.7	3.2195	Yes	n/a	15.2887882219706	n/a	n/a	n/a	ShowChoice	Loss
326.142	1.0	0.012	393.742	22.0	1	10.7	-2.3	22.7837	955.0	1.82	Outcome2	-4.59	10.7	3.2195	Yes	n/a	15.2887882219706	n/a	n/a	n/a	ShowResult	Loss
327.162	6.793	0.02	394.762	22.0	1	10.7	-2.3	22.7837	955.0	1.82	Outcome2	-4.59	10.7	3.2195	Yes	n/a	15.2887882219706	n/a	n/a	n/a	ISITrial	Loss
333.965	3.22	0.01	401.565	22.0	1	10.7	-2.3	22.7837	955.0	1.82	Outcome2	-4.59	10.7	3.2195	Yes	n/a	15.2887882219706	n/a	n/a	n/a	TrialHappPreview	Loss
337.208	4.012	0.023	404.808	22.0	1	10.7	-2.3	22.7837	955.0	1.82	Outcome2	-4.59	10.7	3.2195	Yes	n/a	15.2887882219706	n/a	n/a	636.0	TrialHappiness	Loss
337.209	1.896	n/a	405.189	22.0	1	10.7	-2.3	22.7837	955.0	1.82	Outcome2	-4.59	10.7	3.2195	Yes	n/a	15.2887882219706	n/a	n/a	636.0	TrialHappinessSliderResponse	Loss
341.22	4.878	4.012	408.82	22.0	1	10.7	-2.3	22.7837	955.0	1.82	Outcome2	-4.59	10.7	3.2195	Yes	n/a	15.2887882219706	n/a	n/a	n/a	ISIRate	Loss
346.118	3.0	0.02	413.718	23.0	1	0.3	-7.0	22.8212	955.0	2.0	Outcome2	-15.03	0.3	0.0	No	2.0	15.3329558323896	2.555	348.673	n/a	GetAnswer	Mixed
348.693	4.0	0.02	416.293	23.0	1	0.3	-7.0	22.8212	955.0	2.0	Outcome2	-15.03	0.3	0.0	No	n/a	15.3329558323896	n/a	n/a	n/a	ShowChoice	Mixed
352.705	1.0	0.012	420.305	23.0	1	0.3	-7.0	22.8212	955.0	2.0	Outcome2	-15.03	0.3	0.0	No	n/a	15.3329558323896	n/a	n/a	n/a	ShowResult	Mixed
353.724	8.0	0.019	421.324	23.0	1	0.3	-7.0	22.8212	955.0	2.0	Outcome2	-15.03	0.3	0.0	No	n/a	15.3329558323896	n/a	n/a	n/a	ISITrial	Mixed
361.748	3.0	0.024	429.348	24.0	1	9.9	2.0	24.0587	955.0	3.6	Outcome1	9.9	-5.79	3.255	Yes	2.0	15.6942242355606	1.053	362.801	n/a	GetAnswer	Gain
362.818	4.0	0.017	430.418	24.0	1	9.9	2.0	24.0587	955.0	3.6	Outcome1	9.9	-5.79	3.255	Yes	n/a	15.6942242355606	n/a	n/a	n/a	ShowChoice	Gain
366.83	1.0	0.012	434.43	24.0	1	9.9	2.0	24.0587	955.0	3.6	Outcome1	9.9	-5.79	3.255	Yes	n/a	15.6942242355606	n/a	n/a	n/a	ShowResult	Gain
367.85	2.0	0.02	435.45	24.0	1	9.9	2.0	24.0587	955.0	3.6	Outcome1	9.9	-5.79	3.255	Yes	n/a	15.6942242355606	n/a	n/a	n/a	ISITrial	Gain
369.873	3.255	0.023	437.473	24.0	1	9.9	2.0	24.0587	955.0	3.6	Outcome1	9.9	-5.79	3.255	Yes	n/a	15.6942242355606	n/a	n/a	n/a	TrialHappPreview	Gain
373.149	4.029	0.021	440.749	24.0	1	9.9	2.0	24.0587	955.0	3.6	Outcome1	9.9	-5.79	3.255	Yes	n/a	15.6942242355606	n/a	n/a	660.0	TrialHappiness	Gain
373.15	1.81	n/a	441.094	24.0	1	9.9	2.0	24.0587	955.0	3.6	Outcome1	9.9	-5.79	3.255	Yes	n/a	15.6942242355606	n/a	n/a	660.0	TrialHappinessSliderResponse	Gain
377.178	5.02	4.029	444.778	24.0	1	9.9	2.0	24.0587	955.0	3.6	Outcome1	9.9	-5.79	3.255	Yes	n/a	15.6942242355606	n/a	n/a	n/a	ISIRate	Gain
382.226	3.0	0.028	449.826	25.0	1	-1.0	-1.0	23.9337	955.0	0.82	Certain	-0.5	-2.58	0.0	No	4.0	-2.08352208380521	2.642	384.868	n/a	GetAnswer	Mixed
384.884	4.0	0.016	452.484	25.0	1	-1.0	-1.0	23.9337	955.0	0.82	Certain	-0.5	-2.58	0.0	No	n/a	-2.08352208380521	n/a	n/a	n/a	ShowChoice	Mixed
388.896	1.0	0.012	456.496	25.0	1	-1.0	-1.0	23.9337	955.0	0.82	Certain	-0.5	-2.58	0.0	No	n/a	-2.08352208380521	n/a	n/a	n/a	ShowResult	Mixed
389.916	3.749	0.02	457.516	25.0	1	-1.0	-1.0	23.9337	955.0	0.82	Certain	-0.5	-2.58	0.0	No	n/a	-2.08352208380521	n/a	n/a	n/a	ISITrial	Mixed
393.694	3.0	0.029	461.294	26.0	1	3.19	1.6	24.3325	955.0	2.48	Outcome1	3.19	5.3	0.0	No	2.0	-2.1113627784069497	1.026	394.72	n/a	GetAnswer	Gain
394.747	4.0	0.027	462.347	26.0	1	3.19	1.6	24.3325	955.0	2.48	Outcome1	3.19	5.3	0.0	No	n/a	-2.1113627784069497	n/a	n/a	n/a	ShowChoice	Gain
398.759	1.0	0.012	466.359	26.0	1	3.19	1.6	24.3325	955.0	2.48	Outcome1	3.19	5.3	0.0	No	n/a	-2.1113627784069497	n/a	n/a	n/a	ShowResult	Gain
399.779	7.834	0.02	467.379	26.0	1	3.19	1.6	24.3325	955.0	2.48	Outcome1	3.19	5.3	0.0	No	n/a	-2.1113627784069497	n/a	n/a	n/a	ISITrial	Gain
407.636	3.0	0.023	475.236	27.0	1	13.5	-1.41	26.02	955.0	2.8	Outcome1	13.5	-2.82	2.54975	Yes	2.0	16.3159682899207	1.355	408.991	n/a	GetAnswer	Loss
409.006	4.0	0.015	476.606	27.0	1	13.5	-1.41	26.02	955.0	2.8	Outcome1	13.5	-2.82	2.54975	Yes	n/a	16.3159682899207	n/a	n/a	n/a	ShowChoice	Loss
413.035	1.0	0.029	480.635	27.0	1	13.5	-1.41	26.02	955.0	2.8	Outcome1	13.5	-2.82	2.54975	Yes	n/a	16.3159682899207	n/a	n/a	n/a	ShowResult	Loss
414.055	4.225	0.02	481.655	27.0	1	13.5	-1.41	26.02	955.0	2.8	Outcome1	13.5	-2.82	2.54975	Yes	n/a	16.3159682899207	n/a	n/a	n/a	ISITrial	Loss
418.301	2.55	0.021	485.901	27.0	1	13.5	-1.41	26.02	955.0	2.8	Outcome1	13.5	-2.82	2.54975	Yes	n/a	16.3159682899207	n/a	n/a	n/a	TrialHappPreview	Loss
420.875	4.029	0.024	488.475	27.0	1	13.5	-1.41	26.02	955.0	2.8	Outcome1	13.5	-2.82	2.54975	Yes	n/a	16.3159682899207	n/a	n/a	656.0	TrialHappiness	Loss
420.876	0.438	n/a	488.896	27.0	1	13.5	-1.41	26.02	955.0	2.8	Outcome1	13.5	-2.82	2.54975	Yes	n/a	16.3159682899207	n/a	n/a	656.0	TrialHappinessSliderResponse	Loss
424.904	2.199	4.029	492.504	27.0	1	13.5	-1.41	26.02	955.0	2.8	Outcome1	13.5	-2.82	2.54975	Yes	n/a	16.3159682899207	n/a	n/a	n/a	ISIRate	Loss
470.508	1.94	n/a	538.569	n/a	1	n/a	n/a	n/a	n/a	n/a	n/a	n/a	n/a	n/a	n/a	n/a	n/a	n/a	n/a	660.0	BlockStartHappinessSliderResponse	n/a
-52.842	-0.001	0.024	494.727	n/a	2	n/a	n/a	n/a	n/a	n/a	n/a	n/a	n/a	n/a	n/a	{SPACE}	n/a	39.35	-13.492	n/a	Rest	n/a
-13.474	4.0	0.018	534.095	n/a	2	n/a	n/a	n/a	n/a	n/a	n/a	n/a	n/a	n/a	n/a	n/a	n/a	n/a	n/a	n/a	BlockHappyPreview	n/a
-9.462	2.401	0.012	538.107	n/a	2	n/a	n/a	n/a	n/a	n/a	n/a	n/a	n/a	n/a	n/a	n/a	n/a	n/a	n/a	660.0	BlockStartHappiness	n/a
-2.341	-0.001	0.015	545.228	n/a	2	n/a	n/a	n/a	n/a	n/a	n/a	n/a	n/a	n/a	n/a	5.0	n/a	2.317	-0.024	n/a	ScanWait	n/a
0.0	10.0	0.024	547.569	n/a	2	n/a	n/a	n/a	n/a	n/a	n/a	n/a	n/a	n/a	n/a	n/a	n/a	n/a	n/a	n/a	GetReady	n/a
10.03	3.0	0.03	557.599	28.0	2	1.27	0.64	26.1788	70.0	2.48	Outcome2	11.3	1.27	0.0	No	2.0	-10.0340136054422	1.096	11.126	n/a	GetAnswer	Loss
11.15	4.0	0.024	558.719	28.0	2	1.27	0.64	26.1788	70.0	2.48	Outcome2	11.3	1.27	0.0	No	n/a	-10.0340136054422	n/a	n/a	n/a	ShowChoice	Loss
15.178	1.0	0.028	562.747	28.0	2	1.27	0.64	26.1788	70.0	2.48	Outcome2	11.3	1.27	0.0	No	n/a	-10.0340136054422	n/a	n/a	n/a	ShowResult	Loss
16.198	3.575	0.02	563.767	28.0	2	1.27	0.64	26.1788	70.0	2.48	Outcome2	11.3	1.27	0.0	No	n/a	-10.0340136054422	n/a	n/a	n/a	ISITrial	Loss
19.792	3.0	0.019	567.361	29.0	2	-6.8	-1.0	25.3288	70.0	1.2	Outcome1	-6.8	3.9	3.529	Yes	2.0	-10.702947845805	1.472	21.264	n/a	GetAnswer	Mixed
21.28	4.0	0.016	568.849	29.0	2	-6.8	-1.0	25.3288	70.0	1.2	Outcome1	-6.8	3.9	3.529	Yes	n/a	-10.702947845805	n/a	n/a	n/a	ShowChoice	Mixed
25.309	1.0	0.029	572.878	29.0	2	-6.8	-1.0	25.3288	70.0	1.2	Outcome1	-6.8	3.9	3.529	Yes	n/a	-10.702947845805	n/a	n/a	n/a	ShowResult	Mixed
26.328	3.955	0.019	573.897	29.0	2	-6.8	-1.0	25.3288	70.0	1.2	Outcome1	-6.8	3.9	3.529	Yes	n/a	-10.702947845805	n/a	n/a	n/a	ISITrial	Mixed
30.307	3.529	0.024	577.876	29.0	2	-6.8	-1.0	25.3288	70.0	1.2	Outcome1	-6.8	3.9	3.529	Yes	n/a	-10.702947845805	n/a	n/a	n/a	TrialHappPreview	Mixed
33.868	4.028	0.032	581.437	29.0	2	-6.8	-1.0	25.3288	70.0	1.2	Outcome1	-6.8	3.9	3.529	Yes	n/a	-10.702947845805	n/a	n/a	528.0	TrialHappiness	Mixed
33.868	0.183	n/a	583.467	29.0	2	-6.8	-1.0	25.3288	70.0	1.2	Outcome1	-6.8	3.9	3.529	Yes	n/a	-10.702947845805	n/a	n/a	528.0	TrialHappinessSliderResponse	Mixed
37.896	6.116	4.028	585.465	29.0	2	-6.8	-1.0	25.3288	70.0	1.2	Outcome1	-6.8	3.9	3.529	Yes	n/a	-10.702947845805	n/a	n/a	n/a	ISIRate	Mixed
44.031	3.0	0.019	591.6	30.0	2	-7.83	-3.0	24.35	70.0	0.66	Outcome1	-7.83	1.3	0.0	No	2.0	-9.126984126984132	1.89	45.921	n/a	GetAnswer	Mixed
45.937	4.0	0.016	593.506	30.0	2	-7.83	-3.0	24.35	70.0	0.66	Outcome1	-7.83	1.3	0.0	No	n/a	-9.126984126984132	n/a	n/a	n/a	ShowChoice	Mixed
49.966	1.0	0.029	597.535	30.0	2	-7.83	-3.0	24.35	70.0	0.66	Outcome1	-7.83	1.3	0.0	No	n/a	-9.126984126984132	n/a	n/a	n/a	ShowResult	Mixed
50.985	4.453	0.019	598.554	30.0	2	-7.83	-3.0	24.35	70.0	0.66	Outcome1	-7.83	1.3	0.0	No	n/a	-9.126984126984132	n/a	n/a	n/a	ISITrial	Mixed
55.465	3.0	0.027	603.034	31.0	2	-2.55	2.0	24.0312	70.0	2.22	Outcome2	7.1	-2.55	2.50325	Yes	2.0	-9.64625850340136	1.614	57.079	n/a	GetAnswer	Gain
57.104	4.0	0.025	604.673	31.0	2	-2.55	2.0	24.0312	70.0	2.22	Outcome2	7.1	-2.55	2.50325	Yes	n/a	-9.64625850340136	n/a	n/a	n/a	ShowChoice	Gain
61.116	1.0	0.012	608.685	31.0	2	-2.55	2.0	24.0312	70.0	2.22	Outcome2	7.1	-2.55	2.50325	Yes	n/a	-9.64625850340136	n/a	n/a	n/a	ShowResult	Gain
62.135	4.786	0.019	609.704	31.0	2	-2.55	2.0	24.0312	70.0	2.22	Outcome2	7.1	-2.55	2.50325	Yes	n/a	-9.64625850340136	n/a	n/a	n/a	ISITrial	Gain
66.95	2.503	0.029	614.519	31.0	2	-2.55	2.0	24.0312	70.0	2.22	Outcome2	7.1	-2.55	2.50325	Yes	n/a	-9.64625850340136	n/a	n/a	n/a	TrialHappPreview	Gain
69.474	4.012	0.021	617.043	31.0	2	-2.55	2.0	24.0312	70.0	2.22	Outcome2	7.1	-2.55	2.50325	Yes	n/a	-9.64625850340136	n/a	n/a	472.0	TrialHappiness	Gain
69.475	0.534	n/a	617.403	31.0	2	-2.55	2.0	24.0312	70.0	2.22	Outcome2	7.1	-2.55	2.50325	Yes	n/a	-9.64625850340136	n/a	n/a	472.0	TrialHappinessSliderResponse	Gain
73.486	2.013	4.012	621.055	31.0	2	-2.55	2.0	24.0312	70.0	2.22	Outcome2	7.1	-2.55	2.50325	Yes	n/a	-9.64625850340136	n/a	n/a	n/a	ISIRate	Gain
75.525	3.0	0.026	623.094	32.0	2	1.29	0.64	24.1924	70.0	1.68	Outcome1	1.29	10.5	0.0	No	2.0	-9.21315192743764	1.175	76.7	n/a	GetAnswer	Loss
76.712	4.0	0.012	624.281	32.0	2	1.29	0.64	24.1924	70.0	1.68	Outcome1	1.29	10.5	0.0	No	n/a	-9.21315192743764	n/a	n/a	n/a	ShowChoice	Loss
80.724	1.0	0.012	628.293	32.0	2	1.29	0.64	24.1924	70.0	1.68	Outcome1	1.29	10.5	0.0	No	n/a	-9.21315192743764	n/a	n/a	n/a	ShowResult	Loss
81.744	2.0	0.02	629.313	32.0	2	1.29	0.64	24.1924	70.0	1.68	Outcome1	1.29	10.5	0.0	No	n/a	-9.21315192743764	n/a	n/a	n/a	ISITrial	Loss
83.767	3.0	0.023	631.336	33.0	2	-0.37	-0.18	24.1462	70.0	2.48	Outcome1	-0.37	9.3	0.0	No	2.0	-9.66893424036281	1.547	85.314	n/a	GetAnswer	Gain
85.338	4.0	0.024	632.907	33.0	2	-0.37	-0.18	24.1462	70.0	2.48	Outcome1	-0.37	9.3	0.0	No	n/a	-9.66893424036281	n/a	n/a	n/a	ShowChoice	Gain
89.35	1.0	0.012	636.919	33.0	2	-0.37	-0.18	24.1462	70.0	2.48	Outcome1	-0.37	9.3	0.0	No	n/a	-9.66893424036281	n/a	n/a	n/a	ShowResult	Gain
90.37	5.099	0.02	637.939	33.0	2	-0.37	-0.18	24.1462	70.0	2.48	Outcome1	-0.37	9.3	0.0	No	n/a	-9.66893424036281	n/a	n/a	n/a	ISITrial	Gain
95.485	3.0	0.016	643.054	34.0	2	2.58	1.29	24.4687	70.0	1.82	Outcome2	12.7	2.58	3.2315	Yes	2.0	-10.124716553288	1.205	96.69	n/a	GetAnswer	Loss
96.705	4.0	0.015	644.274	34.0	2	2.58	1.29	24.4687	70.0	1.82	Outcome2	12.7	2.58	3.2315	Yes	n/a	-10.124716553288	n/a	n/a	n/a	ShowChoice	Loss
100.717	1.0	0.012	648.286	34.0	2	2.58	1.29	24.4687	70.0	1.82	Outcome2	12.7	2.58	3.2315	Yes	n/a	-10.124716553288	n/a	n/a	n/a	ShowResult	Loss
101.737	4.784	0.02	649.306	34.0	2	2.58	1.29	24.4687	70.0	1.82	Outcome2	12.7	2.58	3.2315	Yes	n/a	-10.124716553288	n/a	n/a	n/a	ISITrial	Loss
106.535	3.232	0.014	654.104	34.0	2	2.58	1.29	24.4687	70.0	1.82	Outcome2	12.7	2.58	3.2315	Yes	n/a	-10.124716553288	n/a	n/a	n/a	TrialHappPreview	Loss
109.795	4.012	0.028	657.364	34.0	2	2.58	1.29	24.4687	70.0	1.82	Outcome2	12.7	2.58	3.2315	Yes	n/a	-10.124716553288	n/a	n/a	512.0	TrialHappiness	Loss
109.795	0.0	n/a	657.364	34.0	2	2.58	1.29	24.4687	70.0	1.82	Outcome2	12.7	2.58	3.2315	Yes	n/a	-10.124716553288	n/a	n/a	512.0	TrialHappinessSliderResponse	Loss
113.807	4.926	4.012	661.376	34.0	2	2.58	1.29	24.4687	70.0	1.82	Outcome2	12.7	2.58	3.2315	Yes	n/a	-10.124716553288	n/a	n/a	n/a	ISIRate	Loss
118.755	3.0	0.022	666.324	35.0	2	0.0	0.0	24.4687	70.0	5.0	Certain	-4.96	6.3	0.0	No	4.0	-11.260770975056698	1.477	120.232	n/a	GetAnswer	Gain
120.242	4.0	0.01	667.811	35.0	2	0.0	0.0	24.4687	70.0	5.0	Certain	-4.96	6.3	0.0	No	n/a	-11.260770975056698	n/a	n/a	n/a	ShowChoice	Gain
124.254	1.0	0.012	671.823	35.0	2	0.0	0.0	24.4687	70.0	5.0	Certain	-4.96	6.3	0.0	No	n/a	-11.260770975056698	n/a	n/a	n/a	ShowResult	Gain
125.274	2.098	0.02	672.843	35.0	2	0.0	0.0	24.4687	70.0	5.0	Certain	-4.96	6.3	0.0	No	n/a	-11.260770975056698	n/a	n/a	n/a	ISITrial	Gain
127.397	3.0	0.025	674.966	36.0	2	-5.0	-5.0	23.8437	70.0	0.4	Certain	0.9	-10.86	3.33575	Yes	4.0	-11.7619047619048	2.214	129.611	n/a	GetAnswer	Mixed
129.637	4.0	0.026	677.206	36.0	2	-5.0	-5.0	23.8437	70.0	0.4	Certain	0.9	-10.86	3.33575	Yes	n/a	-11.7619047619048	n/a	n/a	n/a	ShowChoice	Mixed
133.649	1.0	0.012	681.218	36.0	2	-5.0	-5.0	23.8437	70.0	0.4	Certain	0.9	-10.86	3.33575	Yes	n/a	-11.7619047619048	n/a	n/a	n/a	ShowResult	Mixed
134.669	5.156	0.02	682.238	36.0	2	-5.0	-5.0	23.8437	70.0	0.4	Certain	0.9	-10.86	3.33575	Yes	n/a	-11.7619047619048	n/a	n/a	n/a	ISITrial	Mixed
139.851	3.336	0.026	687.42	36.0	2	-5.0	-5.0	23.8437	70.0	0.4	Certain	0.9	-10.86	3.33575	Yes	n/a	-11.7619047619048	n/a	n/a	n/a	TrialHappPreview	Mixed
143.211	4.012	0.024	690.78	36.0	2	-5.0	-5.0	23.8437	70.0	0.4	Certain	0.9	-10.86	3.33575	Yes	n/a	-11.7619047619048	n/a	n/a	512.0	TrialHappiness	Mixed
143.212	0.0	n/a	690.781	36.0	2	-5.0	-5.0	23.8437	70.0	0.4	Certain	0.9	-10.86	3.33575	Yes	n/a	-11.7619047619048	n/a	n/a	512.0	TrialHappinessSliderResponse	Mixed
147.223	5.343	4.012	694.792	36.0	2	-5.0	-5.0	23.8437	70.0	0.4	Certain	0.9	-10.86	3.33575	Yes	n/a	-11.7619047619048	n/a	n/a	n/a	ISIRate	Mixed
152.589	3.0	0.023	700.158	37.0	2	0.0	0.0	23.8437	70.0	3.6	Certain	5.9	-6.36	0.0	No	4.0	-12.2630385487528	1.421	154.01	n/a	GetAnswer	Gain
154.027	4.0	0.017	701.596	37.0	2	0.0	0.0	23.8437	70.0	3.6	Certain	5.9	-6.36	0.0	No	n/a	-12.2630385487528	n/a	n/a	n/a	ShowChoice	Gain
158.039	1.0	0.012	705.608	37.0	2	0.0	0.0	23.8437	70.0	3.6	Certain	5.9	-6.36	0.0	No	n/a	-12.2630385487528	n/a	n/a	n/a	ShowResult	Gain
159.058	3.598	0.019	706.627	37.0	2	0.0	0.0	23.8437	70.0	3.6	Certain	5.9	-6.36	0.0	No	n/a	-12.2630385487528	n/a	n/a	n/a	ISITrial	Gain
162.686	3.0	0.03	710.255	38.0	2	-8.06	-1.0	22.8362	70.0	1.82	Outcome1	-8.06	4.7	0.0	No	2.0	-12.7641723356009	1.619	164.305	n/a	GetAnswer	Gain
164.324	4.0	0.019	711.893	38.0	2	-8.06	-1.0	22.8362	70.0	1.82	Outcome1	-8.06	4.7	0.0	No	n/a	-12.7641723356009	n/a	n/a	n/a	ShowChoice	Gain
168.336	1.0	0.012	715.905	38.0	2	-8.06	-1.0	22.8362	70.0	1.82	Outcome1	-8.06	4.7	0.0	No	n/a	-12.7641723356009	n/a	n/a	n/a	ShowResult	Gain
169.356	4.787	0.02	716.925	38.0	2	-8.06	-1.0	22.8362	70.0	1.82	Outcome1	-8.06	4.7	0.0	No	n/a	-12.7641723356009	n/a	n/a	n/a	ISITrial	Gain
174.17	3.0	0.027	721.739	39.0	2	3.28	2.0	23.2462	70.0	2.22	Outcome2	1.01	3.28	2.86425	Yes	2.0	2.27475434618292	1.218	175.388	n/a	GetAnswer	Loss
175.407	4.0	0.019	722.976	39.0	2	3.28	2.0	23.2462	70.0	2.22	Outcome2	1.01	3.28	2.86425	Yes	n/a	2.27475434618292	n/a	n/a	n/a	ShowChoice	Loss
179.419	1.0	0.012	726.988	39.0	2	3.28	2.0	23.2462	70.0	2.22	Outcome2	1.01	3.28	2.86425	Yes	n/a	2.27475434618292	n/a	n/a	n/a	ShowResult	Loss
180.439	2.348	0.02	728.008	39.0	2	3.28	2.0	23.2462	70.0	2.22	Outcome2	1.01	3.28	2.86425	Yes	n/a	2.27475434618292	n/a	n/a	n/a	ISITrial	Loss
182.813	2.864	0.026	730.382	39.0	2	3.28	2.0	23.2462	70.0	2.22	Outcome2	1.01	3.28	2.86425	Yes	n/a	2.27475434618292	n/a	n/a	n/a	TrialHappPreview	Loss
185.705	4.012	0.028	733.274	39.0	2	3.28	2.0	23.2462	70.0	2.22	Outcome2	1.01	3.28	2.86425	Yes	n/a	2.27475434618292	n/a	n/a	512.0	TrialHappiness	Loss
185.705	0.0	n/a	733.274	39.0	2	3.28	2.0	23.2462	70.0	2.22	Outcome2	1.01	3.28	2.86425	Yes	n/a	2.27475434618292	n/a	n/a	512.0	TrialHappinessSliderResponse	Loss
189.717	3.457	4.012	737.286	39.0	2	3.28	2.0	23.2462	70.0	2.22	Outcome2	1.01	3.28	2.86425	Yes	n/a	2.27475434618292	n/a	n/a	n/a	ISIRate	Loss
193.194	3.0	0.02	740.763	40.0	2	-4.0	-4.0	22.7462	70.0	0.52	Certain	3.1	-10.67	0.0	No	4.0	-13.7664399092971	1.876	195.07	n/a	GetAnswer	Mixed
195.083	4.0	0.013	742.652	40.0	2	-4.0	-4.0	22.7462	70.0	0.52	Certain	3.1	-10.67	0.0	No	n/a	-13.7664399092971	n/a	n/a	n/a	ShowChoice	Mixed
199.095	1.0	0.012	746.664	40.0	2	-4.0	-4.0	22.7462	70.0	0.52	Certain	3.1	-10.67	0.0	No	n/a	-13.7664399092971	n/a	n/a	n/a	ShowResult	Mixed
200.115	3.158	0.02	747.684	40.0	2	-4.0	-4.0	22.7462	70.0	0.52	Certain	3.1	-10.67	0.0	No	n/a	-13.7664399092971	n/a	n/a	n/a	ISITrial	Mixed
203.291	3.0	0.018	750.86	41.0	2	-2.0	-2.0	22.4962	70.0	2.0	Certain	-9.37	4.9	4.0	Yes	4.0	-14.2675736961451	1.684	204.975	n/a	GetAnswer	Gain
204.996	4.0	0.021	752.565	41.0	2	-2.0	-2.0	22.4962	70.0	2.0	Certain	-9.37	4.9	4.0	Yes	n/a	-14.2675736961451	n/a	n/a	n/a	ShowChoice	Gain
209.008	1.0	0.012	756.577	41.0	2	-2.0	-2.0	22.4962	70.0	2.0	Certain	-9.37	4.9	4.0	Yes	n/a	-14.2675736961451	n/a	n/a	n/a	ShowResult	Gain
210.028	4.506	0.02	757.597	41.0	2	-2.0	-2.0	22.4962	70.0	2.0	Certain	-9.37	4.9	4.0	Yes	n/a	-14.2675736961451	n/a	n/a	n/a	ISITrial	Gain
214.558	4.0	0.024	762.127	41.0	2	-2.0	-2.0	22.4962	70.0	2.0	Certain	-9.37	4.9	4.0	Yes	n/a	-14.2675736961451	n/a	n/a	n/a	TrialHappPreview	Gain
218.586	4.012	0.028	766.155	41.0	2	-2.0	-2.0	22.4962	70.0	2.0	Certain	-9.37	4.9	4.0	Yes	n/a	-14.2675736961451	n/a	n/a	492.0	TrialHappiness	Gain
218.587	0.136	n/a	766.615	41.0	2	-2.0	-2.0	22.4962	70.0	2.0	Certain	-9.37	4.9	4.0	Yes	n/a	-14.2675736961451	n/a	n/a	492.0	TrialHappinessSliderResponse	Gain
222.598	8.0	4.012	770.167	41.0	2	-2.0	-2.0	22.4962	70.0	2.0	Certain	-9.37	4.9	4.0	Yes	n/a	-14.2675736961451	n/a	n/a	n/a	ISIRate	Gain
230.622	3.0	0.024	778.191	42.0	2	2.38	1.0	22.7937	70.0	2.8	Outcome1	2.38	0.06	0.0	No	2.0	2.3187830687830697	0.975	231.597	n/a	GetAnswer	Gain
231.609	4.0	0.012	779.178	42.0	2	2.38	1.0	22.7937	70.0	2.8	Outcome1	2.38	0.06	0.0	No	n/a	2.3187830687830697	n/a	n/a	n/a	ShowChoice	Gain
235.621	1.0	0.012	783.19	42.0	2	2.38	1.0	22.7937	70.0	2.8	Outcome1	2.38	0.06	0.0	No	n/a	2.3187830687830697	n/a	n/a	n/a	ShowResult	Gain
236.64	6.248	0.019	784.209	42.0	2	2.38	1.0	22.7937	70.0	2.8	Outcome1	2.38	0.06	0.0	No	n/a	2.3187830687830697	n/a	n/a	n/a	ISITrial	Gain
242.909	3.0	0.021	790.478	43.0	2	-9.0	-9.0	21.6687	70.0	0.3	Certain	-1.3	-16.21	2.77575	Yes	4.0	-14.907029478458	1.571	244.48	n/a	GetAnswer	Mixed
244.497	4.0	0.017	792.066	43.0	2	-9.0	-9.0	21.6687	70.0	0.3	Certain	-1.3	-16.21	2.77575	Yes	n/a	-14.907029478458	n/a	n/a	n/a	ShowChoice	Mixed
248.509	1.0	0.012	796.078	43.0	2	-9.0	-9.0	21.6687	70.0	0.3	Certain	-1.3	-16.21	2.77575	Yes	n/a	-14.907029478458	n/a	n/a	n/a	ShowResult	Mixed
249.529	4.596	0.02	797.098	43.0	2	-9.0	-9.0	21.6687	70.0	0.3	Certain	-1.3	-16.21	2.77575	Yes	n/a	-14.907029478458	n/a	n/a	n/a	ISITrial	Mixed
254.143	2.776	0.018	801.712	43.0	2	-9.0	-9.0	21.6687	70.0	0.3	Certain	-1.3	-16.21	2.77575	Yes	n/a	-14.907029478458	n/a	n/a	n/a	TrialHappPreview	Mixed
256.934	4.012	0.015	804.503	43.0	2	-9.0	-9.0	21.6687	70.0	0.3	Certain	-1.3	-16.21	2.77575	Yes	n/a	-14.907029478458	n/a	n/a	468.0	TrialHappiness	Mixed
256.935	0.464	n/a	804.906	43.0	2	-9.0	-9.0	21.6687	70.0	0.3	Certain	-1.3	-16.21	2.77575	Yes	n/a	-14.907029478458	n/a	n/a	468.0	TrialHappinessSliderResponse	Mixed
260.946	3.103	4.012	808.515	43.0	2	-9.0	-9.0	21.6687	70.0	0.3	Certain	-1.3	-16.21	2.77575	Yes	n/a	-14.907029478458	n/a	n/a	n/a	ISIRate	Mixed
264.072	3.0	0.023	811.641	44.0	2	1.92	1.0	21.9087	70.0	3.16	Outcome2	-0.38	1.92	0.0	No	2.0	2.30102040816327	1.159	265.231	n/a	GetAnswer	Gain
265.243	4.0	0.011	812.812	44.0	2	1.92	1.0	21.9087	70.0	3.16	Outcome2	-0.38	1.92	0.0	No	n/a	2.30102040816327	n/a	n/a	n/a	ShowChoice	Gain
269.255	1.0	0.012	816.824	44.0	2	1.92	1.0	21.9087	70.0	3.16	Outcome2	-0.38	1.92	0.0	No	n/a	2.30102040816327	n/a	n/a	n/a	ShowResult	Gain
270.274	2.42	0.019	817.843	44.0	2	1.92	1.0	21.9087	70.0	3.16	Outcome2	-0.38	1.92	0.0	No	n/a	2.30102040816327	n/a	n/a	n/a	ISITrial	Gain
272.715	3.0	0.021	820.284	45.0	2	-10.33	-2.0	20.6175	70.0	2.22	Outcome2	5.1	-10.33	0.0	No	2.0	-15.4285714285714	1.273	273.988	n/a	GetAnswer	Gain
274.002	4.0	0.014	821.571	45.0	2	-10.33	-2.0	20.6175	70.0	2.22	Outcome2	5.1	-10.33	0.0	No	n/a	-15.4285714285714	n/a	n/a	n/a	ShowChoice	Gain
278.014	1.0	0.012	825.583	45.0	2	-10.33	-2.0	20.6175	70.0	2.22	Outcome2	5.1	-10.33	0.0	No	n/a	-15.4285714285714	n/a	n/a	n/a	ShowResult	Gain
279.034	3.144	0.02	826.603	45.0	2	-10.33	-2.0	20.6175	70.0	2.22	Outcome2	5.1	-10.33	0.0	No	n/a	-15.4285714285714	n/a	n/a	n/a	ISITrial	Gain
282.193	3.0	0.015	829.762	46.0	2	-3.98	-1.99	20.12	70.0	3.6	Outcome2	11.9	-3.98	3.84125	Yes	2.0	-15.879818594104302	1.328	283.521	n/a	GetAnswer	Loss
283.547	4.0	0.026	831.116	46.0	2	-3.98	-1.99	20.12	70.0	3.6	Outcome2	11.9	-3.98	3.84125	Yes	n/a	-15.879818594104302	n/a	n/a	n/a	ShowChoice	Loss
287.559	1.0	0.012	835.128	46.0	2	-3.98	-1.99	20.12	70.0	3.6	Outcome2	11.9	-3.98	3.84125	Yes	n/a	-15.879818594104302	n/a	n/a	n/a	ShowResult	Loss
288.579	2.246	0.02	836.148	46.0	2	-3.98	-1.99	20.12	70.0	3.6	Outcome2	11.9	-3.98	3.84125	Yes	n/a	-15.879818594104302	n/a	n/a	n/a	ISITrial	Loss
290.836	3.841	0.011	838.405	46.0	2	-3.98	-1.99	20.12	70.0	3.6	Outcome2	11.9	-3.98	3.84125	Yes	n/a	-15.879818594104302	n/a	n/a	n/a	TrialHappPreview	Loss
294.697	4.012	0.02	842.266	46.0	2	-3.98	-1.99	20.12	70.0	3.6	Outcome2	11.9	-3.98	3.84125	Yes	n/a	-15.879818594104302	n/a	n/a	416.0	TrialHappiness	Loss
294.698	0.861	n/a	842.684	46.0	2	-3.98	-1.99	20.12	70.0	3.6	Outcome2	11.9	-3.98	3.84125	Yes	n/a	-15.879818594104302	n/a	n/a	416.0	TrialHappinessSliderResponse	Loss
298.709	7.365	4.012	846.278	46.0	2	-3.98	-1.99	20.12	70.0	3.6	Outcome2	11.9	-3.98	3.84125	Yes	n/a	-15.879818594104302	n/a	n/a	n/a	ISIRate	Loss
306.098	3.0	0.024	853.667	47.0	2	-8.75	-1.0	19.0262	70.0	1.82	Outcome1	-8.75	6.7	0.0	No	2.0	-15.4467120181406	1.336	307.434	n/a	GetAnswer	Gain
307.452	4.0	0.018	855.021	47.0	2	-8.75	-1.0	19.0262	70.0	1.82	Outcome1	-8.75	6.7	0.0	No	n/a	-15.4467120181406	n/a	n/a	n/a	ShowChoice	Gain
311.464	1.0	0.012	859.033	47.0	2	-8.75	-1.0	19.0262	70.0	1.82	Outcome1	-8.75	6.7	0.0	No	n/a	-15.4467120181406	n/a	n/a	n/a	ShowResult	Gain
312.484	2.0	0.02	860.053	47.0	2	-8.75	-1.0	19.0262	70.0	1.82	Outcome1	-8.75	6.7	0.0	No	n/a	-15.4467120181406	n/a	n/a	n/a	ISITrial	Gain
314.507	3.0	0.023	862.076	48.0	2	0.0	0.0	19.0262	70.0	2.48	Certain	7.3	-8.54	2.83175	Yes	4.0	-15.8390022675737	1.531	316.038	n/a	GetAnswer	Gain
316.061	4.0	0.023	863.63	48.0	2	0.0	0.0	19.0262	70.0	2.48	Certain	7.3	-8.54	2.83175	Yes	n/a	-15.8390022675737	n/a	n/a	n/a	ShowChoice	Gain
320.073	1.0	0.012	867.642	48.0	2	0.0	0.0	19.0262	70.0	2.48	Certain	7.3	-8.54	2.83175	Yes	n/a	-15.8390022675737	n/a	n/a	n/a	ShowResult	Gain
321.093	3.692	0.02	868.662	48.0	2	0.0	0.0	19.0262	70.0	2.48	Certain	7.3	-8.54	2.83175	Yes	n/a	-15.8390022675737	n/a	n/a	n/a	ISITrial	Gain
324.804	2.832	0.019	872.373	48.0	2	0.0	0.0	19.0262	70.0	2.48	Certain	7.3	-8.54	2.83175	Yes	n/a	-15.8390022675737	n/a	n/a	n/a	TrialHappPreview	Gain
327.663	4.012	0.027	875.232	48.0	2	0.0	0.0	19.0262	70.0	2.48	Certain	7.3	-8.54	2.83175	Yes	n/a	-15.8390022675737	n/a	n/a	424.0	TrialHappiness	Gain
327.663	1.197	n/a	875.947	48.0	2	0.0	0.0	19.0262	70.0	2.48	Certain	7.3	-8.54	2.83175	Yes	n/a	-15.8390022675737	n/a	n/a	424.0	TrialHappinessSliderResponse	Gain
331.675	3.327	4.012	879.244	48.0	2	0.0	0.0	19.0262	70.0	2.48	Certain	7.3	-8.54	2.83175	Yes	n/a	-15.8390022675737	n/a	n/a	n/a	ISIRate	Gain
335.018	3.0	0.016	882.587	49.0	2	2.0	2.0	19.2762	70.0	4.2	Certain	-6.27	10.1	0.0	No	4.0	-16.367346938775498	2.154	337.172	n/a	GetAnswer	Gain
337.191	4.0	0.019	884.76	49.0	2	2.0	2.0	19.2762	70.0	4.2	Certain	-6.27	10.1	0.0	No	n/a	-16.367346938775498	n/a	n/a	n/a	ShowChoice	Gain
341.203	1.0	0.012	888.772	49.0	2	2.0	2.0	19.2762	70.0	4.2	Certain	-6.27	10.1	0.0	No	n/a	-16.367346938775498	n/a	n/a	n/a	ShowResult	Gain
342.223	8.0	0.02	889.792	49.0	2	2.0	2.0	19.2762	70.0	4.2	Certain	-6.27	10.1	0.0	No	n/a	-16.367346938775498	n/a	n/a	n/a	ISITrial	Gain
350.247	3.0	0.024	897.816	50.0	2	-1.0	-1.0	19.1512	70.0	2.0	Certain	-9.87	6.9	3.54725	Yes	4.0	-16.7687074829932	1.535	351.782	n/a	GetAnswer	Gain
351.801	4.0	0.019	899.37	50.0	2	-1.0	-1.0	19.1512	70.0	2.0	Certain	-9.87	6.9	3.54725	Yes	n/a	-16.7687074829932	n/a	n/a	n/a	ShowChoice	Gain
355.813	1.0	0.012	903.382	50.0	2	-1.0	-1.0	19.1512	70.0	2.0	Certain	-9.87	6.9	3.54725	Yes	n/a	-16.7687074829932	n/a	n/a	n/a	ShowResult	Gain
356.833	7.537	0.02	904.402	50.0	2	-1.0	-1.0	19.1512	70.0	2.0	Certain	-9.87	6.9	3.54725	Yes	n/a	-16.7687074829932	n/a	n/a	n/a	ISITrial	Gain
364.389	3.547	0.019	911.958	50.0	2	-1.0	-1.0	19.1512	70.0	2.0	Certain	-9.87	6.9	3.54725	Yes	n/a	-16.7687074829932	n/a	n/a	n/a	TrialHappPreview	Gain
367.95	4.012	0.014	915.519	50.0	2	-1.0	-1.0	19.1512	70.0	2.0	Certain	-9.87	6.9	3.54725	Yes	n/a	-16.7687074829932	n/a	n/a	432.0	TrialHappiness	Gain
367.95	1.047	n/a	915.883	50.0	2	-1.0	-1.0	19.1512	70.0	2.0	Certain	-9.87	6.9	3.54725	Yes	n/a	-16.7687074829932	n/a	n/a	432.0	TrialHappinessSliderResponse	Gain
371.962	6.189	4.012	919.531	50.0	2	-1.0	-1.0	19.1512	70.0	2.0	Certain	-9.87	6.9	3.54725	Yes	n/a	-16.7687074829932	n/a	n/a	n/a	ISIRate	Gain
378.18	3.0	0.029	925.749	51.0	2	-5.01	-2.5	18.5249	70.0	5.0	Outcome2	12.3	-5.01	0.0	No	2.0	-17.3061224489796	1.653	379.833	n/a	GetAnswer	Loss
379.852	4.0	0.019	927.421	51.0	2	-5.01	-2.5	18.5249	70.0	5.0	Outcome2	12.3	-5.01	0.0	No	n/a	-17.3061224489796	n/a	n/a	n/a	ShowChoice	Loss
383.864	1.0	0.012	931.433	51.0	2	-5.01	-2.5	18.5249	70.0	5.0	Outcome2	12.3	-5.01	0.0	No	n/a	-17.3061224489796	n/a	n/a	n/a	ShowResult	Loss
384.884	5.508	0.02	932.453	51.0	2	-5.01	-2.5	18.5249	70.0	5.0	Outcome2	12.3	-5.01	0.0	No	n/a	-17.3061224489796	n/a	n/a	n/a	ISITrial	Loss
390.417	3.0	0.025	937.986	52.0	2	-5.22	-2.61	17.8724	70.0	1.68	Outcome2	12.5	-5.22	0.0	No	2.0	-17.7165532879819	2.107	392.524	n/a	GetAnswer	Loss
392.54	4.0	0.016	940.109	52.0	2	-5.22	-2.61	17.8724	70.0	1.68	Outcome2	12.5	-5.22	0.0	No	n/a	-17.7165532879819	n/a	n/a	n/a	ShowChoice	Loss
396.552	1.0	0.012	944.121	52.0	2	-5.22	-2.61	17.8724	70.0	1.68	Outcome2	12.5	-5.22	0.0	No	n/a	-17.7165532879819	n/a	n/a	n/a	ShowResult	Loss
397.572	5.913	0.02	945.141	52.0	2	-5.22	-2.61	17.8724	70.0	1.68	Outcome2	12.5	-5.22	0.0	No	n/a	-17.7165532879819	n/a	n/a	n/a	ISITrial	Loss
403.506	3.0	0.021	951.075	53.0	2	-6.0	-6.0	17.1224	70.0	0.4	Certain	2.9	-15.23	2.99675	Yes	4.0	-18.1269841269841	2.116	405.622	n/a	GetAnswer	Mixed
405.646	4.0	0.024	953.215	53.0	2	-6.0	-6.0	17.1224	70.0	0.4	Certain	2.9	-15.23	2.99675	Yes	n/a	-18.1269841269841	n/a	n/a	n/a	ShowChoice	Mixed
409.658	1.0	0.012	957.227	53.0	2	-6.0	-6.0	17.1224	70.0	0.4	Certain	2.9	-15.23	2.99675	Yes	n/a	-18.1269841269841	n/a	n/a	n/a	ShowResult	Mixed
410.677	3.66	0.019	958.246	53.0	2	-6.0	-6.0	17.1224	70.0	0.4	Certain	2.9	-15.23	2.99675	Yes	n/a	-18.1269841269841	n/a	n/a	n/a	ISITrial	Mixed
414.355	2.997	0.018	961.924	53.0	2	-6.0	-6.0	17.1224	70.0	0.4	Certain	2.9	-15.23	2.99675	Yes	n/a	-18.1269841269841	n/a	n/a	n/a	TrialHappPreview	Mixed
417.381	4.012	0.029	964.95	53.0	2	-6.0	-6.0	17.1224	70.0	0.4	Certain	2.9	-15.23	2.99675	Yes	4{-4}	-18.1269841269841	0.724	418.105	384.0	TrialHappiness	Mixed
417.381	0.414	n/a	965.26	53.0	2	-6.0	-6.0	17.1224	70.0	0.4	Certain	2.9	-15.23	2.99675	Yes	n/a	-18.1269841269841	n/a	n/a	384.0	TrialHappinessSliderResponse	Mixed
421.393	3.987	4.012	968.962	53.0	2	-6.0	-6.0	17.1224	70.0	0.4	Certain	2.9	-15.23	2.99675	Yes	n/a	-18.1269841269841	n/a	n/a	n/a	ISIRate	Mixed
425.405	3.0	0.025	972.974	54.0	2	0.0	0.0	17.1224	70.0	2.0	Certain	0.57	-1.74	0.0	No	4.0	2.30744520030234	1.414	426.819	n/a	GetAnswer	Mixed
426.842	4.0	0.023	974.411	54.0	2	0.0	0.0	17.1224	70.0	2.0	Certain	0.57	-1.74	0.0	No	n/a	2.30744520030234	n/a	n/a	n/a	ShowChoice	Mixed
430.854	1.0	0.012	978.423	54.0	2	0.0	0.0	17.1224	70.0	2.0	Certain	0.57	-1.74	0.0	No	n/a	2.30744520030234	n/a	n/a	n/a	ShowResult	Mixed
431.874	8.0	0.02	979.443	54.0	2	0.0	0.0	17.1224	70.0	2.0	Certain	0.57	-1.74	0.0	No	n/a	2.30744520030234	n/a	n/a	n/a	ISITrial	Mixed
536.287	1.043	n/a	1084.225	n/a	2	n/a	n/a	n/a	n/a	n/a	n/a	n/a	n/a	n/a	n/a	n/a	n/a	n/a	n/a	416.0	BlockStartHappinessSliderResponse	n/a
-104.663	-0.001	0.024	987.467	n/a	3	n/a	n/a	n/a	n/a	n/a	n/a	n/a	n/a	n/a	n/a	{SPACE}	n/a	92.357	-12.306	n/a	Rest	n/a
-12.287	4.0	0.019	1079.843	n/a	3	n/a	n/a	n/a	n/a	n/a	n/a	n/a	n/a	n/a	n/a	n/a	n/a	n/a	n/a	n/a	BlockHappyPreview	n/a
-8.275	1.412	0.012	1083.855	n/a	3	n/a	n/a	n/a	n/a	n/a	n/a	n/a	n/a	n/a	n/a	n/a	n/a	n/a	n/a	416.0	BlockStartHappiness	n/a
-2.123	-0.001	0.023	1090.007	n/a	3	n/a	n/a	n/a	n/a	n/a	n/a	n/a	n/a	n/a	n/a	5.0	n/a	2.107	-0.016	n/a	ScanWait	n/a
0.0	10.0	0.016	1092.13	n/a	3	n/a	n/a	n/a	n/a	n/a	n/a	n/a	n/a	n/a	n/a	n/a	n/a	n/a	n/a	n/a	GetReady	n/a
10.013	3.0	0.013	1102.143	55.0	3	8.1	-0.53	18.1349	955.0	4.2	Outcome1	8.1	-1.06	2.53325	Yes	2.0	9.156285390713482	1.569	11.582	n/a	GetAnswer	Gain
11.601	4.0	0.019	1103.731	55.0	3	8.1	-0.53	18.1349	955.0	4.2	Outcome1	8.1	-1.06	2.53325	Yes	n/a	9.156285390713482	n/a	n/a	n/a	ShowChoice	Gain
15.613	1.0	0.012	1107.743	55.0	3	8.1	-0.53	18.1349	955.0	4.2	Outcome1	8.1	-1.06	2.53325	Yes	n/a	9.156285390713482	n/a	n/a	n/a	ShowResult	Gain
16.633	7.709	0.02	1108.763	55.0	3	8.1	-0.53	18.1349	955.0	4.2	Outcome1	8.1	-1.06	2.53325	Yes	n/a	9.156285390713482	n/a	n/a	n/a	ISITrial	Gain
24.356	2.533	0.014	1116.486	55.0	3	8.1	-0.53	18.1349	955.0	4.2	Outcome1	8.1	-1.06	2.53325	Yes	n/a	9.156285390713482	n/a	n/a	n/a	TrialHappPreview	Gain
26.914	4.012	0.025	1119.044	55.0	3	8.1	-0.53	18.1349	955.0	4.2	Outcome1	8.1	-1.06	2.53325	Yes	4{-4}	9.156285390713482	0.626	27.54	488.0	TrialHappiness	Gain
26.915	0.194	n/a	1119.477	55.0	3	8.1	-0.53	18.1349	955.0	4.2	Outcome1	8.1	-1.06	2.53325	Yes	n/a	9.156285390713482	n/a	n/a	488.0	TrialHappinessSliderResponse	Gain
30.926	2.133	4.012	1123.056	55.0	3	8.1	-0.53	18.1349	955.0	4.2	Outcome1	8.1	-1.06	2.53325	Yes	n/a	9.156285390713482	n/a	n/a	n/a	ISIRate	Gain
33.082	3.0	0.023	1125.212	56.0	3	3.3	-1.0	18.5474	955.0	0.66	Outcome2	-5.24	3.3	0.0	No	2.0	8.5436013590034	1.647	34.729	n/a	GetAnswer	Mixed
34.754	4.0	0.025	1126.884	56.0	3	3.3	-1.0	18.5474	955.0	0.66	Outcome2	-5.24	3.3	0.0	No	n/a	8.5436013590034	n/a	n/a	n/a	ShowChoice	Mixed
38.766	1.0	0.012	1130.896	56.0	3	3.3	-1.0	18.5474	955.0	0.66	Outcome2	-5.24	3.3	0.0	No	n/a	8.5436013590034	n/a	n/a	n/a	ShowResult	Mixed
39.786	4.697	0.02	1131.916	56.0	3	3.3	-1.0	18.5474	955.0	0.66	Outcome2	-5.24	3.3	0.0	No	n/a	8.5436013590034	n/a	n/a	n/a	ISITrial	Mixed
44.5	3.0	0.017	1136.63	57.0	3	-6.0	-6.0	17.7974	955.0	0.2	Certain	-1.5	-10.57	0.0	No	4.0	9.072480181200447	1.49	45.99	n/a	GetAnswer	Mixed
46.004	4.0	0.014	1138.134	57.0	3	-6.0	-6.0	17.7974	955.0	0.2	Certain	-1.5	-10.57	0.0	No	n/a	9.072480181200447	n/a	n/a	n/a	ShowChoice	Mixed
50.016	1.0	0.012	1142.146	57.0	3	-6.0	-6.0	17.7974	955.0	0.2	Certain	-1.5	-10.57	0.0	No	n/a	9.072480181200447	n/a	n/a	n/a	ShowResult	Mixed
51.036	4.291	0.02	1143.166	57.0	3	-6.0	-6.0	17.7974	955.0	0.2	Certain	-1.5	-10.57	0.0	No	n/a	9.072480181200447	n/a	n/a	n/a	ISITrial	Mixed
55.349	3.0	0.022	1147.479	58.0	3	1.5	-3.0	17.9849	955.0	0.82	Outcome1	1.5	-8.1	3.04575	Yes	2.0	9.60135900339751	1.636	56.985	n/a	GetAnswer	Mixed
57.004	4.0	0.019	1149.134	58.0	3	1.5	-3.0	17.9849	955.0	0.82	Outcome1	1.5	-8.1	3.04575	Yes	n/a	9.60135900339751	n/a	n/a	n/a	ShowChoice	Mixed
61.016	1.0	0.012	1153.146	58.0	3	1.5	-3.0	17.9849	955.0	0.82	Outcome1	1.5	-8.1	3.04575	Yes	n/a	9.60135900339751	n/a	n/a	n/a	ShowResult	Mixed
62.036	2.037	0.02	1154.166	58.0	3	1.5	-3.0	17.9849	955.0	0.82	Outcome1	1.5	-8.1	3.04575	Yes	n/a	9.60135900339751	n/a	n/a	n/a	ISITrial	Mixed
64.092	3.046	0.019	1156.222	58.0	3	1.5	-3.0	17.9849	955.0	0.82	Outcome1	1.5	-8.1	3.04575	Yes	n/a	9.60135900339751	n/a	n/a	n/a	TrialHappPreview	Mixed
67.168	4.012	0.03	1159.298	58.0	3	1.5	-3.0	17.9849	955.0	0.82	Outcome1	1.5	-8.1	3.04575	Yes	n/a	9.60135900339751	n/a	n/a	488.0	TrialHappiness	Mixed
67.168	0.191	n/a	1160.066	58.0	3	1.5	-3.0	17.9849	955.0	0.82	Outcome1	1.5	-8.1	3.04575	Yes	n/a	9.60135900339751	n/a	n/a	488.0	TrialHappinessSliderResponse	Mixed
71.18	4.183	4.012	1163.31	58.0	3	1.5	-3.0	17.9849	955.0	0.82	Outcome1	1.5	-8.1	3.04575	Yes	n/a	9.60135900339751	n/a	n/a	n/a	ISIRate	Mixed
75.392	3.0	0.029	1167.522	59.0	3	12.9	1.38	19.5974	955.0	2.0	Outcome2	2.77	12.9	0.0	No	2.0	10.1302378255946	0.953	76.345	n/a	GetAnswer	Loss
76.362	4.0	0.017	1168.492	59.0	3	12.9	1.38	19.5974	955.0	2.0	Outcome2	2.77	12.9	0.0	No	n/a	10.1302378255946	n/a	n/a	n/a	ShowChoice	Loss
80.39	1.0	0.028	1172.52	59.0	3	12.9	1.38	19.5974	955.0	2.0	Outcome2	2.77	12.9	0.0	No	n/a	10.1302378255946	n/a	n/a	n/a	ShowResult	Loss
81.41	5.064	0.02	1173.54	59.0	3	12.9	1.38	19.5974	955.0	2.0	Outcome2	2.77	12.9	0.0	No	n/a	10.1302378255946	n/a	n/a	n/a	ISITrial	Loss
86.492	3.0	0.018	1178.622	60.0	3	12.1	0.72	21.1099	955.0	4.2	Outcome1	12.1	1.44	3.5625	Yes	2.0	10.6591166477916	1.005	87.497	n/a	GetAnswer	Loss
87.512	4.0	0.015	1179.642	60.0	3	12.1	0.72	21.1099	955.0	4.2	Outcome1	12.1	1.44	3.5625	Yes	n/a	10.6591166477916	n/a	n/a	n/a	ShowChoice	Loss
91.524	1.0	0.012	1183.654	60.0	3	12.1	0.72	21.1099	955.0	4.2	Outcome1	12.1	1.44	3.5625	Yes	n/a	10.6591166477916	n/a	n/a	n/a	ShowResult	Loss
92.543	8.0	0.019	1184.673	60.0	3	12.1	0.72	21.1099	955.0	4.2	Outcome1	12.1	1.44	3.5625	Yes	n/a	10.6591166477916	n/a	n/a	n/a	ISITrial	Loss
100.567	3.562	0.024	1192.697	60.0	3	12.1	0.72	21.1099	955.0	4.2	Outcome1	12.1	1.44	3.5625	Yes	n/a	10.6591166477916	n/a	n/a	n/a	TrialHappPreview	Loss
104.145	4.012	0.016	1196.275	60.0	3	12.1	0.72	21.1099	955.0	4.2	Outcome1	12.1	1.44	3.5625	Yes	n/a	10.6591166477916	n/a	n/a	532.0	TrialHappiness	Loss
104.145	0.151	n/a	1197.202	60.0	3	12.1	0.72	21.1099	955.0	4.2	Outcome1	12.1	1.44	3.5625	Yes	n/a	10.6591166477916	n/a	n/a	532.0	TrialHappinessSliderResponse	Loss
108.157	6.25	4.012	1200.287	60.0	3	12.1	0.72	21.1099	955.0	4.2	Outcome1	12.1	1.44	3.5625	Yes	n/a	10.6591166477916	n/a	n/a	n/a	ISIRate	Loss
114.426	3.0	0.019	1206.556	61.0	3	6.51	3.26	21.9237	955.0	1.68	Outcome2	8.5	6.51	0.0	No	2.0	-1.98782559456399	1.053	115.479	n/a	GetAnswer	Gain
115.495	4.0	0.016	1207.625	61.0	3	6.51	3.26	21.9237	955.0	1.68	Outcome2	8.5	6.51	0.0	No	n/a	-1.98782559456399	n/a	n/a	n/a	ShowChoice	Gain
119.507	1.0	0.012	1211.637	61.0	3	6.51	3.26	21.9237	955.0	1.68	Outcome2	8.5	6.51	0.0	No	n/a	-1.98782559456399	n/a	n/a	n/a	ShowResult	Gain
120.527	4.586	0.02	1212.657	61.0	3	6.51	3.26	21.9237	955.0	1.68	Outcome2	8.5	6.51	0.0	No	n/a	-1.98782559456399	n/a	n/a	n/a	ISITrial	Gain
125.141	3.0	0.028	1217.271	62.0	3	1.7	-4.0	22.1362	955.0	1.0	Outcome1	1.7	-9.22	3.74875	Yes	2.0	10.919592298980698	1.622	126.763	n/a	GetAnswer	Mixed
126.779	4.0	0.016	1218.909	62.0	3	1.7	-4.0	22.1362	955.0	1.0	Outcome1	1.7	-9.22	3.74875	Yes	n/a	10.919592298980698	n/a	n/a	n/a	ShowChoice	Mixed
130.791	1.0	0.012	1222.921	62.0	3	1.7	-4.0	22.1362	955.0	1.0	Outcome1	1.7	-9.22	3.74875	Yes	n/a	10.919592298980698	n/a	n/a	n/a	ShowResult	Mixed
131.811	5.212	0.02	1223.941	62.0	3	1.7	-4.0	22.1362	955.0	1.0	Outcome1	1.7	-9.22	3.74875	Yes	n/a	10.919592298980698	n/a	n/a	n/a	ISITrial	Mixed
137.043	3.749	0.02	1229.173	62.0	3	1.7	-4.0	22.1362	955.0	1.0	Outcome1	1.7	-9.22	3.74875	Yes	n/a	10.919592298980698	n/a	n/a	n/a	TrialHappPreview	Mixed
140.821	4.012	0.029	1232.951	62.0	3	1.7	-4.0	22.1362	955.0	1.0	Outcome1	1.7	-9.22	3.74875	Yes	n/a	10.919592298980698	n/a	n/a	544.0	TrialHappiness	Mixed
140.822	0.936	n/a	1233.367	62.0	3	1.7	-4.0	22.1362	955.0	1.0	Outcome1	1.7	-9.22	3.74875	Yes	n/a	10.919592298980698	n/a	n/a	544.0	TrialHappinessSliderResponse	Mixed
144.833	6.995	4.012	1236.963	62.0	3	1.7	-4.0	22.1362	955.0	1.0	Outcome1	1.7	-9.22	3.74875	Yes	n/a	10.919592298980698	n/a	n/a	n/a	ISIRate	Mixed
151.854	3.0	0.026	1243.984	63.0	3	3.68	1.84	22.5962	955.0	3.16	Outcome1	3.68	5.7	0.0	No	2.0	-2.01896942242356	0.88	152.734	n/a	GetAnswer	Gain
152.757	4.0	0.023	1244.887	63.0	3	3.68	1.84	22.5962	955.0	3.16	Outcome1	3.68	5.7	0.0	No	n/a	-2.01896942242356	n/a	n/a	n/a	ShowChoice	Gain
156.769	1.0	0.012	1248.899	63.0	3	3.68	1.84	22.5962	955.0	3.16	Outcome1	3.68	5.7	0.0	No	n/a	-2.01896942242356	n/a	n/a	n/a	ShowResult	Gain
157.789	5.595	0.02	1249.919	63.0	3	3.68	1.84	22.5962	955.0	3.16	Outcome1	3.68	5.7	0.0	No	n/a	-2.01896942242356	n/a	n/a	n/a	ISITrial	Gain
163.405	3.0	0.021	1255.535	64.0	3	9.7	-0.98	23.8087	955.0	3.16	Outcome2	-1.96	9.7	0.0	No	2.0	11.6602491506229	1.578	164.983	n/a	GetAnswer	Gain
165.01	4.0	0.027	1257.14	64.0	3	9.7	-0.98	23.8087	955.0	3.16	Outcome2	-1.96	9.7	0.0	No	n/a	11.6602491506229	n/a	n/a	n/a	ShowChoice	Gain
169.022	1.0	0.012	1261.152	64.0	3	9.7	-0.98	23.8087	955.0	3.16	Outcome2	-1.96	9.7	0.0	No	n/a	11.6602491506229	n/a	n/a	n/a	ShowResult	Gain
170.042	5.47	0.02	1262.172	64.0	3	9.7	-0.98	23.8087	955.0	3.16	Outcome2	-1.96	9.7	0.0	No	n/a	11.6602491506229	n/a	n/a	n/a	ISITrial	Gain
175.542	3.0	0.03	1267.672	65.0	3	4.4	2.2	24.3587	955.0	1.68	Outcome2	6.5	4.4	2.99675	Yes	2.0	-2.0965458663646697	1.178	176.72	n/a	GetAnswer	Gain
176.745	4.0	0.025	1268.875	65.0	3	4.4	2.2	24.3587	955.0	1.68	Outcome2	6.5	4.4	2.99675	Yes	n/a	-2.0965458663646697	n/a	n/a	n/a	ShowChoice	Gain
180.757	1.0	0.012	1272.887	65.0	3	4.4	2.2	24.3587	955.0	1.68	Outcome2	6.5	4.4	2.99675	Yes	n/a	-2.0965458663646697	n/a	n/a	n/a	ShowResult	Gain
181.777	3.344	0.02	1273.907	65.0	3	4.4	2.2	24.3587	955.0	1.68	Outcome2	6.5	4.4	2.99675	Yes	n/a	-2.0965458663646697	n/a	n/a	n/a	ISITrial	Gain
185.137	2.997	0.016	1277.267	65.0	3	4.4	2.2	24.3587	955.0	1.68	Outcome2	6.5	4.4	2.99675	Yes	n/a	-2.0965458663646697	n/a	n/a	n/a	TrialHappPreview	Gain
188.163	4.012	0.029	1280.293	65.0	3	4.4	2.2	24.3587	955.0	1.68	Outcome2	6.5	4.4	2.99675	Yes	n/a	-2.0965458663646697	n/a	n/a	552.0	TrialHappiness	Gain
188.163	0.221	n/a	1280.613	65.0	3	4.4	2.2	24.3587	955.0	1.68	Outcome2	6.5	4.4	2.99675	Yes	n/a	-2.0965458663646697	n/a	n/a	552.0	TrialHappinessSliderResponse	Gain
192.175	3.987	4.012	1284.305	65.0	3	4.4	2.2	24.3587	955.0	1.68	Outcome2	6.5	4.4	2.99675	Yes	n/a	-2.0965458663646697	n/a	n/a	n/a	ISIRate	Gain
196.187	3.0	0.025	1288.317	66.0	3	0.0	0.0	24.3587	955.0	2.8	Certain	5.5	-6.96	0.0	No	4.0	12.4552661381653	1.431	197.618	n/a	GetAnswer	Gain
197.641	4.0	0.023	1289.771	66.0	3	0.0	0.0	24.3587	955.0	2.8	Certain	5.5	-6.96	0.0	No	n/a	12.4552661381653	n/a	n/a	n/a	ShowChoice	Gain
201.67	1.0	0.029	1293.8	66.0	3	0.0	0.0	24.3587	955.0	2.8	Certain	5.5	-6.96	0.0	No	n/a	12.4552661381653	n/a	n/a	n/a	ShowResult	Gain
202.689	3.959	0.019	1294.819	66.0	3	0.0	0.0	24.3587	955.0	2.8	Certain	5.5	-6.96	0.0	No	n/a	12.4552661381653	n/a	n/a	n/a	ISITrial	Gain
206.668	3.0	0.02	1298.798	67.0	3	-2.0	-2.0	24.1087	955.0	1.68	Certain	-8.41	4.5	2.9185	Yes	4.0	12.9116647791619	1.781	208.449	n/a	GetAnswer	Gain
208.473	4.0	0.024	1300.603	67.0	3	-2.0	-2.0	24.1087	955.0	1.68	Certain	-8.41	4.5	2.9185	Yes	n/a	12.9116647791619	n/a	n/a	n/a	ShowChoice	Gain
212.485	1.0	0.012	1304.615	67.0	3	-2.0	-2.0	24.1087	955.0	1.68	Certain	-8.41	4.5	2.9185	Yes	n/a	12.9116647791619	n/a	n/a	n/a	ShowResult	Gain
213.505	4.199	0.02	1305.635	67.0	3	-2.0	-2.0	24.1087	955.0	1.68	Certain	-8.41	4.5	2.9185	Yes	n/a	12.9116647791619	n/a	n/a	n/a	ISITrial	Gain
217.718	2.918	0.014	1309.848	67.0	3	-2.0	-2.0	24.1087	955.0	1.68	Certain	-8.41	4.5	2.9185	Yes	n/a	12.9116647791619	n/a	n/a	n/a	TrialHappPreview	Gain
220.66	4.012	0.024	1312.79	67.0	3	-2.0	-2.0	24.1087	955.0	1.68	Certain	-8.41	4.5	2.9185	Yes	n/a	12.9116647791619	n/a	n/a	512.0	TrialHappiness	Gain
220.66	0.0	n/a	1312.79	67.0	3	-2.0	-2.0	24.1087	955.0	1.68	Certain	-8.41	4.5	2.9185	Yes	n/a	12.9116647791619	n/a	n/a	512.0	TrialHappinessSliderResponse	Gain
224.672	3.674	4.012	1316.802	67.0	3	-2.0	-2.0	24.1087	955.0	1.68	Certain	-8.41	4.5	2.9185	Yes	n/a	12.9116647791619	n/a	n/a	n/a	ISIRate	Gain
228.366	3.0	0.02	1320.496	68.0	3	-4.0	-4.0	23.6087	955.0	0.2	Certain	-11.55	2.5	0.0	No	4.0	14.047565118912802	2.176	230.542	n/a	GetAnswer	Mixed
230.556	4.0	0.014	1322.686	68.0	3	-4.0	-4.0	23.6087	955.0	0.2	Certain	-11.55	2.5	0.0	No	n/a	14.047565118912802	n/a	n/a	n/a	ShowChoice	Mixed
234.568	1.0	0.012	1326.698	68.0	3	-4.0	-4.0	23.6087	955.0	0.2	Certain	-11.55	2.5	0.0	No	n/a	14.047565118912802	n/a	n/a	n/a	ShowResult	Mixed
235.588	2.185	0.02	1327.718	68.0	3	-4.0	-4.0	23.6087	955.0	0.2	Certain	-11.55	2.5	0.0	No	n/a	14.047565118912802	n/a	n/a	n/a	ISITrial	Mixed
237.794	3.0	0.021	1329.924	69.0	3	1.12	2.0	23.7487	955.0	0.82	Outcome1	1.12	3.5	0.0	No	2.0	-2.38306908267271	0.842	238.636	n/a	GetAnswer	Mixed
238.664	4.0	0.028	1330.794	69.0	3	1.12	2.0	23.7487	955.0	0.82	Outcome1	1.12	3.5	0.0	No	n/a	-2.38306908267271	n/a	n/a	n/a	ShowChoice	Mixed
242.676	1.0	0.012	1334.806	69.0	3	1.12	2.0	23.7487	955.0	0.82	Outcome1	1.12	3.5	0.0	No	n/a	-2.38306908267271	n/a	n/a	n/a	ShowResult	Mixed
243.695	2.0	0.019	1335.825	69.0	3	1.12	2.0	23.7487	955.0	0.82	Outcome1	1.12	3.5	0.0	No	n/a	-2.38306908267271	n/a	n/a	n/a	ISITrial	Mixed
245.718	3.0	0.023	1337.848	70.0	3	-7.0	-7.0	22.8737	955.0	1.2	Certain	-15.15	-0.1	3.65125	Yes	4.0	15.0509626274066	1.101	246.819	n/a	GetAnswer	Mixed
246.838	4.0	0.019	1338.968	70.0	3	-7.0	-7.0	22.8737	955.0	1.2	Certain	-15.15	-0.1	3.65125	Yes	n/a	15.0509626274066	n/a	n/a	n/a	ShowChoice	Mixed
250.85	1.0	0.012	1342.98	70.0	3	-7.0	-7.0	22.8737	955.0	1.2	Certain	-15.15	-0.1	3.65125	Yes	n/a	15.0509626274066	n/a	n/a	n/a	ShowResult	Mixed
251.87	2.623	0.02	1344.0	70.0	3	-7.0	-7.0	22.8737	955.0	1.2	Certain	-15.15	-0.1	3.65125	Yes	n/a	15.0509626274066	n/a	n/a	n/a	ISITrial	Mixed
254.511	3.651	0.018	1346.641	70.0	3	-7.0	-7.0	22.8737	955.0	1.2	Certain	-15.15	-0.1	3.65125	Yes	n/a	15.0509626274066	n/a	n/a	n/a	TrialHappPreview	Mixed
258.189	4.012	0.027	1350.319	70.0	3	-7.0	-7.0	22.8737	955.0	1.2	Certain	-15.15	-0.1	3.65125	Yes	n/a	15.0509626274066	n/a	n/a	496.0	TrialHappiness	Mixed
258.189	0.178	n/a	1350.866	70.0	3	-7.0	-7.0	22.8737	955.0	1.2	Certain	-15.15	-0.1	3.65125	Yes	n/a	15.0509626274066	n/a	n/a	496.0	TrialHappinessSliderResponse	Mixed
262.201	6.605	4.012	1354.331	70.0	3	-7.0	-7.0	22.8737	955.0	1.2	Certain	-15.15	-0.1	3.65125	Yes	n/a	15.0509626274066	n/a	n/a	n/a	ISIRate	Mixed
268.837	3.0	0.031	1360.967	71.0	3	8.37	4.18	23.92	955.0	2.0	Outcome2	10.9	8.37	0.0	No	2.0	-2.53161570403926	0.876	269.713	n/a	GetAnswer	Loss
269.74	4.0	0.027	1361.87	71.0	3	8.37	4.18	23.92	955.0	2.0	Outcome2	10.9	8.37	0.0	No	n/a	-2.53161570403926	n/a	n/a	n/a	ShowChoice	Loss
273.752	1.0	0.012	1365.882	71.0	3	8.37	4.18	23.92	955.0	2.0	Outcome2	10.9	8.37	0.0	No	n/a	-2.53161570403926	n/a	n/a	n/a	ShowResult	Loss
274.772	5.499	0.02	1366.902	71.0	3	8.37	4.18	23.92	955.0	2.0	Outcome2	10.9	8.37	0.0	No	n/a	-2.53161570403926	n/a	n/a	n/a	ISITrial	Loss
280.288	3.0	0.017	1372.418	72.0	3	8.3	0.0	24.9575	955.0	5.0	Outcome2	-8.04	8.3	3.0805	Yes	2.0	16.3442808607021	1.342	281.63	n/a	GetAnswer	Gain
281.642	4.0	0.012	1373.772	72.0	3	8.3	0.0	24.9575	955.0	5.0	Outcome2	-8.04	8.3	3.0805	Yes	n/a	16.3442808607021	n/a	n/a	n/a	ShowChoice	Gain
285.654	1.0	0.012	1377.784	72.0	3	8.3	0.0	24.9575	955.0	5.0	Outcome2	-8.04	8.3	3.0805	Yes	n/a	16.3442808607021	n/a	n/a	n/a	ShowResult	Gain
286.674	5.672	0.02	1378.804	72.0	3	8.3	0.0	24.9575	955.0	5.0	Outcome2	-8.04	8.3	3.0805	Yes	n/a	16.3442808607021	n/a	n/a	n/a	ISITrial	Gain
292.358	3.08	0.012	1384.488	72.0	3	8.3	0.0	24.9575	955.0	5.0	Outcome2	-8.04	8.3	3.0805	Yes	n/a	16.3442808607021	n/a	n/a	n/a	TrialHappPreview	Gain
295.467	4.012	0.029	1387.597	72.0	3	8.3	0.0	24.9575	955.0	5.0	Outcome2	-8.04	8.3	3.0805	Yes	n/a	16.3442808607021	n/a	n/a	512.0	TrialHappiness	Gain
295.467	0.0	n/a	1387.597	72.0	3	8.3	0.0	24.9575	955.0	5.0	Outcome2	-8.04	8.3	3.0805	Yes	n/a	16.3442808607021	n/a	n/a	512.0	TrialHappinessSliderResponse	Gain
299.479	4.322	4.012	1391.609	72.0	3	8.3	0.0	24.9575	955.0	5.0	Outcome2	-8.04	8.3	3.0805	Yes	n/a	16.3442808607021	n/a	n/a	n/a	ISIRate	Gain
303.825	3.0	0.024	1395.955	73.0	3	11.1	-2.74	26.345	955.0	2.22	Outcome2	-5.49	11.1	0.0	No	2.0	16.5922989807475	2.113	305.938	n/a	GetAnswer	Loss
305.965	4.0	0.027	1398.095	73.0	3	11.1	-2.74	26.345	955.0	2.22	Outcome2	-5.49	11.1	0.0	No	n/a	16.5922989807475	n/a	n/a	n/a	ShowChoice	Loss
309.977	1.0	0.012	1402.107	73.0	3	11.1	-2.74	26.345	955.0	2.22	Outcome2	-5.49	11.1	0.0	No	n/a	16.5922989807475	n/a	n/a	n/a	ShowResult	Loss
310.997	4.616	0.02	1403.127	73.0	3	11.1	-2.74	26.345	955.0	2.22	Outcome2	-5.49	11.1	0.0	No	n/a	16.5922989807475	n/a	n/a	n/a	ISITrial	Loss
315.644	3.0	0.031	1407.774	74.0	3	-6.0	-6.0	25.595	955.0	1.5	Certain	2.1	-14.99	3.05625	Yes	4.0	17.093997734994304	1.39	317.034	n/a	GetAnswer	Mixed
317.048	4.0	0.014	1409.178	74.0	3	-6.0	-6.0	25.595	955.0	1.5	Certain	2.1	-14.99	3.05625	Yes	n/a	17.093997734994304	n/a	n/a	n/a	ShowChoice	Mixed
321.06	1.0	0.012	1413.19	74.0	3	-6.0	-6.0	25.595	955.0	1.5	Certain	2.1	-14.99	3.05625	Yes	n/a	17.093997734994304	n/a	n/a	n/a	ShowResult	Mixed
322.08	3.909	0.02	1414.21	74.0	3	-6.0	-6.0	25.595	955.0	1.5	Certain	2.1	-14.99	3.05625	Yes	n/a	17.093997734994304	n/a	n/a	n/a	ISITrial	Mixed
326.008	3.056	0.019	1418.138	74.0	3	-6.0	-6.0	25.595	955.0	1.5	Certain	2.1	-14.99	3.05625	Yes	n/a	17.093997734994304	n/a	n/a	n/a	TrialHappPreview	Mixed
329.084	4.012	0.02	1421.214	74.0	3	-6.0	-6.0	25.595	955.0	1.5	Certain	2.1	-14.99	3.05625	Yes	n/a	17.093997734994304	n/a	n/a	484.0	TrialHappiness	Mixed
329.085	1.564	n/a	1421.57	74.0	3	-6.0	-6.0	25.595	955.0	1.5	Certain	2.1	-14.99	3.05625	Yes	n/a	17.093997734994304	n/a	n/a	484.0	TrialHappinessSliderResponse	Mixed
333.096	4.225	4.012	1425.226	74.0	3	-6.0	-6.0	25.595	955.0	1.5	Certain	2.1	-14.99	3.05625	Yes	n/a	17.093997734994304	n/a	n/a	n/a	ISIRate	Mixed
337.342	3.0	0.021	1429.472	75.0	3	-2.0	-2.0	25.345	955.0	0.66	Certain	-3.45	-0.7	0.0	No	4.0	-2.75056625141563	2.053	339.395	n/a	GetAnswer	Mixed
339.415	4.0	0.02	1431.545	75.0	3	-2.0	-2.0	25.345	955.0	0.66	Certain	-3.45	-0.7	0.0	No	n/a	-2.75056625141563	n/a	n/a	n/a	ShowChoice	Mixed
343.427	1.0	0.012	1435.557	75.0	3	-2.0	-2.0	25.345	955.0	0.66	Certain	-3.45	-0.7	0.0	No	n/a	-2.75056625141563	n/a	n/a	n/a	ShowResult	Mixed
344.447	4.979	0.02	1436.577	75.0	3	-2.0	-2.0	25.345	955.0	0.66	Certain	-3.45	-0.7	0.0	No	n/a	-2.75056625141563	n/a	n/a	n/a	ISITrial	Mixed
349.445	3.0	0.019	1441.575	76.0	3	10.5	5.25	26.6575	955.0	2.48	Outcome2	13.3	10.5	0.0	No	2.0	-2.79501698754247	1.021	350.466	n/a	GetAnswer	Loss
350.481	4.0	0.015	1442.611	76.0	3	10.5	5.25	26.6575	955.0	2.48	Outcome2	13.3	10.5	0.0	No	n/a	-2.79501698754247	n/a	n/a	n/a	ShowChoice	Loss
354.493	1.0	0.012	1446.623	76.0	3	10.5	5.25	26.6575	955.0	2.48	Outcome2	13.3	10.5	0.0	No	n/a	-2.79501698754247	n/a	n/a	n/a	ShowResult	Loss
355.513	3.931	0.02	1447.643	76.0	3	10.5	5.25	26.6575	955.0	2.48	Outcome2	13.3	10.5	0.0	No	n/a	-2.79501698754247	n/a	n/a	n/a	ISITrial	Loss
359.475	3.0	0.031	1451.605	77.0	3	0.86	2.0	26.765	955.0	1.0	Outcome1	0.86	3.7	4.0	Yes	2.0	-2.83946772366931	0.95	360.425	n/a	GetAnswer	Mixed
360.444	4.0	0.019	1452.574	77.0	3	0.86	2.0	26.765	955.0	1.0	Outcome1	0.86	3.7	4.0	Yes	n/a	-2.83946772366931	n/a	n/a	n/a	ShowChoice	Mixed
364.456	1.0	0.012	1456.586	77.0	3	0.86	2.0	26.765	955.0	1.0	Outcome1	0.86	3.7	4.0	Yes	n/a	-2.83946772366931	n/a	n/a	n/a	ShowResult	Mixed
365.476	7.022	0.02	1457.606	77.0	3	0.86	2.0	26.765	955.0	1.0	Outcome1	0.86	3.7	4.0	Yes	n/a	-2.83946772366931	n/a	n/a	n/a	ISITrial	Mixed
372.514	4.0	0.016	1464.644	77.0	3	0.86	2.0	26.765	955.0	1.0	Outcome1	0.86	3.7	4.0	Yes	n/a	-2.83946772366931	n/a	n/a	n/a	TrialHappPreview	Mixed
376.543	4.012	0.029	1468.673	77.0	3	0.86	2.0	26.765	955.0	1.0	Outcome1	0.86	3.7	4.0	Yes	n/a	-2.83946772366931	n/a	n/a	512.0	TrialHappiness	Mixed
376.543	0.0	n/a	1468.673	77.0	3	0.86	2.0	26.765	955.0	1.0	Outcome1	0.86	3.7	4.0	Yes	n/a	-2.83946772366931	n/a	n/a	512.0	TrialHappinessSliderResponse	Mixed
380.555	8.0	4.012	1472.685	77.0	3	0.86	2.0	26.765	955.0	1.0	Outcome1	0.86	3.7	4.0	Yes	n/a	-2.83946772366931	n/a	n/a	n/a	ISIRate	Mixed
388.579	3.0	0.024	1480.709	78.0	3	13.7	-2.75	28.4775	955.0	3.16	Outcome1	13.7	-5.5	0.0	No	2.0	19.1959229898075	1.358	389.937	n/a	GetAnswer	Loss
389.949	4.0	0.012	1482.079	78.0	3	13.7	-2.75	28.4775	955.0	3.16	Outcome1	13.7	-5.5	0.0	No	n/a	19.1959229898075	n/a	n/a	n/a	ShowChoice	Loss
393.961	1.0	0.012	1486.091	78.0	3	13.7	-2.75	28.4775	955.0	3.16	Outcome1	13.7	-5.5	0.0	No	n/a	19.1959229898075	n/a	n/a	n/a	ShowResult	Loss
394.981	2.078	0.02	1487.111	78.0	3	13.7	-2.75	28.4775	955.0	3.16	Outcome1	13.7	-5.5	0.0	No	n/a	19.1959229898075	n/a	n/a	n/a	ISITrial	Loss
397.087	3.0	0.028	1489.217	79.0	3	-9.0	-9.0	27.3525	955.0	0.52	Certain	-18.6	1.1	2.7295	Yes	4.0	19.6976217440544	1.194	398.281	n/a	GetAnswer	Mixed
398.308	4.0	0.027	1490.438	79.0	3	-9.0	-9.0	27.3525	955.0	0.52	Certain	-18.6	1.1	2.7295	Yes	n/a	19.6976217440544	n/a	n/a	n/a	ShowChoice	Mixed
402.32	1.0	0.012	1494.45	79.0	3	-9.0	-9.0	27.3525	955.0	0.52	Certain	-18.6	1.1	2.7295	Yes	n/a	19.6976217440544	n/a	n/a	n/a	ShowResult	Mixed
403.339	3.829	0.019	1495.469	79.0	3	-9.0	-9.0	27.3525	955.0	0.52	Certain	-18.6	1.1	2.7295	Yes	n/a	19.6976217440544	n/a	n/a	n/a	ISITrial	Mixed
407.184	2.73	0.016	1499.314	79.0	3	-9.0	-9.0	27.3525	955.0	0.52	Certain	-18.6	1.1	2.7295	Yes	n/a	19.6976217440544	n/a	n/a	n/a	TrialHappPreview	Mixed
409.942	4.012	0.028	1502.072	79.0	3	-9.0	-9.0	27.3525	955.0	0.52	Certain	-18.6	1.1	2.7295	Yes	n/a	19.6976217440544	n/a	n/a	512.0	TrialHappiness	Mixed
409.943	0.0	n/a	1502.073	79.0	3	-9.0	-9.0	27.3525	955.0	0.52	Certain	-18.6	1.1	2.7295	Yes	n/a	19.6976217440544	n/a	n/a	512.0	TrialHappinessSliderResponse	Mixed
413.954	2.918	4.012	1506.084	79.0	3	-9.0	-9.0	27.3525	955.0	0.52	Certain	-18.6	1.1	2.7295	Yes	n/a	19.6976217440544	n/a	n/a	n/a	ISIRate	Mixed
416.897	3.0	0.025	1509.027	80.0	3	-1.0	-1.0	27.2275	955.0	1.0	Certain	-0.3	-3.15	0.0	No	4.0	-2.85390713476784	1.489	418.386	n/a	GetAnswer	Mixed
418.401	4.0	0.015	1510.531	80.0	3	-1.0	-1.0	27.2275	955.0	1.0	Certain	-0.3	-3.15	0.0	No	n/a	-2.85390713476784	n/a	n/a	n/a	ShowChoice	Mixed
422.413	1.0	0.012	1514.543	80.0	3	-1.0	-1.0	27.2275	955.0	1.0	Certain	-0.3	-3.15	0.0	No	n/a	-2.85390713476784	n/a	n/a	n/a	ShowResult	Mixed
423.433	3.336	0.02	1515.563	80.0	3	-1.0	-1.0	27.2275	955.0	1.0	Certain	-0.3	-3.15	0.0	No	n/a	-2.85390713476784	n/a	n/a	n/a	ISITrial	Mixed
426.793	3.0	0.024	1518.923	81.0	3	5.4	2.7	27.9025	955.0	5.0	Outcome1	5.4	8.3	3.92375	Yes	2.0	-2.89571536428841	1.028	427.821	n/a	GetAnswer	Gain
427.846	4.0	0.025	1519.976	81.0	3	5.4	2.7	27.9025	955.0	5.0	Outcome1	5.4	8.3	3.92375	Yes	n/a	-2.89571536428841	n/a	n/a	n/a	ShowChoice	Gain
431.858	1.0	0.012	1523.988	81.0	3	5.4	2.7	27.9025	955.0	5.0	Outcome1	5.4	8.3	3.92375	Yes	n/a	-2.89571536428841	n/a	n/a	n/a	ShowResult	Gain
432.878	3.919	0.02	1525.008	81.0	3	5.4	2.7	27.9025	955.0	5.0	Outcome1	5.4	8.3	3.92375	Yes	n/a	-2.89571536428841	n/a	n/a	n/a	ISITrial	Gain
436.823	3.924	0.026	1528.953	81.0	3	5.4	2.7	27.9025	955.0	5.0	Outcome1	5.4	8.3	3.92375	Yes	n/a	-2.89571536428841	n/a	n/a	n/a	TrialHappPreview	Gain
440.768	4.012	0.021	1532.898	81.0	3	5.4	2.7	27.9025	955.0	5.0	Outcome1	5.4	8.3	3.92375	Yes	n/a	-2.89571536428841	n/a	n/a	544.0	TrialHappiness	Gain
440.769	0.21	n/a	1535.905	81.0	3	5.4	2.7	27.9025	955.0	5.0	Outcome1	5.4	8.3	3.92375	Yes	n/a	-2.89571536428841	n/a	n/a	544.0	TrialHappinessSliderResponse	Gain
444.78	7.695	4.012	1536.91	81.0	3	5.4	2.7	27.9025	955.0	5.0	Outcome1	5.4	8.3	3.92375	Yes	n/a	-2.89571536428841	n/a	n/a	n/a	ISIRate	Gain
452.503	3.0	0.028	1544.633	n/a	3	n/a	n/a	n/a	n/a	n/a	n/a	n/a	n/a	n/a	n/a	n/a	n/a	n/a	n/a	n/a	CurrentEarnings	n/a
455.529	-0.001	0.026	1547.659	n/a	3	n/a	n/a	n/a	n/a	n/a	n/a	n/a	n/a	n/a	n/a	{SPACE}	n/a	7.386	462.915	n/a	Goodbye	n/a
