onset	duration	onset_delay	onset_unadjusted	trial_number	block	amount_change	certain_amount	current_amount	mood_target	multiplier	outcome	outcome1_amount	outcome2_amount	question_duration	rating	response	rpe	rt	rt_time	slider_response	trial_phase	trial_type
-31.178	-0.001	0.021	24.975	n/a	0	n/a	n/a	n/a	n/a	n/a	n/a	n/a	n/a	n/a	n/a	{SPACE}	n/a	1.636	-29.542	n/a	Welcome	n/a
-29.521	5.0	0.021	26.632	n/a	0	n/a	n/a	n/a	n/a	n/a	n/a	n/a	n/a	n/a	n/a	n/a	n/a	n/a	n/a	n/a	LifeHappyPreview	n/a
-24.49	2.431	0.031	31.663	n/a	0	n/a	n/a	n/a	n/a	n/a	n/a	n/a	n/a	n/a	n/a	n/a	n/a	n/a	n/a	688.0	LifeHappiness	n/a
-24.489	2.119	n/a	31.976	n/a	0	n/a	n/a	n/a	n/a	n/a	n/a	n/a	n/a	n/a	n/a	n/a	n/a	n/a	n/a	688.0	LifeHappinessSliderResponse	n/a
-15.412	4.0	0.018	40.741	n/a	0	n/a	n/a	n/a	n/a	n/a	n/a	n/a	n/a	n/a	n/a	n/a	n/a	n/a	n/a	n/a	BlockHappyPreview	n/a
-11.4	2.044	0.012	44.753	n/a	0	n/a	n/a	n/a	n/a	n/a	n/a	n/a	n/a	n/a	n/a	n/a	n/a	n/a	n/a	572.0	BlockStartHappiness	n/a
-11.4	1.246	n/a	45.551	n/a	0	n/a	n/a	n/a	n/a	n/a	n/a	n/a	n/a	n/a	n/a	n/a	n/a	n/a	n/a	572.0	BlockStartHappinessSliderResponse	n/a
-5.098	-0.001	0.029	51.055	n/a	0	n/a	n/a	n/a	n/a	n/a	n/a	n/a	n/a	n/a	n/a	5.0	n/a	5.085	-0.013	n/a	ScanWait	n/a
0.0	10.0	0.013	56.153	n/a	1	n/a	n/a	n/a	n/a	n/a	n/a	n/a	n/a	n/a	n/a	n/a	n/a	n/a	n/a	n/a	GetReady	n/a
10.03	3.0	0.03	66.183	1.0	1	4.55	2.28	10.5688	955.0	4.2	Outcome1	4.55	6.1	0.0	No	2.0	-1.5542657606644	0.853	10.883	n/a	GetAnswer	Gain
10.9	4.0	0.017	67.053	1.0	1	4.55	2.28	10.5688	955.0	4.2	Outcome1	4.55	6.1	0.0	No	n/a	-1.5542657606644	n/a	n/a	n/a	ShowChoice	Gain
14.912	1.0	0.012	71.065	1.0	1	4.55	2.28	10.5688	955.0	4.2	Outcome1	4.55	6.1	0.0	No	n/a	-1.5542657606644	n/a	n/a	n/a	ShowResult	Gain
15.931	2.431	0.019	72.084	1.0	1	4.55	2.28	10.5688	955.0	4.2	Outcome1	4.55	6.1	0.0	No	n/a	-1.5542657606644	n/a	n/a	n/a	ISITrial	Gain
18.389	3.0	0.027	74.542	2.0	1	-1.3	-5.0	10.4063	955.0	0.3	Outcome2	-8.24	-1.3	0.0	No	2.0	6.939977349943369	1.488	19.877	n/a	GetAnswer	Mixed
19.893	4.0	0.016	76.046	2.0	1	-1.3	-5.0	10.4063	955.0	0.3	Outcome2	-8.24	-1.3	0.0	No	n/a	6.939977349943369	n/a	n/a	n/a	ShowChoice	Mixed
23.922	1.0	0.029	80.075	2.0	1	-1.3	-5.0	10.4063	955.0	0.3	Outcome2	-8.24	-1.3	0.0	No	n/a	6.939977349943369	n/a	n/a	n/a	ShowResult	Mixed
24.942	4.568	0.02	81.095	2.0	1	-1.3	-5.0	10.4063	955.0	0.3	Outcome2	-8.24	-1.3	0.0	No	n/a	6.939977349943369	n/a	n/a	n/a	ISITrial	Mixed
29.539	3.0	0.029	85.692	3.0	1	-1.1	-5.0	10.2688	955.0	0.4	Outcome1	-1.1	-8.47	2.868	Yes	2.0	7.37372593431484	1.356	30.895	n/a	GetAnswer	Mixed
30.909	4.0	0.014	87.062	3.0	1	-1.1	-5.0	10.2688	955.0	0.4	Outcome1	-1.1	-8.47	2.868	Yes	n/a	7.37372593431484	n/a	n/a	n/a	ShowChoice	Mixed
34.921	1.0	0.012	91.074	3.0	1	-1.1	-5.0	10.2688	955.0	0.4	Outcome1	-1.1	-8.47	2.868	Yes	n/a	7.37372593431484	n/a	n/a	n/a	ShowResult	Mixed
35.941	3.243	0.02	92.094	3.0	1	-1.1	-5.0	10.2688	955.0	0.4	Outcome1	-1.1	-8.47	2.868	Yes	n/a	7.37372593431484	n/a	n/a	n/a	ISITrial	Mixed
39.201	2.868	0.017	95.354	3.0	1	-1.1	-5.0	10.2688	955.0	0.4	Outcome1	-1.1	-8.47	2.868	Yes	n/a	7.37372593431484	n/a	n/a	n/a	TrialHappPreview	Mixed
42.093	4.029	0.024	98.246	3.0	1	-1.1	-5.0	10.2688	955.0	0.4	Outcome1	-1.1	-8.47	2.868	Yes	n/a	7.37372593431484	n/a	n/a	768.0	TrialHappiness	Mixed
42.093	1.561	n/a	98.581	3.0	1	-1.1	-5.0	10.2688	955.0	0.4	Outcome1	-1.1	-8.47	2.868	Yes	n/a	7.37372593431484	n/a	n/a	768.0	TrialHappinessSliderResponse	Mixed
46.122	3.472	4.029	102.275	3.0	1	-1.1	-5.0	10.2688	955.0	0.4	Outcome1	-1.1	-8.47	2.868	Yes	n/a	7.37372593431484	n/a	n/a	n/a	ISIRate	Mixed
49.615	3.0	0.021	105.768	4.0	1	0.9	-1.0	10.3813	955.0	0.4	Outcome1	0.9	-3.58	0.0	No	2.0	4.47791619479049	1.127	50.742	n/a	GetAnswer	Mixed
50.769	4.0	0.027	106.922	4.0	1	0.9	-1.0	10.3813	955.0	0.4	Outcome1	0.9	-3.58	0.0	No	n/a	4.47791619479049	n/a	n/a	n/a	ShowChoice	Mixed
54.781	1.0	0.012	110.934	4.0	1	0.9	-1.0	10.3813	955.0	0.4	Outcome1	0.9	-3.58	0.0	No	n/a	4.47791619479049	n/a	n/a	n/a	ShowResult	Mixed
55.8	2.011	0.019	111.953	4.0	1	0.9	-1.0	10.3813	955.0	0.4	Outcome1	0.9	-3.58	0.0	No	n/a	4.47791619479049	n/a	n/a	n/a	ISITrial	Mixed
57.84	3.0	0.029	113.993	5.0	1	2.0	2.0	10.6313	955.0	2.0	Certain	0.21	4.9	2.5825	Yes	4.0	4.689694224235559	0.754	58.594	n/a	GetAnswer	Gain
58.609	4.0	0.015	114.762	5.0	1	2.0	2.0	10.6313	955.0	2.0	Certain	0.21	4.9	2.5825	Yes	n/a	4.689694224235559	n/a	n/a	n/a	ShowChoice	Gain
62.621	1.0	0.012	118.774	5.0	1	2.0	2.0	10.6313	955.0	2.0	Certain	0.21	4.9	2.5825	Yes	n/a	4.689694224235559	n/a	n/a	n/a	ShowResult	Gain
63.641	5.129	0.02	119.794	5.0	1	2.0	2.0	10.6313	955.0	2.0	Certain	0.21	4.9	2.5825	Yes	n/a	4.689694224235559	n/a	n/a	n/a	ISITrial	Gain
68.789	2.582	0.019	124.942	5.0	1	2.0	2.0	10.6313	955.0	2.0	Certain	0.21	4.9	2.5825	Yes	n/a	4.689694224235559	n/a	n/a	n/a	TrialHappPreview	Gain
71.397	4.029	0.026	127.55	5.0	1	2.0	2.0	10.6313	955.0	2.0	Certain	0.21	4.9	2.5825	Yes	n/a	4.689694224235559	n/a	n/a	824.0	TrialHappiness	Gain
71.398	0.79	n/a	127.904	5.0	1	2.0	2.0	10.6313	955.0	2.0	Certain	0.21	4.9	2.5825	Yes	n/a	4.689694224235559	n/a	n/a	824.0	TrialHappinessSliderResponse	Gain
75.426	2.33	4.029	131.579	5.0	1	2.0	2.0	10.6313	955.0	2.0	Certain	0.21	4.9	2.5825	Yes	n/a	4.689694224235559	n/a	n/a	n/a	ISIRate	Gain
77.783	3.0	0.027	133.936	6.0	1	-1.0	-1.0	10.5063	955.0	0.2	Certain	-3.45	0.5	0.0	No	4.0	3.9501698754246894	2.428	80.211	n/a	GetAnswer	Mixed
80.24	4.0	0.029	136.393	6.0	1	-1.0	-1.0	10.5063	955.0	0.2	Certain	-3.45	0.5	0.0	No	n/a	3.9501698754246894	n/a	n/a	n/a	ShowChoice	Mixed
84.269	1.0	0.029	140.422	6.0	1	-1.0	-1.0	10.5063	955.0	0.2	Certain	-3.45	0.5	0.0	No	n/a	3.9501698754246894	n/a	n/a	n/a	ShowResult	Mixed
85.289	6.232	0.02	141.442	6.0	1	-1.0	-1.0	10.5063	955.0	0.2	Certain	-3.45	0.5	0.0	No	n/a	3.9501698754246894	n/a	n/a	n/a	ISITrial	Mixed
91.541	3.0	0.02	147.694	7.0	1	2.0	2.0	10.7563	955.0	4.2	Certain	8.1	4.0	0.0	No	4.0	4.098527746319371	0.718	92.259	n/a	GetAnswer	Gain
92.276	4.0	0.017	148.429	7.0	1	2.0	2.0	10.7563	955.0	4.2	Certain	8.1	4.0	0.0	No	n/a	4.098527746319371	n/a	n/a	n/a	ShowChoice	Gain
96.305	1.0	0.029	152.458	7.0	1	2.0	2.0	10.7563	955.0	4.2	Certain	8.1	4.0	0.0	No	n/a	4.098527746319371	n/a	n/a	n/a	ShowResult	Gain
97.325	2.305	0.02	153.478	7.0	1	2.0	2.0	10.7563	955.0	4.2	Certain	8.1	4.0	0.0	No	n/a	4.098527746319371	n/a	n/a	n/a	ISITrial	Gain
99.648	3.0	0.018	155.801	8.0	1	7.3	1.52	11.6688	955.0	2.48	Outcome2	3.05	7.3	3.1125	Yes	2.0	4.246885617214041	0.959	100.607	n/a	GetAnswer	Gain
100.634	4.0	0.027	156.787	8.0	1	7.3	1.52	11.6688	955.0	2.48	Outcome2	3.05	7.3	3.1125	Yes	n/a	4.246885617214041	n/a	n/a	n/a	ShowChoice	Gain
104.646	1.0	0.012	160.799	8.0	1	7.3	1.52	11.6688	955.0	2.48	Outcome2	3.05	7.3	3.1125	Yes	n/a	4.246885617214041	n/a	n/a	n/a	ShowResult	Gain
105.666	3.506	0.02	161.819	8.0	1	7.3	1.52	11.6688	955.0	2.48	Outcome2	3.05	7.3	3.1125	Yes	n/a	4.246885617214041	n/a	n/a	n/a	ISITrial	Gain
109.193	3.112	0.021	165.346	8.0	1	7.3	1.52	11.6688	955.0	2.48	Outcome2	3.05	7.3	3.1125	Yes	n/a	4.246885617214041	n/a	n/a	n/a	TrialHappPreview	Gain
112.336	4.012	0.031	168.489	8.0	1	7.3	1.52	11.6688	955.0	2.48	Outcome2	3.05	7.3	3.1125	Yes	n/a	4.246885617214041	n/a	n/a	760.0	TrialHappiness	Gain
112.337	2.908	n/a	168.849	8.0	1	7.3	1.52	11.6688	955.0	2.48	Outcome2	3.05	7.3	3.1125	Yes	n/a	4.246885617214041	n/a	n/a	760.0	TrialHappinessSliderResponse	Gain
116.348	4.45	4.012	172.501	8.0	1	7.3	1.52	11.6688	955.0	2.48	Outcome2	3.05	7.3	3.1125	Yes	n/a	4.246885617214041	n/a	n/a	n/a	ISIRate	Gain
120.828	3.0	0.03	176.981	9.0	1	1.0	1.0	11.7938	955.0	1.5	Certain	-1.38	4.1	0.0	No	4.0	5.48244620611552	1.126	121.954	n/a	GetAnswer	Mixed
121.965	4.0	0.011	178.118	9.0	1	1.0	1.0	11.7938	955.0	1.5	Certain	-1.38	4.1	0.0	No	n/a	5.48244620611552	n/a	n/a	n/a	ShowChoice	Mixed
125.977	1.0	0.012	182.13	9.0	1	1.0	1.0	11.7938	955.0	1.5	Certain	-1.38	4.1	0.0	No	n/a	5.48244620611552	n/a	n/a	n/a	ShowResult	Mixed
126.997	2.0	0.02	183.15	9.0	1	1.0	1.0	11.7938	955.0	1.5	Certain	-1.38	4.1	0.0	No	n/a	5.48244620611552	n/a	n/a	n/a	ISITrial	Mixed
129.019	3.0	0.022	185.172	10.0	1	-0.9	-4.0	11.6813	955.0	0.52	Outcome1	-0.9	-6.6	4.0	Yes	2.0	5.70328425821064	1.775	130.794	n/a	GetAnswer	Mixed
130.808	4.0	0.014	186.961	10.0	1	-0.9	-4.0	11.6813	955.0	0.52	Outcome1	-0.9	-6.6	4.0	Yes	n/a	5.70328425821064	n/a	n/a	n/a	ShowChoice	Mixed
134.82	1.0	0.012	190.973	10.0	1	-0.9	-4.0	11.6813	955.0	0.52	Outcome1	-0.9	-6.6	4.0	Yes	n/a	5.70328425821064	n/a	n/a	n/a	ShowResult	Mixed
135.84	2.0	0.02	191.993	10.0	1	-0.9	-4.0	11.6813	955.0	0.52	Outcome1	-0.9	-6.6	4.0	Yes	n/a	5.70328425821064	n/a	n/a	n/a	ISITrial	Mixed
137.862	4.0	0.022	194.015	10.0	1	-0.9	-4.0	11.6813	955.0	0.52	Outcome1	-0.9	-6.6	4.0	Yes	n/a	5.70328425821064	n/a	n/a	n/a	TrialHappPreview	Mixed
141.891	4.012	0.029	198.044	10.0	1	-0.9	-4.0	11.6813	955.0	0.52	Outcome1	-0.9	-6.6	4.0	Yes	n/a	5.70328425821064	n/a	n/a	820.0	TrialHappiness	Mixed
141.892	3.418	n/a	198.413	10.0	1	-0.9	-4.0	11.6813	955.0	0.52	Outcome1	-0.9	-6.6	4.0	Yes	n/a	5.70328425821064	n/a	n/a	820.0	TrialHappinessSliderResponse	Mixed
145.903	8.0	4.012	202.056	10.0	1	-0.9	-4.0	11.6813	955.0	0.52	Outcome1	-0.9	-6.6	4.0	Yes	n/a	5.70328425821064	n/a	n/a	n/a	ISIRate	Mixed
153.927	3.0	0.024	210.08	11.0	1	3.0	3.0	12.0563	955.0	2.0	Certain	6.0	10.9	0.0	No	4.0	4.90486976217441	0.73	154.657	n/a	GetAnswer	Loss
154.679	4.0	0.022	210.832	11.0	1	3.0	3.0	12.0563	955.0	2.0	Certain	6.0	10.9	0.0	No	n/a	4.90486976217441	n/a	n/a	n/a	ShowChoice	Loss
158.691	1.0	0.012	214.844	11.0	1	3.0	3.0	12.0563	955.0	2.0	Certain	6.0	10.9	0.0	No	n/a	4.90486976217441	n/a	n/a	n/a	ShowResult	Loss
159.711	3.324	0.02	215.864	11.0	1	3.0	3.0	12.0563	955.0	2.0	Certain	6.0	10.9	0.0	No	n/a	4.90486976217441	n/a	n/a	n/a	ISITrial	Loss
163.054	3.0	0.019	219.207	12.0	1	-0.48	0.0	11.9963	955.0	2.0	Outcome2	0.3	-0.48	2.61875	Yes	2.0	-0.778218195545489	0.834	163.888	n/a	GetAnswer	Mixed
163.907	4.0	0.018	220.06	12.0	1	-0.48	0.0	11.9963	955.0	2.0	Outcome2	0.3	-0.48	2.61875	Yes	n/a	-0.778218195545489	n/a	n/a	n/a	ShowChoice	Mixed
167.919	1.0	0.012	224.072	12.0	1	-0.48	0.0	11.9963	955.0	2.0	Outcome2	0.3	-0.48	2.61875	Yes	n/a	-0.778218195545489	n/a	n/a	n/a	ShowResult	Mixed
168.939	6.642	0.02	225.092	12.0	1	-0.48	0.0	11.9963	955.0	2.0	Outcome2	0.3	-0.48	2.61875	Yes	n/a	-0.778218195545489	n/a	n/a	n/a	ISITrial	Mixed
175.592	2.619	0.011	231.745	12.0	1	-0.48	0.0	11.9963	955.0	2.0	Outcome2	0.3	-0.48	2.61875	Yes	n/a	-0.778218195545489	n/a	n/a	n/a	TrialHappPreview	Mixed
178.233	4.012	0.022	234.386	12.0	1	-0.48	0.0	11.9963	955.0	2.0	Outcome2	0.3	-0.48	2.61875	Yes	n/a	-0.778218195545489	n/a	n/a	712.0	TrialHappiness	Mixed
178.234	1.956	n/a	234.845	12.0	1	-0.48	0.0	11.9963	955.0	2.0	Outcome2	0.3	-0.48	2.61875	Yes	n/a	-0.778218195545489	n/a	n/a	712.0	TrialHappinessSliderResponse	Mixed
182.245	2.475	4.012	238.398	12.0	1	-0.48	0.0	11.9963	955.0	2.0	Outcome2	0.3	-0.48	2.61875	Yes	n/a	-0.778218195545489	n/a	n/a	n/a	ISIRate	Mixed
184.736	3.0	0.016	240.889	13.0	1	13.9	3.42	13.7338	955.0	3.6	Outcome2	6.85	13.9	0.0	No	2.0	7.04530011325028	1.051	185.787	n/a	GetAnswer	Loss
185.806	4.0	0.019	241.959	13.0	1	13.9	3.42	13.7338	955.0	3.6	Outcome2	6.85	13.9	0.0	No	n/a	7.04530011325028	n/a	n/a	n/a	ShowChoice	Loss
189.818	1.0	0.012	245.971	13.0	1	13.9	3.42	13.7338	955.0	3.6	Outcome2	6.85	13.9	0.0	No	n/a	7.04530011325028	n/a	n/a	n/a	ShowResult	Loss
190.838	3.48	0.02	246.991	13.0	1	13.9	3.42	13.7338	955.0	3.6	Outcome2	6.85	13.9	0.0	No	n/a	7.04530011325028	n/a	n/a	n/a	ISITrial	Loss
194.348	3.0	0.03	250.501	14.0	1	6.3	2.0	14.5213	955.0	5.0	Outcome2	-1.02	6.3	0.0	No	2.0	7.32049830124575	1.255	195.603	n/a	GetAnswer	Gain
195.618	4.0	0.015	251.771	14.0	1	6.3	2.0	14.5213	955.0	5.0	Outcome2	-1.02	6.3	0.0	No	n/a	7.32049830124575	n/a	n/a	n/a	ShowChoice	Gain
199.63	1.0	0.012	255.783	14.0	1	6.3	2.0	14.5213	955.0	5.0	Outcome2	-1.02	6.3	0.0	No	n/a	7.32049830124575	n/a	n/a	n/a	ShowResult	Gain
200.65	5.019	0.02	256.803	14.0	1	6.3	2.0	14.5213	955.0	5.0	Outcome2	-1.02	6.3	0.0	No	n/a	7.32049830124575	n/a	n/a	n/a	ISITrial	Gain
205.699	3.0	0.03	261.852	15.0	1	1.0	1.0	14.6463	955.0	2.48	Certain	5.3	-2.3	3.3485	Yes	4.0	7.595696489241219	1.176	206.875	n/a	GetAnswer	Gain
206.886	4.0	0.011	263.039	15.0	1	1.0	1.0	14.6463	955.0	2.48	Certain	5.3	-2.3	3.3485	Yes	n/a	7.595696489241219	n/a	n/a	n/a	ShowChoice	Gain
210.898	1.0	0.012	267.051	15.0	1	1.0	1.0	14.6463	955.0	2.48	Certain	5.3	-2.3	3.3485	Yes	n/a	7.595696489241219	n/a	n/a	n/a	ShowResult	Gain
211.917	7.614	0.019	268.07	15.0	1	1.0	1.0	14.6463	955.0	2.48	Certain	5.3	-2.3	3.3485	Yes	n/a	7.595696489241219	n/a	n/a	n/a	ISITrial	Gain
219.557	3.348	0.026	275.71	15.0	1	1.0	1.0	14.6463	955.0	2.48	Certain	5.3	-2.3	3.3485	Yes	n/a	7.595696489241219	n/a	n/a	n/a	TrialHappPreview	Gain
222.933	4.012	0.028	279.086	15.0	1	1.0	1.0	14.6463	955.0	2.48	Certain	5.3	-2.3	3.3485	Yes	n/a	7.595696489241219	n/a	n/a	664.0	TrialHappiness	Gain
222.934	0.457	n/a	279.722	15.0	1	1.0	1.0	14.6463	955.0	2.48	Certain	5.3	-2.3	3.3485	Yes	n/a	7.595696489241219	n/a	n/a	664.0	TrialHappinessSliderResponse	Gain
226.945	5.394	4.012	283.098	15.0	1	1.0	1.0	14.6463	955.0	2.48	Certain	5.3	-2.3	3.3485	Yes	n/a	7.595696489241219	n/a	n/a	n/a	ISIRate	Gain
232.362	3.0	0.023	288.515	16.0	1	10.3	0.8	15.9338	955.0	5.0	Outcome1	10.3	1.61	0.0	No	2.0	8.68629671574179	1.141	233.503	n/a	GetAnswer	Gain
233.515	4.0	0.012	289.668	16.0	1	10.3	0.8	15.9338	955.0	5.0	Outcome1	10.3	1.61	0.0	No	n/a	8.68629671574179	n/a	n/a	n/a	ShowChoice	Gain
237.527	1.0	0.012	293.68	16.0	1	10.3	0.8	15.9338	955.0	5.0	Outcome1	10.3	1.61	0.0	No	n/a	8.68629671574179	n/a	n/a	n/a	ShowResult	Gain
238.547	3.008	0.02	294.7	16.0	1	10.3	0.8	15.9338	955.0	5.0	Outcome1	10.3	1.61	0.0	No	n/a	8.68629671574179	n/a	n/a	n/a	ISITrial	Gain
241.573	3.0	0.018	297.726	17.0	1	3.5	-1.0	16.3713	955.0	0.82	Outcome2	-5.52	3.5	3.0415	Yes	2.0	9.0158550396376	1.535	243.108	n/a	GetAnswer	Mixed
243.127	4.0	0.019	299.28	17.0	1	3.5	-1.0	16.3713	955.0	0.82	Outcome2	-5.52	3.5	3.0415	Yes	n/a	9.0158550396376	n/a	n/a	n/a	ShowChoice	Mixed
247.139	1.0	0.012	303.292	17.0	1	3.5	-1.0	16.3713	955.0	0.82	Outcome2	-5.52	3.5	3.0415	Yes	n/a	9.0158550396376	n/a	n/a	n/a	ShowResult	Mixed
248.159	3.566	0.02	304.312	17.0	1	3.5	-1.0	16.3713	955.0	0.82	Outcome2	-5.52	3.5	3.0415	Yes	n/a	9.0158550396376	n/a	n/a	n/a	ISITrial	Mixed
251.736	3.042	0.011	307.889	17.0	1	3.5	-1.0	16.3713	955.0	0.82	Outcome2	-5.52	3.5	3.0415	Yes	n/a	9.0158550396376	n/a	n/a	n/a	TrialHappPreview	Mixed
254.795	4.029	0.017	310.948	17.0	1	3.5	-1.0	16.3713	955.0	0.82	Outcome2	-5.52	3.5	3.0415	Yes	n/a	9.0158550396376	n/a	n/a	864.0	TrialHappiness	Mixed
254.796	3.453	n/a	311.257	17.0	1	3.5	-1.0	16.3713	955.0	0.82	Outcome2	-5.52	3.5	3.0415	Yes	n/a	9.0158550396376	n/a	n/a	864.0	TrialHappinessSliderResponse	Mixed
258.824	4.166	4.029	314.977	17.0	1	3.5	-1.0	16.3713	955.0	0.82	Outcome2	-5.52	3.5	3.0415	Yes	n/a	9.0158550396376	n/a	n/a	n/a	ISIRate	Mixed
263.02	3.0	0.03	319.173	18.0	1	3.3	0.0	16.7838	955.0	0.66	Outcome1	3.3	-2.65	0.0	No	2.0	5.94790486976217	1.164	264.184	n/a	GetAnswer	Mixed
264.207	4.0	0.023	320.36	18.0	1	3.3	0.0	16.7838	955.0	0.66	Outcome1	3.3	-2.65	0.0	No	n/a	5.94790486976217	n/a	n/a	n/a	ShowChoice	Mixed
268.219	1.0	0.012	324.372	18.0	1	3.3	0.0	16.7838	955.0	0.66	Outcome1	3.3	-2.65	0.0	No	n/a	5.94790486976217	n/a	n/a	n/a	ShowResult	Mixed
269.239	6.787	0.02	325.392	18.0	1	3.3	0.0	16.7838	955.0	0.66	Outcome1	3.3	-2.65	0.0	No	n/a	5.94790486976217	n/a	n/a	n/a	ISITrial	Mixed
276.042	3.0	0.016	332.195	19.0	1	2.16	2.0	17.0538	955.0	0.4	Outcome2	2.9	2.16	0.0	No	2.0	-0.744714986787467	0.925	276.967	n/a	GetAnswer	Mixed
276.978	4.0	0.011	333.131	19.0	1	2.16	2.0	17.0538	955.0	0.4	Outcome2	2.9	2.16	0.0	No	n/a	-0.744714986787467	n/a	n/a	n/a	ShowChoice	Mixed
280.99	1.0	0.012	337.143	19.0	1	2.16	2.0	17.0538	955.0	0.4	Outcome2	2.9	2.16	0.0	No	n/a	-0.744714986787467	n/a	n/a	n/a	ShowResult	Mixed
282.01	2.0	0.02	338.163	19.0	1	2.16	2.0	17.0538	955.0	0.4	Outcome2	2.9	2.16	0.0	No	n/a	-0.744714986787467	n/a	n/a	n/a	ISITrial	Mixed
284.033	3.0	0.023	340.186	20.0	1	7.1	0.48	17.9413	955.0	2.22	Outcome2	0.95	7.1	2.92125	Yes	2.0	6.154020385050959	1.095	285.128	n/a	GetAnswer	Gain
285.153	4.0	0.025	341.306	20.0	1	7.1	0.48	17.9413	955.0	2.22	Outcome2	0.95	7.1	2.92125	Yes	n/a	6.154020385050959	n/a	n/a	n/a	ShowChoice	Gain
289.165	1.0	0.012	345.318	20.0	1	7.1	0.48	17.9413	955.0	2.22	Outcome2	0.95	7.1	2.92125	Yes	n/a	6.154020385050959	n/a	n/a	n/a	ShowResult	Gain
290.185	8.0	0.02	346.338	20.0	1	7.1	0.48	17.9413	955.0	2.22	Outcome2	0.95	7.1	2.92125	Yes	n/a	6.154020385050959	n/a	n/a	n/a	ISITrial	Gain
298.209	2.921	0.024	354.362	20.0	1	7.1	0.48	17.9413	955.0	2.22	Outcome2	0.95	7.1	2.92125	Yes	n/a	6.154020385050959	n/a	n/a	n/a	TrialHappPreview	Gain
301.151	4.012	0.021	357.304	20.0	1	7.1	0.48	17.9413	955.0	2.22	Outcome2	0.95	7.1	2.92125	Yes	n/a	6.154020385050959	n/a	n/a	776.0	TrialHappiness	Gain
301.151	2.626	n/a	357.726	20.0	1	7.1	0.48	17.9413	955.0	2.22	Outcome2	0.95	7.1	2.92125	Yes	n/a	6.154020385050959	n/a	n/a	776.0	TrialHappinessSliderResponse	Gain
305.163	3.685	4.012	361.316	20.0	1	7.1	0.48	17.9413	955.0	2.22	Outcome2	0.95	7.1	2.92125	Yes	n/a	6.154020385050959	n/a	n/a	n/a	ISIRate	Gain
308.874	3.0	0.026	365.027	21.0	1	3.1	-1.0	18.3288	955.0	0.52	Outcome1	3.1	-4.65	0.0	No	2.0	7.751981879954701	1.18	310.054	n/a	GetAnswer	Mixed
310.077	4.0	0.023	366.23	21.0	1	3.1	-1.0	18.3288	955.0	0.52	Outcome1	3.1	-4.65	0.0	No	n/a	7.751981879954701	n/a	n/a	n/a	ShowChoice	Mixed
314.089	1.0	0.012	370.242	21.0	1	3.1	-1.0	18.3288	955.0	0.52	Outcome1	3.1	-4.65	0.0	No	n/a	7.751981879954701	n/a	n/a	n/a	ShowResult	Mixed
315.109	3.555	0.02	371.262	21.0	1	3.1	-1.0	18.3288	955.0	0.52	Outcome1	3.1	-4.65	0.0	No	n/a	7.751981879954701	n/a	n/a	n/a	ISITrial	Mixed
318.686	3.0	0.022	374.839	22.0	1	-4.0	-4.0	17.8288	955.0	0.66	Certain	-8.65	-0.7	3.2195	Yes	4.0	7.95469988674972	1.178	319.864	n/a	GetAnswer	Mixed
319.89	4.0	0.026	376.043	22.0	1	-4.0	-4.0	17.8288	955.0	0.66	Certain	-8.65	-0.7	3.2195	Yes	n/a	7.95469988674972	n/a	n/a	n/a	ShowChoice	Mixed
323.902	1.0	0.012	380.055	22.0	1	-4.0	-4.0	17.8288	955.0	0.66	Certain	-8.65	-0.7	3.2195	Yes	n/a	7.95469988674972	n/a	n/a	n/a	ShowResult	Mixed
324.922	6.793	0.02	381.075	22.0	1	-4.0	-4.0	17.8288	955.0	0.66	Certain	-8.65	-0.7	3.2195	Yes	n/a	7.95469988674972	n/a	n/a	n/a	ISITrial	Mixed
331.742	3.22	0.027	387.895	22.0	1	-4.0	-4.0	17.8288	955.0	0.66	Certain	-8.65	-0.7	3.2195	Yes	n/a	7.95469988674972	n/a	n/a	n/a	TrialHappPreview	Mixed
334.985	4.012	0.023	391.138	22.0	1	-4.0	-4.0	17.8288	955.0	0.66	Certain	-8.65	-0.7	3.2195	Yes	n/a	7.95469988674972	n/a	n/a	640.0	TrialHappiness	Mixed
334.986	0.41	n/a	392.039	22.0	1	-4.0	-4.0	17.8288	955.0	0.66	Certain	-8.65	-0.7	3.2195	Yes	n/a	7.95469988674972	n/a	n/a	640.0	TrialHappinessSliderResponse	Mixed
338.997	4.878	4.012	395.15	22.0	1	-4.0	-4.0	17.8288	955.0	0.66	Certain	-8.65	-0.7	3.2195	Yes	n/a	7.95469988674972	n/a	n/a	n/a	ISIRate	Mixed
343.895	3.0	0.02	400.048	23.0	1	11.5	0.52	19.2663	955.0	2.8	Outcome1	11.5	1.03	0.0	No	2.0	10.4677236693092	1.047	344.942	n/a	GetAnswer	Loss
344.965	4.0	0.023	401.118	23.0	1	11.5	0.52	19.2663	955.0	2.8	Outcome1	11.5	1.03	0.0	No	n/a	10.4677236693092	n/a	n/a	n/a	ShowChoice	Loss
348.977	1.0	0.012	405.13	23.0	1	11.5	0.52	19.2663	955.0	2.8	Outcome1	11.5	1.03	0.0	No	n/a	10.4677236693092	n/a	n/a	n/a	ShowResult	Loss
349.997	8.0	0.02	406.15	23.0	1	11.5	0.52	19.2663	955.0	2.8	Outcome1	11.5	1.03	0.0	No	n/a	10.4677236693092	n/a	n/a	n/a	ISITrial	Loss
358.021	3.0	0.024	414.174	24.0	1	5.77	2.88	19.9876	955.0	2.8	Outcome1	5.77	7.5	3.255	Yes	2.0	-1.73442808607022	1.14	359.161	n/a	GetAnswer	Gain
359.174	4.0	0.013	415.327	24.0	1	5.77	2.88	19.9876	955.0	2.8	Outcome1	5.77	7.5	3.255	Yes	n/a	-1.73442808607022	n/a	n/a	n/a	ShowChoice	Gain
363.186	1.0	0.012	419.339	24.0	1	5.77	2.88	19.9876	955.0	2.8	Outcome1	5.77	7.5	3.255	Yes	n/a	-1.73442808607022	n/a	n/a	n/a	ShowResult	Gain
364.206	2.0	0.02	420.359	24.0	1	5.77	2.88	19.9876	955.0	2.8	Outcome1	5.77	7.5	3.255	Yes	n/a	-1.73442808607022	n/a	n/a	n/a	ISITrial	Gain
366.229	3.255	0.023	422.382	24.0	1	5.77	2.88	19.9876	955.0	2.8	Outcome1	5.77	7.5	3.255	Yes	n/a	-1.73442808607022	n/a	n/a	n/a	TrialHappPreview	Gain
369.505	4.012	0.021	425.658	24.0	1	5.77	2.88	19.9876	955.0	2.8	Outcome1	5.77	7.5	3.255	Yes	n/a	-1.73442808607022	n/a	n/a	816.0	TrialHappiness	Gain
369.506	1.448	n/a	426.072	24.0	1	5.77	2.88	19.9876	955.0	2.8	Outcome1	5.77	7.5	3.255	Yes	n/a	-1.73442808607022	n/a	n/a	816.0	TrialHappinessSliderResponse	Gain
373.517	5.02	4.012	429.67	24.0	1	5.77	2.88	19.9876	955.0	2.8	Outcome1	5.77	7.5	3.255	Yes	n/a	-1.73442808607022	n/a	n/a	n/a	ISIRate	Gain
378.565	3.0	0.028	434.718	25.0	1	6.85	3.42	20.8438	955.0	3.6	Outcome1	6.85	7.9	0.0	No	2.0	-1.04992449981125	0.93	379.495	n/a	GetAnswer	Gain
379.518	4.0	0.022	435.671	25.0	1	6.85	3.42	20.8438	955.0	3.6	Outcome1	6.85	7.9	0.0	No	n/a	-1.04992449981125	n/a	n/a	n/a	ShowChoice	Gain
383.53	1.0	0.012	439.683	25.0	1	6.85	3.42	20.8438	955.0	3.6	Outcome1	6.85	7.9	0.0	No	n/a	-1.04992449981125	n/a	n/a	n/a	ShowResult	Gain
384.55	3.749	0.02	440.703	25.0	1	6.85	3.42	20.8438	955.0	3.6	Outcome1	6.85	7.9	0.0	No	n/a	-1.04992449981125	n/a	n/a	n/a	ISITrial	Gain
388.328	3.0	0.029	444.481	26.0	1	-2.0	-2.0	20.5938	955.0	0.2	Certain	-1.5	-2.56	0.0	No	4.0	-1.06304265760664	1.854	390.182	n/a	GetAnswer	Mixed
390.2	4.0	0.018	446.353	26.0	1	-2.0	-2.0	20.5938	955.0	0.2	Certain	-1.5	-2.56	0.0	No	n/a	-1.06304265760664	n/a	n/a	n/a	ShowChoice	Mixed
394.212	1.0	0.012	450.365	26.0	1	-2.0	-2.0	20.5938	955.0	0.2	Certain	-1.5	-2.56	0.0	No	n/a	-1.06304265760664	n/a	n/a	n/a	ShowResult	Mixed
395.232	7.834	0.02	451.385	26.0	1	-2.0	-2.0	20.5938	955.0	0.2	Certain	-1.5	-2.56	0.0	No	n/a	-1.06304265760664	n/a	n/a	n/a	ISITrial	Mixed
403.089	3.0	0.023	459.242	27.0	1	1.1	-3.0	20.7313	955.0	0.52	Outcome2	-7.41	1.1	2.54975	Yes	2.0	8.50622876557191	1.435	404.524	n/a	GetAnswer	Mixed
404.543	4.0	0.019	460.696	27.0	1	1.1	-3.0	20.7313	955.0	0.52	Outcome2	-7.41	1.1	2.54975	Yes	n/a	8.50622876557191	n/a	n/a	n/a	ShowChoice	Mixed
408.555	1.0	0.012	464.708	27.0	1	1.1	-3.0	20.7313	955.0	0.52	Outcome2	-7.41	1.1	2.54975	Yes	n/a	8.50622876557191	n/a	n/a	n/a	ShowResult	Mixed
409.575	4.225	0.02	465.728	27.0	1	1.1	-3.0	20.7313	955.0	0.52	Outcome2	-7.41	1.1	2.54975	Yes	n/a	8.50622876557191	n/a	n/a	n/a	ISITrial	Mixed
413.821	2.55	0.021	469.974	27.0	1	1.1	-3.0	20.7313	955.0	0.52	Outcome2	-7.41	1.1	2.54975	Yes	n/a	8.50622876557191	n/a	n/a	n/a	TrialHappPreview	Mixed
416.395	4.012	0.024	472.548	27.0	1	1.1	-3.0	20.7313	955.0	0.52	Outcome2	-7.41	1.1	2.54975	Yes	n/a	8.50622876557191	n/a	n/a	776.0	TrialHappiness	Mixed
416.396	0.7	n/a	472.958	27.0	1	1.1	-3.0	20.7313	955.0	0.52	Outcome2	-7.41	1.1	2.54975	Yes	n/a	8.50622876557191	n/a	n/a	776.0	TrialHappinessSliderResponse	Mixed
420.407	2.199	4.012	476.56	27.0	1	1.1	-3.0	20.7313	955.0	0.52	Outcome2	-7.41	1.1	2.54975	Yes	n/a	8.50622876557191	n/a	n/a	n/a	ISIRate	Mixed
462.985	1.869	n/a	519.581	n/a	1	n/a	n/a	n/a	n/a	n/a	n/a	n/a	n/a	n/a	n/a	n/a	n/a	n/a	n/a	784.0	BlockStartHappinessSliderResponse	n/a
-49.514	-0.001	0.025	478.784	n/a	2	n/a	n/a	n/a	n/a	n/a	n/a	n/a	n/a	n/a	n/a	{SPACE}	n/a	36.328	-13.186	n/a	Rest	n/a
-13.172	4.0	0.014	515.126	n/a	2	n/a	n/a	n/a	n/a	n/a	n/a	n/a	n/a	n/a	n/a	n/a	n/a	n/a	n/a	n/a	BlockHappyPreview	n/a
-9.16	2.312	0.012	519.138	n/a	2	n/a	n/a	n/a	n/a	n/a	n/a	n/a	n/a	n/a	n/a	n/a	n/a	n/a	n/a	784.0	BlockStartHappiness	n/a
-3.644	-0.001	0.023	524.654	n/a	2	n/a	n/a	n/a	n/a	n/a	n/a	n/a	n/a	n/a	n/a	5.0	n/a	3.624	-0.02	n/a	ScanWait	n/a
0.0	10.0	0.02	528.298	n/a	2	n/a	n/a	n/a	n/a	n/a	n/a	n/a	n/a	n/a	n/a	n/a	n/a	n/a	n/a	n/a	GetReady	n/a
10.014	3.0	0.014	538.312	28.0	2	-10.04	-4.0	19.4763	70.0	1.5	Outcome2	2.1	-10.04	0.0	No	2.0	-12.142857142857098	1.095	11.109	n/a	GetAnswer	Mixed
11.134	4.0	0.025	539.432	28.0	2	-10.04	-4.0	19.4763	70.0	1.5	Outcome2	2.1	-10.04	0.0	No	n/a	-12.142857142857098	n/a	n/a	n/a	ShowChoice	Mixed
15.146	1.0	0.012	543.444	28.0	2	-10.04	-4.0	19.4763	70.0	1.5	Outcome2	2.1	-10.04	0.0	No	n/a	-12.142857142857098	n/a	n/a	n/a	ShowResult	Mixed
16.165	3.575	0.019	544.463	28.0	2	-10.04	-4.0	19.4763	70.0	1.5	Outcome2	2.1	-10.04	0.0	No	n/a	-12.142857142857098	n/a	n/a	n/a	ISITrial	Mixed
19.759	3.0	0.019	548.057	29.0	2	3.28	2.0	19.8863	70.0	2.22	Outcome1	3.28	0.31	3.529	Yes	2.0	2.96825396825397	1.179	20.938	n/a	GetAnswer	Loss
20.963	4.0	0.025	549.261	29.0	2	3.28	2.0	19.8863	70.0	2.22	Outcome1	3.28	0.31	3.529	Yes	n/a	2.96825396825397	n/a	n/a	n/a	ShowChoice	Loss
24.975	1.0	0.012	553.273	29.0	2	3.28	2.0	19.8863	70.0	2.22	Outcome1	3.28	0.31	3.529	Yes	n/a	2.96825396825397	n/a	n/a	n/a	ShowResult	Loss
25.995	3.955	0.02	554.293	29.0	2	3.28	2.0	19.8863	70.0	2.22	Outcome1	3.28	0.31	3.529	Yes	n/a	2.96825396825397	n/a	n/a	n/a	ISITrial	Loss
29.973	3.529	0.023	558.271	29.0	2	3.28	2.0	19.8863	70.0	2.22	Outcome1	3.28	0.31	3.529	Yes	n/a	2.96825396825397	n/a	n/a	n/a	TrialHappPreview	Loss
33.534	4.029	0.032	561.832	29.0	2	3.28	2.0	19.8863	70.0	2.22	Outcome1	3.28	0.31	3.529	Yes	n/a	2.96825396825397	n/a	n/a	768.0	TrialHappiness	Loss
33.534	0.675	n/a	562.165	29.0	2	3.28	2.0	19.8863	70.0	2.22	Outcome1	3.28	0.31	3.529	Yes	n/a	2.96825396825397	n/a	n/a	768.0	TrialHappinessSliderResponse	Loss
37.563	6.116	4.029	565.861	29.0	2	3.28	2.0	19.8863	70.0	2.22	Outcome1	3.28	0.31	3.529	Yes	n/a	2.96825396825397	n/a	n/a	n/a	ISIRate	Loss
43.698	3.0	0.019	571.996	30.0	2	-2.0	-2.0	19.6363	70.0	1.68	Certain	-8.99	4.5	0.0	No	4.0	-13.4897959183673	1.567	45.265	n/a	GetAnswer	Gain
45.286	4.0	0.021	573.584	30.0	2	-2.0	-2.0	19.6363	70.0	1.68	Certain	-8.99	4.5	0.0	No	n/a	-13.4897959183673	n/a	n/a	n/a	ShowChoice	Gain
49.298	1.0	0.012	577.596	30.0	2	-2.0	-2.0	19.6363	70.0	1.68	Certain	-8.99	4.5	0.0	No	n/a	-13.4897959183673	n/a	n/a	n/a	ShowResult	Gain
50.317	4.453	0.019	578.615	30.0	2	-2.0	-2.0	19.6363	70.0	1.68	Certain	-8.99	4.5	0.0	No	n/a	-13.4897959183673	n/a	n/a	n/a	ISITrial	Gain
54.797	3.0	0.027	583.095	31.0	2	-0.08	-1.0	19.6263	70.0	1.0	Outcome2	-3.12	-0.08	2.50325	Yes	2.0	3.0366591080876804	0.892	55.689	n/a	GetAnswer	Mixed
55.717	4.0	0.028	584.015	31.0	2	-0.08	-1.0	19.6263	70.0	1.0	Outcome2	-3.12	-0.08	2.50325	Yes	n/a	3.0366591080876804	n/a	n/a	n/a	ShowChoice	Mixed
59.729	1.0	0.012	588.027	31.0	2	-0.08	-1.0	19.6263	70.0	1.0	Outcome2	-3.12	-0.08	2.50325	Yes	n/a	3.0366591080876804	n/a	n/a	n/a	ShowResult	Mixed
60.749	4.786	0.02	589.047	31.0	2	-0.08	-1.0	19.6263	70.0	1.0	Outcome2	-3.12	-0.08	2.50325	Yes	n/a	3.0366591080876804	n/a	n/a	n/a	ISITrial	Mixed
65.563	2.503	0.028	593.861	31.0	2	-0.08	-1.0	19.6263	70.0	1.0	Outcome2	-3.12	-0.08	2.50325	Yes	n/a	3.0366591080876804	n/a	n/a	n/a	TrialHappPreview	Mixed
68.087	4.012	0.021	596.385	31.0	2	-0.08	-1.0	19.6263	70.0	1.0	Outcome2	-3.12	-0.08	2.50325	Yes	n/a	3.0366591080876804	n/a	n/a	792.0	TrialHappiness	Mixed
68.088	2.566	n/a	596.938	31.0	2	-0.08	-1.0	19.6263	70.0	1.0	Outcome2	-3.12	-0.08	2.50325	Yes	n/a	3.0366591080876804	n/a	n/a	792.0	TrialHappinessSliderResponse	Mixed
72.099	2.013	4.012	600.397	31.0	2	-0.08	-1.0	19.6263	70.0	1.0	Outcome2	-3.12	-0.08	2.50325	Yes	n/a	3.0366591080876804	n/a	n/a	n/a	ISIRate	Mixed
74.139	3.0	0.027	602.437	32.0	2	-1.78	-0.89	19.4038	70.0	3.16	Outcome1	-1.78	13.7	0.0	No	2.0	-15.4807256235828	1.602	75.741	n/a	GetAnswer	Loss
75.76	4.0	0.019	604.058	32.0	2	-1.78	-0.89	19.4038	70.0	3.16	Outcome1	-1.78	13.7	0.0	No	n/a	-15.4807256235828	n/a	n/a	n/a	ShowChoice	Loss
79.772	1.0	0.012	608.07	32.0	2	-1.78	-0.89	19.4038	70.0	3.16	Outcome1	-1.78	13.7	0.0	No	n/a	-15.4807256235828	n/a	n/a	n/a	ShowResult	Loss
80.792	2.0	0.02	609.09	32.0	2	-1.78	-0.89	19.4038	70.0	3.16	Outcome1	-1.78	13.7	0.0	No	n/a	-15.4807256235828	n/a	n/a	n/a	ISITrial	Loss
82.815	3.0	0.023	611.113	33.0	2	-6.8	1.0	18.5538	70.0	2.8	Outcome1	-6.8	9.5	0.0	No	2.0	-16.2993197278912	1.536	84.351	n/a	GetAnswer	Gain
84.369	4.0	0.018	612.667	33.0	2	-6.8	1.0	18.5538	70.0	2.8	Outcome1	-6.8	9.5	0.0	No	n/a	-16.2993197278912	n/a	n/a	n/a	ShowChoice	Gain
88.381	1.0	0.012	616.679	33.0	2	-6.8	1.0	18.5538	70.0	2.8	Outcome1	-6.8	9.5	0.0	No	n/a	-16.2993197278912	n/a	n/a	n/a	ShowResult	Gain
89.401	5.099	0.02	617.699	33.0	2	-6.8	1.0	18.5538	70.0	2.8	Outcome1	-6.8	9.5	0.0	No	n/a	-16.2993197278912	n/a	n/a	n/a	ISITrial	Gain
94.533	3.0	0.033	622.831	34.0	2	-7.02	1.0	17.6763	70.0	4.2	Outcome1	-7.02	10.1	3.2315	Yes	2.0	-17.1179138321995	1.734	96.267	n/a	GetAnswer	Gain
96.288	4.0	0.021	624.586	34.0	2	-7.02	1.0	17.6763	70.0	4.2	Outcome1	-7.02	10.1	3.2315	Yes	n/a	-17.1179138321995	n/a	n/a	n/a	ShowChoice	Gain
100.3	1.0	0.012	628.598	34.0	2	-7.02	1.0	17.6763	70.0	4.2	Outcome1	-7.02	10.1	3.2315	Yes	n/a	-17.1179138321995	n/a	n/a	n/a	ShowResult	Gain
101.32	4.784	0.02	629.618	34.0	2	-7.02	1.0	17.6763	70.0	4.2	Outcome1	-7.02	10.1	3.2315	Yes	n/a	-17.1179138321995	n/a	n/a	n/a	ISITrial	Gain
106.118	3.232	0.014	634.416	34.0	2	-7.02	1.0	17.6763	70.0	4.2	Outcome1	-7.02	10.1	3.2315	Yes	n/a	-17.1179138321995	n/a	n/a	n/a	TrialHappPreview	Gain
109.377	4.012	0.027	637.675	34.0	2	-7.02	1.0	17.6763	70.0	4.2	Outcome1	-7.02	10.1	3.2315	Yes	n/a	-17.1179138321995	n/a	n/a	512.0	TrialHappiness	Gain
109.378	0.0	n/a	637.676	34.0	2	-7.02	1.0	17.6763	70.0	4.2	Outcome1	-7.02	10.1	3.2315	Yes	n/a	-17.1179138321995	n/a	n/a	512.0	TrialHappinessSliderResponse	Gain
113.389	4.926	4.012	641.687	34.0	2	-7.02	1.0	17.6763	70.0	4.2	Outcome1	-7.02	10.1	3.2315	Yes	n/a	-17.1179138321995	n/a	n/a	n/a	ISIRate	Gain
118.337	3.0	0.022	646.635	35.0	2	2.0	2.0	17.9263	70.0	1.82	Certain	-4.47	8.7	0.0	No	4.0	-13.1746031746032	0.909	119.246	n/a	GetAnswer	Gain
119.257	4.0	0.011	647.555	35.0	2	2.0	2.0	17.9263	70.0	1.82	Certain	-4.47	8.7	0.0	No	n/a	-13.1746031746032	n/a	n/a	n/a	ShowChoice	Gain
123.269	1.0	0.012	651.567	35.0	2	2.0	2.0	17.9263	70.0	1.82	Certain	-4.47	8.7	0.0	No	n/a	-13.1746031746032	n/a	n/a	n/a	ShowResult	Gain
124.289	2.098	0.02	652.587	35.0	2	2.0	2.0	17.9263	70.0	1.82	Certain	-4.47	8.7	0.0	No	n/a	-13.1746031746032	n/a	n/a	n/a	ISITrial	Gain
126.412	3.0	0.025	654.71	36.0	2	-1.18	-0.59	17.7788	70.0	1.68	Outcome2	12.5	-1.18	3.33575	Yes	2.0	-13.675736961451198	1.51	127.922	n/a	GetAnswer	Loss
127.95	4.0	0.028	656.248	36.0	2	-1.18	-0.59	17.7788	70.0	1.68	Outcome2	12.5	-1.18	3.33575	Yes	n/a	-13.675736961451198	n/a	n/a	n/a	ShowChoice	Loss
131.961	1.0	0.011	660.259	36.0	2	-1.18	-0.59	17.7788	70.0	1.68	Outcome2	12.5	-1.18	3.33575	Yes	n/a	-13.675736961451198	n/a	n/a	n/a	ShowResult	Loss
132.981	5.156	0.02	661.279	36.0	2	-1.18	-0.59	17.7788	70.0	1.68	Outcome2	12.5	-1.18	3.33575	Yes	n/a	-13.675736961451198	n/a	n/a	n/a	ISITrial	Loss
138.163	3.336	0.026	666.461	36.0	2	-1.18	-0.59	17.7788	70.0	1.68	Outcome2	12.5	-1.18	3.33575	Yes	n/a	-13.675736961451198	n/a	n/a	n/a	TrialHappPreview	Loss
141.523	4.012	0.024	669.821	36.0	2	-1.18	-0.59	17.7788	70.0	1.68	Outcome2	12.5	-1.18	3.33575	Yes	2{-2}4{-4}2{-2}2{-2}2{-2}2{-2}	-13.675736961451198	3.166	144.689	644.0	TrialHappiness	Loss
141.524	2.835	n/a	670.153	36.0	2	-1.18	-0.59	17.7788	70.0	1.68	Outcome2	12.5	-1.18	3.33575	Yes	n/a	-13.675736961451198	n/a	n/a	644.0	TrialHappinessSliderResponse	Loss
145.535	5.343	4.012	673.833	36.0	2	-1.18	-0.59	17.7788	70.0	1.68	Outcome2	12.5	-1.18	3.33575	Yes	n/a	-13.675736961451198	n/a	n/a	n/a	ISIRate	Loss
150.901	3.0	0.023	679.199	37.0	2	-0.12	-1.0	17.7638	70.0	0.82	Outcome1	-0.12	-3.01	0.0	No	2.0	2.8869992441421	1.521	152.422	n/a	GetAnswer	Mixed
152.439	4.0	0.017	680.737	37.0	2	-0.12	-1.0	17.7638	70.0	0.82	Outcome1	-0.12	-3.01	0.0	No	n/a	2.8869992441421	n/a	n/a	n/a	ShowChoice	Mixed
156.451	1.0	0.012	684.749	37.0	2	-0.12	-1.0	17.7638	70.0	0.82	Outcome1	-0.12	-3.01	0.0	No	n/a	2.8869992441421	n/a	n/a	n/a	ShowResult	Mixed
157.471	3.598	0.02	685.769	37.0	2	-0.12	-1.0	17.7638	70.0	0.82	Outcome1	-0.12	-3.01	0.0	No	n/a	2.8869992441421	n/a	n/a	n/a	ISITrial	Mixed
161.099	3.0	0.03	689.397	38.0	2	-6.0	-6.0	17.0138	70.0	1.2	Certain	1.9	-15.17	0.0	No	4.0	-17.0725623582766	1.889	162.988	n/a	GetAnswer	Mixed
163.004	4.0	0.016	691.302	38.0	2	-6.0	-6.0	17.0138	70.0	1.2	Certain	1.9	-15.17	0.0	No	n/a	-17.0725623582766	n/a	n/a	n/a	ShowChoice	Mixed
167.016	1.0	0.012	695.314	38.0	2	-6.0	-6.0	17.0138	70.0	1.2	Certain	1.9	-15.17	0.0	No	n/a	-17.0725623582766	n/a	n/a	n/a	ShowResult	Mixed
168.036	4.787	0.02	696.334	38.0	2	-6.0	-6.0	17.0138	70.0	1.2	Certain	1.9	-15.17	0.0	No	n/a	-17.0725623582766	n/a	n/a	n/a	ISITrial	Mixed
172.85	3.0	0.027	701.148	39.0	2	-9.42	0.0	15.8363	70.0	5.0	Outcome1	-9.42	8.3	2.86425	Yes	2.0	-17.7233560090703	1.398	174.248	n/a	GetAnswer	Gain
174.271	4.0	0.023	702.569	39.0	2	-9.42	0.0	15.8363	70.0	5.0	Outcome1	-9.42	8.3	2.86425	Yes	n/a	-17.7233560090703	n/a	n/a	n/a	ShowChoice	Gain
178.283	1.0	0.012	706.581	39.0	2	-9.42	0.0	15.8363	70.0	5.0	Outcome1	-9.42	8.3	2.86425	Yes	n/a	-17.7233560090703	n/a	n/a	n/a	ShowResult	Gain
179.303	2.348	0.02	707.601	39.0	2	-9.42	0.0	15.8363	70.0	5.0	Outcome1	-9.42	8.3	2.86425	Yes	n/a	-17.7233560090703	n/a	n/a	n/a	ISITrial	Gain
181.677	2.864	0.026	709.975	39.0	2	-9.42	0.0	15.8363	70.0	5.0	Outcome1	-9.42	8.3	2.86425	Yes	n/a	-17.7233560090703	n/a	n/a	n/a	TrialHappPreview	Gain
184.569	4.012	0.028	712.867	39.0	2	-9.42	0.0	15.8363	70.0	5.0	Outcome1	-9.42	8.3	2.86425	Yes	n/a	-17.7233560090703	n/a	n/a	584.0	TrialHappiness	Gain
184.569	0.292	n/a	713.233	39.0	2	-9.42	0.0	15.8363	70.0	5.0	Outcome1	-9.42	8.3	2.86425	Yes	n/a	-17.7233560090703	n/a	n/a	584.0	TrialHappinessSliderResponse	Gain
188.581	3.457	4.012	716.879	39.0	2	-9.42	0.0	15.8363	70.0	5.0	Outcome1	-9.42	8.3	2.86425	Yes	n/a	-17.7233560090703	n/a	n/a	n/a	ISIRate	Gain
192.058	3.0	0.02	720.356	40.0	2	-6.65	2.0	15.0051	70.0	1.82	Outcome1	-6.65	10.7	0.0	No	2.0	-17.353741496598598	1.119	193.177	n/a	GetAnswer	Loss
193.195	4.0	0.018	721.493	40.0	2	-6.65	2.0	15.0051	70.0	1.82	Outcome1	-6.65	10.7	0.0	No	n/a	-17.353741496598598	n/a	n/a	n/a	ShowChoice	Loss
197.207	1.0	0.012	725.505	40.0	2	-6.65	2.0	15.0051	70.0	1.82	Outcome1	-6.65	10.7	0.0	No	n/a	-17.353741496598598	n/a	n/a	n/a	ShowResult	Loss
198.226	3.158	0.019	726.524	40.0	2	-6.65	2.0	15.0051	70.0	1.82	Outcome1	-6.65	10.7	0.0	No	n/a	-17.353741496598598	n/a	n/a	n/a	ISITrial	Loss
201.402	3.0	0.018	729.7	41.0	2	-1.0	-1.0	14.8801	70.0	1.2	Certain	-0.02	-2.87	4.0	Yes	4.0	2.85449735449735	1.317	202.719	n/a	GetAnswer	Mixed
202.74	4.0	0.021	731.038	41.0	2	-1.0	-1.0	14.8801	70.0	1.2	Certain	-0.02	-2.87	4.0	Yes	n/a	2.85449735449735	n/a	n/a	n/a	ShowChoice	Mixed
206.752	1.0	0.012	735.05	41.0	2	-1.0	-1.0	14.8801	70.0	1.2	Certain	-0.02	-2.87	4.0	Yes	n/a	2.85449735449735	n/a	n/a	n/a	ShowResult	Mixed
207.771	4.506	0.019	736.069	41.0	2	-1.0	-1.0	14.8801	70.0	1.2	Certain	-0.02	-2.87	4.0	Yes	n/a	2.85449735449735	n/a	n/a	n/a	ISITrial	Mixed
212.302	4.0	0.025	740.6	41.0	2	-1.0	-1.0	14.8801	70.0	1.2	Certain	-0.02	-2.87	4.0	Yes	n/a	2.85449735449735	n/a	n/a	n/a	TrialHappPreview	Mixed
216.33	4.012	0.028	744.628	41.0	2	-1.0	-1.0	14.8801	70.0	1.2	Certain	-0.02	-2.87	4.0	Yes	n/a	2.85449735449735	n/a	n/a	632.0	TrialHappiness	Mixed
216.331	0.388	n/a	744.982	41.0	2	-1.0	-1.0	14.8801	70.0	1.2	Certain	-0.02	-2.87	4.0	Yes	n/a	2.85449735449735	n/a	n/a	632.0	TrialHappinessSliderResponse	Mixed
220.342	8.0	4.012	748.64	41.0	2	-1.0	-1.0	14.8801	70.0	1.2	Certain	-0.02	-2.87	4.0	Yes	n/a	2.85449735449735	n/a	n/a	n/a	ISIRate	Mixed
228.366	3.0	0.024	756.664	42.0	2	-8.0	-8.0	13.8801	70.0	1.0	Certain	1.7	-17.64	0.0	No	4.0	-19.3356009070295	1.735	230.101	n/a	GetAnswer	Mixed
230.122	4.0	0.021	758.42	42.0	2	-8.0	-8.0	13.8801	70.0	1.0	Certain	1.7	-17.64	0.0	No	n/a	-19.3356009070295	n/a	n/a	n/a	ShowChoice	Mixed
234.15	1.0	0.028	762.448	42.0	2	-8.0	-8.0	13.8801	70.0	1.0	Certain	1.7	-17.64	0.0	No	n/a	-19.3356009070295	n/a	n/a	n/a	ShowResult	Mixed
235.17	6.248	0.02	763.468	42.0	2	-8.0	-8.0	13.8801	70.0	1.0	Certain	1.7	-17.64	0.0	No	n/a	-19.3356009070295	n/a	n/a	n/a	ISITrial	Mixed
241.439	3.0	0.021	769.737	43.0	2	-11.07	-1.0	12.4963	70.0	2.0	Outcome2	8.9	-11.07	2.77575	Yes	2.0	-19.9727891156463	1.1	242.539	n/a	GetAnswer	Gain
242.559	4.0	0.02	770.857	43.0	2	-11.07	-1.0	12.4963	70.0	2.0	Outcome2	8.9	-11.07	2.77575	Yes	n/a	-19.9727891156463	n/a	n/a	n/a	ShowChoice	Gain
246.571	1.0	0.012	774.869	43.0	2	-11.07	-1.0	12.4963	70.0	2.0	Outcome2	8.9	-11.07	2.77575	Yes	n/a	-19.9727891156463	n/a	n/a	n/a	ShowResult	Gain
247.591	4.596	0.02	775.889	43.0	2	-11.07	-1.0	12.4963	70.0	2.0	Outcome2	8.9	-11.07	2.77575	Yes	n/a	-19.9727891156463	n/a	n/a	n/a	ISITrial	Gain
252.204	2.776	0.017	780.502	43.0	2	-11.07	-1.0	12.4963	70.0	2.0	Outcome2	8.9	-11.07	2.77575	Yes	n/a	-19.9727891156463	n/a	n/a	n/a	TrialHappPreview	Gain
254.996	4.012	0.016	783.294	43.0	2	-11.07	-1.0	12.4963	70.0	2.0	Outcome2	8.9	-11.07	2.77575	Yes	n/a	-19.9727891156463	n/a	n/a	616.0	TrialHappiness	Gain
254.997	0.367	n/a	783.671	43.0	2	-11.07	-1.0	12.4963	70.0	2.0	Outcome2	8.9	-11.07	2.77575	Yes	n/a	-19.9727891156463	n/a	n/a	616.0	TrialHappinessSliderResponse	Gain
259.008	3.103	4.012	787.306	43.0	2	-11.07	-1.0	12.4963	70.0	2.0	Outcome2	8.9	-11.07	2.77575	Yes	n/a	-19.9727891156463	n/a	n/a	n/a	ISIRate	Gain
262.134	3.0	0.023	790.432	44.0	2	-8.04	2.0	11.4913	70.0	5.0	Outcome2	12.3	-8.04	0.0	No	2.0	-20.3378684807256	1.721	263.855	n/a	GetAnswer	Loss
263.873	4.0	0.018	792.171	44.0	2	-8.04	2.0	11.4913	70.0	5.0	Outcome2	12.3	-8.04	0.0	No	n/a	-20.3378684807256	n/a	n/a	n/a	ShowChoice	Loss
267.885	1.0	0.012	796.183	44.0	2	-8.04	2.0	11.4913	70.0	5.0	Outcome2	12.3	-8.04	0.0	No	n/a	-20.3378684807256	n/a	n/a	n/a	ShowResult	Loss
268.904	2.42	0.019	797.202	44.0	2	-8.04	2.0	11.4913	70.0	5.0	Outcome2	12.3	-8.04	0.0	No	n/a	-20.3378684807256	n/a	n/a	n/a	ISITrial	Loss
271.345	3.0	0.021	799.643	45.0	2	-3.0	-3.0	11.1163	70.0	2.0	Certain	6.9	-14.06	0.0	No	4.0	-20.9569160997732	2.437	273.782	n/a	GetAnswer	Gain
273.802	4.0	0.02	802.1	45.0	2	-3.0	-3.0	11.1163	70.0	2.0	Certain	6.9	-14.06	0.0	No	n/a	-20.9569160997732	n/a	n/a	n/a	ShowChoice	Gain
277.814	1.0	0.012	806.112	45.0	2	-3.0	-3.0	11.1163	70.0	2.0	Certain	6.9	-14.06	0.0	No	n/a	-20.9569160997732	n/a	n/a	n/a	ShowResult	Gain
278.834	3.144	0.02	807.132	45.0	2	-3.0	-3.0	11.1163	70.0	2.0	Certain	6.9	-14.06	0.0	No	n/a	-20.9569160997732	n/a	n/a	n/a	ISITrial	Gain
281.993	3.0	0.015	810.291	46.0	2	-19.08	-8.0	8.7313	70.0	0.2	Outcome2	2.5	-19.08	3.84125	Yes	2.0	-21.575963718820898	1.953	283.946	n/a	GetAnswer	Mixed
283.966	4.0	0.02	812.264	46.0	2	-19.08	-8.0	8.7313	70.0	0.2	Outcome2	2.5	-19.08	3.84125	Yes	n/a	-21.575963718820898	n/a	n/a	n/a	ShowChoice	Mixed
287.978	1.0	0.012	816.276	46.0	2	-19.08	-8.0	8.7313	70.0	0.2	Outcome2	2.5	-19.08	3.84125	Yes	n/a	-21.575963718820898	n/a	n/a	n/a	ShowResult	Mixed
288.998	2.246	0.02	817.296	46.0	2	-19.08	-8.0	8.7313	70.0	0.2	Outcome2	2.5	-19.08	3.84125	Yes	n/a	-21.575963718820898	n/a	n/a	n/a	ISITrial	Mixed
291.271	3.841	0.027	819.569	46.0	2	-19.08	-8.0	8.7313	70.0	0.2	Outcome2	2.5	-19.08	3.84125	Yes	n/a	-21.575963718820898	n/a	n/a	n/a	TrialHappPreview	Mixed
295.133	4.012	0.021	823.431	46.0	2	-19.08	-8.0	8.7313	70.0	0.2	Outcome2	2.5	-19.08	3.84125	Yes	n/a	-21.575963718820898	n/a	n/a	424.0	TrialHappiness	Mixed
295.133	1.103	n/a	823.756	46.0	2	-19.08	-8.0	8.7313	70.0	0.2	Outcome2	2.5	-19.08	3.84125	Yes	n/a	-21.575963718820898	n/a	n/a	424.0	TrialHappinessSliderResponse	Mixed
299.145	7.365	4.012	827.443	46.0	2	-19.08	-8.0	8.7313	70.0	0.2	Outcome2	2.5	-19.08	3.84125	Yes	n/a	-21.575963718820898	n/a	n/a	n/a	ISIRate	Mixed
306.533	3.0	0.023	834.831	47.0	2	-9.63	0.0	7.5275	70.0	2.48	Outcome2	9.3	-9.63	0.0	No	2.0	-18.9297052154195	2.091	308.624	n/a	GetAnswer	Gain
308.64	4.0	0.016	836.938	47.0	2	-9.63	0.0	7.5275	70.0	2.48	Outcome2	9.3	-9.63	0.0	No	n/a	-18.9297052154195	n/a	n/a	n/a	ShowChoice	Gain
312.652	1.0	0.012	840.95	47.0	2	-9.63	0.0	7.5275	70.0	2.48	Outcome2	9.3	-9.63	0.0	No	n/a	-18.9297052154195	n/a	n/a	n/a	ShowResult	Gain
313.671	2.0	0.019	841.969	47.0	2	-9.63	0.0	7.5275	70.0	2.48	Outcome2	9.3	-9.63	0.0	No	n/a	-18.9297052154195	n/a	n/a	n/a	ISITrial	Gain
315.694	3.0	0.023	843.992	48.0	2	1.0	1.0	7.6525	70.0	1.68	Certain	10.5	-8.83	2.83175	Yes	4.0	-19.3310657596372	1.683	317.377	n/a	GetAnswer	Loss
317.399	4.0	0.022	845.697	48.0	2	1.0	1.0	7.6525	70.0	1.68	Certain	10.5	-8.83	2.83175	Yes	n/a	-19.3310657596372	n/a	n/a	n/a	ShowChoice	Loss
321.411	1.0	0.012	849.709	48.0	2	1.0	1.0	7.6525	70.0	1.68	Certain	10.5	-8.83	2.83175	Yes	n/a	-19.3310657596372	n/a	n/a	n/a	ShowResult	Loss
322.431	3.692	0.02	850.729	48.0	2	1.0	1.0	7.6525	70.0	1.68	Certain	10.5	-8.83	2.83175	Yes	n/a	-19.3310657596372	n/a	n/a	n/a	ISITrial	Loss
326.142	2.832	0.019	854.44	48.0	2	1.0	1.0	7.6525	70.0	1.68	Certain	10.5	-8.83	2.83175	Yes	n/a	-19.3310657596372	n/a	n/a	n/a	TrialHappPreview	Loss
329.001	4.012	0.027	857.299	48.0	2	1.0	1.0	7.6525	70.0	1.68	Certain	10.5	-8.83	2.83175	Yes	n/a	-19.3310657596372	n/a	n/a	624.0	TrialHappiness	Loss
329.001	1.157	n/a	857.87	48.0	2	1.0	1.0	7.6525	70.0	1.68	Certain	10.5	-8.83	2.83175	Yes	n/a	-19.3310657596372	n/a	n/a	624.0	TrialHappinessSliderResponse	Loss
333.013	3.327	4.012	861.311	48.0	2	1.0	1.0	7.6525	70.0	1.68	Certain	10.5	-8.83	2.83175	Yes	n/a	-19.3310657596372	n/a	n/a	n/a	ISIRate	Loss
336.356	3.0	0.016	864.654	49.0	2	2.98	1.0	8.025	70.0	3.6	Outcome1	2.98	-0.41	0.0	No	2.0	3.3934240362811803	1.672	338.028	n/a	GetAnswer	Loss
338.044	4.0	0.015	866.342	49.0	2	2.98	1.0	8.025	70.0	3.6	Outcome1	2.98	-0.41	0.0	No	n/a	3.3934240362811803	n/a	n/a	n/a	ShowChoice	Loss
342.056	1.0	0.012	870.354	49.0	2	2.98	1.0	8.025	70.0	3.6	Outcome1	2.98	-0.41	0.0	No	n/a	3.3934240362811803	n/a	n/a	n/a	ShowResult	Loss
343.076	8.0	0.02	871.374	49.0	2	2.98	1.0	8.025	70.0	3.6	Outcome1	2.98	-0.41	0.0	No	n/a	3.3934240362811803	n/a	n/a	n/a	ISITrial	Loss
351.1	3.0	0.024	879.398	50.0	2	-13.86	-2.0	6.2925	70.0	3.6	Outcome1	-13.86	9.9	3.54725	Yes	2.0	-23.7619047619048	1.929	353.029	n/a	GetAnswer	Gain
353.056	4.0	0.027	881.354	50.0	2	-13.86	-2.0	6.2925	70.0	3.6	Outcome1	-13.86	9.9	3.54725	Yes	n/a	-23.7619047619048	n/a	n/a	n/a	ShowChoice	Gain
357.068	1.0	0.012	885.366	50.0	2	-13.86	-2.0	6.2925	70.0	3.6	Outcome1	-13.86	9.9	3.54725	Yes	n/a	-23.7619047619048	n/a	n/a	n/a	ShowResult	Gain
358.088	7.537	0.02	886.386	50.0	2	-13.86	-2.0	6.2925	70.0	3.6	Outcome1	-13.86	9.9	3.54725	Yes	n/a	-23.7619047619048	n/a	n/a	n/a	ISITrial	Gain
365.644	3.547	0.019	893.942	50.0	2	-13.86	-2.0	6.2925	70.0	3.6	Outcome1	-13.86	9.9	3.54725	Yes	n/a	-23.7619047619048	n/a	n/a	n/a	TrialHappPreview	Gain
369.221	4.012	0.03	897.519	50.0	2	-13.86	-2.0	6.2925	70.0	3.6	Outcome1	-13.86	9.9	3.54725	Yes	4{-4}2{-2}4{-4}2{-2}2{-2}2{-2}2{-2}	-23.7619047619048	3.94	373.161	416.0	TrialHappiness	Gain
369.222	3.574	n/a	897.886	50.0	2	-13.86	-2.0	6.2925	70.0	3.6	Outcome1	-13.86	9.9	3.54725	Yes	n/a	-23.7619047619048	n/a	n/a	416.0	TrialHappinessSliderResponse	Gain
373.233	6.189	4.012	901.531	50.0	2	-13.86	-2.0	6.2925	70.0	3.6	Outcome1	-13.86	9.9	3.54725	Yes	n/a	-23.7619047619048	n/a	n/a	n/a	ISIRate	Gain
379.451	3.0	0.029	907.749	51.0	2	-7.35	-3.68	5.3737	70.0	2.8	Outcome1	-7.35	13.5	0.0	No	2.0	-20.852607709750604	1.279	380.73	n/a	GetAnswer	Loss
380.755	4.0	0.025	909.053	51.0	2	-7.35	-3.68	5.3737	70.0	2.8	Outcome1	-7.35	13.5	0.0	No	n/a	-20.852607709750604	n/a	n/a	n/a	ShowChoice	Loss
384.767	1.0	0.012	913.065	51.0	2	-7.35	-3.68	5.3737	70.0	2.8	Outcome1	-7.35	13.5	0.0	No	n/a	-20.852607709750604	n/a	n/a	n/a	ShowResult	Loss
385.787	5.508	0.02	914.085	51.0	2	-7.35	-3.68	5.3737	70.0	2.8	Outcome1	-7.35	13.5	0.0	No	n/a	-20.852607709750604	n/a	n/a	n/a	ISITrial	Loss
391.32	3.0	0.025	919.618	52.0	2	1.68	0.0	5.5837	70.0	1.82	Outcome2	-1.01	1.68	0.0	No	2.0	2.6857520786092204	1.567	392.887	n/a	GetAnswer	Gain
392.908	4.0	0.021	921.206	52.0	2	1.68	0.0	5.5837	70.0	1.82	Outcome2	-1.01	1.68	0.0	No	n/a	2.6857520786092204	n/a	n/a	n/a	ShowChoice	Gain
396.92	1.0	0.012	925.218	52.0	2	1.68	0.0	5.5837	70.0	1.82	Outcome2	-1.01	1.68	0.0	No	n/a	2.6857520786092204	n/a	n/a	n/a	ShowResult	Gain
397.94	5.913	0.02	926.238	52.0	2	1.68	0.0	5.5837	70.0	1.82	Outcome2	-1.01	1.68	0.0	No	n/a	2.6857520786092204	n/a	n/a	n/a	ISITrial	Gain
403.874	3.0	0.021	932.172	53.0	2	0.0	0.0	5.5837	70.0	2.8	Certain	1.38	-1.34	2.99675	Yes	4.0	2.71844293272865	1.23	405.104	n/a	GetAnswer	Gain
405.128	4.0	0.024	933.426	53.0	2	0.0	0.0	5.5837	70.0	2.8	Certain	1.38	-1.34	2.99675	Yes	n/a	2.71844293272865	n/a	n/a	n/a	ShowChoice	Gain
409.14	1.0	0.012	937.438	53.0	2	0.0	0.0	5.5837	70.0	2.8	Certain	1.38	-1.34	2.99675	Yes	n/a	2.71844293272865	n/a	n/a	n/a	ShowResult	Gain
410.16	3.66	0.02	938.458	53.0	2	0.0	0.0	5.5837	70.0	2.8	Certain	1.38	-1.34	2.99675	Yes	n/a	2.71844293272865	n/a	n/a	n/a	ISITrial	Gain
413.838	2.997	0.018	942.136	53.0	2	0.0	0.0	5.5837	70.0	2.8	Certain	1.38	-1.34	2.99675	Yes	n/a	2.71844293272865	n/a	n/a	n/a	TrialHappPreview	Gain
416.863	4.012	0.028	945.161	53.0	2	0.0	0.0	5.5837	70.0	2.8	Certain	1.38	-1.34	2.99675	Yes	n/a	2.71844293272865	n/a	n/a	736.0	TrialHappiness	Gain
416.864	1.582	n/a	945.543	53.0	2	0.0	0.0	5.5837	70.0	2.8	Certain	1.38	-1.34	2.99675	Yes	n/a	2.71844293272865	n/a	n/a	736.0	TrialHappinessSliderResponse	Gain
420.875	3.987	4.012	949.173	53.0	2	0.0	0.0	5.5837	70.0	2.8	Certain	1.38	-1.34	2.99675	Yes	n/a	2.71844293272865	n/a	n/a	n/a	ISIRate	Gain
424.887	3.0	0.025	953.185	54.0	2	-18.37	-4.0	3.2875	70.0	2.22	Outcome1	-18.37	9.1	0.0	No	2.0	-27.4716553287982	1.614	426.501	n/a	GetAnswer	Gain
426.526	4.0	0.025	954.824	54.0	2	-18.37	-4.0	3.2875	70.0	2.22	Outcome1	-18.37	9.1	0.0	No	n/a	-27.4716553287982	n/a	n/a	n/a	ShowChoice	Gain
430.538	1.0	0.012	958.836	54.0	2	-18.37	-4.0	3.2875	70.0	2.22	Outcome1	-18.37	9.1	0.0	No	n/a	-27.4716553287982	n/a	n/a	n/a	ShowResult	Gain
431.557	8.0	0.019	959.855	54.0	2	-18.37	-4.0	3.2875	70.0	2.22	Outcome1	-18.37	9.1	0.0	No	n/a	-27.4716553287982	n/a	n/a	n/a	ISITrial	Gain
499.277	1.546	n/a	1028.313	n/a	2	n/a	n/a	n/a	n/a	n/a	n/a	n/a	n/a	n/a	n/a	n/a	n/a	n/a	n/a	668.0	BlockStartHappinessSliderResponse	n/a
-67.636	-0.001	0.024	967.879	n/a	3	n/a	n/a	n/a	n/a	n/a	n/a	n/a	n/a	n/a	n/a	{SPACE}	n/a	55.669	-11.967	n/a	Rest	n/a
-11.953	4.0	0.014	1023.562	n/a	3	n/a	n/a	n/a	n/a	n/a	n/a	n/a	n/a	n/a	n/a	n/a	n/a	n/a	n/a	n/a	BlockHappyPreview	n/a
-7.941	2.284	0.012	1027.574	n/a	3	n/a	n/a	n/a	n/a	n/a	n/a	n/a	n/a	n/a	n/a	n/a	n/a	n/a	n/a	668.0	BlockStartHappiness	n/a
-2.474	-0.001	0.021	1033.041	n/a	3	n/a	n/a	n/a	n/a	n/a	n/a	n/a	n/a	n/a	n/a	5.0	n/a	2.463	-0.011	n/a	ScanWait	n/a
0.0	10.0	0.011	1035.515	n/a	3	n/a	n/a	n/a	n/a	n/a	n/a	n/a	n/a	n/a	n/a	n/a	n/a	n/a	n/a	n/a	GetReady	n/a
10.03	3.0	0.03	1045.545	55.0	3	12.14	6.07	4.805	955.0	2.48	Outcome1	12.14	13.3	2.53325	Yes	2.0	-1.16468478671197	1.377	11.407	n/a	GetAnswer	Loss
11.434	4.0	0.027	1046.949	55.0	3	12.14	6.07	4.805	955.0	2.48	Outcome1	12.14	13.3	2.53325	Yes	n/a	-1.16468478671197	n/a	n/a	n/a	ShowChoice	Loss
15.446	1.0	0.012	1050.961	55.0	3	12.14	6.07	4.805	955.0	2.48	Outcome1	12.14	13.3	2.53325	Yes	n/a	-1.16468478671197	n/a	n/a	n/a	ShowResult	Loss
16.466	7.709	0.02	1051.981	55.0	3	12.14	6.07	4.805	955.0	2.48	Outcome1	12.14	13.3	2.53325	Yes	n/a	-1.16468478671197	n/a	n/a	n/a	ISITrial	Loss
24.189	2.533	0.014	1059.704	55.0	3	12.14	6.07	4.805	955.0	2.48	Outcome1	12.14	13.3	2.53325	Yes	n/a	-1.16468478671197	n/a	n/a	n/a	TrialHappPreview	Loss
26.746	4.029	0.024	1062.261	55.0	3	12.14	6.07	4.805	955.0	2.48	Outcome1	12.14	13.3	2.53325	Yes	n/a	-1.16468478671197	n/a	n/a	568.0	TrialHappiness	Loss
26.747	2.652	n/a	1063.2	55.0	3	12.14	6.07	4.805	955.0	2.48	Outcome1	12.14	13.3	2.53325	Yes	n/a	-1.16468478671197	n/a	n/a	568.0	TrialHappinessSliderResponse	Loss
30.775	2.133	4.029	1066.29	55.0	3	12.14	6.07	4.805	955.0	2.48	Outcome1	12.14	13.3	2.53325	Yes	n/a	-1.16468478671197	n/a	n/a	n/a	ISIRate	Loss
32.932	3.0	0.024	1068.447	56.0	3	0.0	0.0	4.805	955.0	1.2	Certain	3.9	-3.0	0.0	No	4.0	6.89920724801812	1.898	34.83	n/a	GetAnswer	Mixed
34.854	4.0	0.024	1070.369	56.0	3	0.0	0.0	4.805	955.0	1.2	Certain	3.9	-3.0	0.0	No	n/a	6.89920724801812	n/a	n/a	n/a	ShowChoice	Mixed
38.866	1.0	0.012	1074.381	56.0	3	0.0	0.0	4.805	955.0	1.2	Certain	3.9	-3.0	0.0	No	n/a	6.89920724801812	n/a	n/a	n/a	ShowResult	Mixed
39.886	4.697	0.02	1075.401	56.0	3	0.0	0.0	4.805	955.0	1.2	Certain	3.9	-3.0	0.0	No	n/a	6.89920724801812	n/a	n/a	n/a	ISITrial	Mixed
44.6	3.0	0.017	1080.115	57.0	3	4.3	0.0	5.3425	955.0	2.0	Outcome1	4.3	-3.04	0.0	No	2.0	7.33748584371461	1.368	45.968	n/a	GetAnswer	Mixed
45.987	4.0	0.019	1081.502	57.0	3	4.3	0.0	5.3425	955.0	2.0	Outcome1	4.3	-3.04	0.0	No	n/a	7.33748584371461	n/a	n/a	n/a	ShowChoice	Mixed
49.999	1.0	0.012	1085.514	57.0	3	4.3	0.0	5.3425	955.0	2.0	Outcome1	4.3	-3.04	0.0	No	n/a	7.33748584371461	n/a	n/a	n/a	ShowResult	Mixed
51.019	4.291	0.02	1086.534	57.0	3	4.3	0.0	5.3425	955.0	2.0	Outcome1	4.3	-3.04	0.0	No	n/a	7.33748584371461	n/a	n/a	n/a	ISITrial	Mixed
55.332	3.0	0.022	1090.847	58.0	3	3.7	0.0	5.805	955.0	1.0	Outcome1	3.7	-4.08	3.04575	Yes	2.0	7.7757644394111	1.507	56.839	n/a	GetAnswer	Mixed
56.853	4.0	0.014	1092.368	58.0	3	3.7	0.0	5.805	955.0	1.0	Outcome1	3.7	-4.08	3.04575	Yes	n/a	7.7757644394111	n/a	n/a	n/a	ShowChoice	Mixed
60.865	1.0	0.012	1096.38	58.0	3	3.7	0.0	5.805	955.0	1.0	Outcome1	3.7	-4.08	3.04575	Yes	n/a	7.7757644394111	n/a	n/a	n/a	ShowResult	Mixed
61.885	2.037	0.02	1097.4	58.0	3	3.7	0.0	5.805	955.0	1.0	Outcome1	3.7	-4.08	3.04575	Yes	n/a	7.7757644394111	n/a	n/a	n/a	ISITrial	Mixed
63.941	3.046	0.019	1099.456	58.0	3	3.7	0.0	5.805	955.0	1.0	Outcome1	3.7	-4.08	3.04575	Yes	n/a	7.7757644394111	n/a	n/a	n/a	TrialHappPreview	Mixed
67.017	4.029	0.03	1102.532	58.0	3	3.7	0.0	5.805	955.0	1.0	Outcome1	3.7	-4.08	3.04575	Yes	n/a	7.7757644394111	n/a	n/a	672.0	TrialHappiness	Mixed
67.017	0.484	n/a	1102.856	58.0	3	3.7	0.0	5.805	955.0	1.0	Outcome1	3.7	-4.08	3.04575	Yes	n/a	7.7757644394111	n/a	n/a	672.0	TrialHappinessSliderResponse	Mixed
71.046	4.183	4.029	1106.561	58.0	3	3.7	0.0	5.805	955.0	1.0	Outcome1	3.7	-4.08	3.04575	Yes	n/a	7.7757644394111	n/a	n/a	n/a	ISIRate	Mixed
75.258	3.0	0.029	1110.773	59.0	3	11.3	2.42	7.2175	955.0	2.48	Outcome2	4.85	11.3	0.0	No	2.0	6.447338618346549	1.125	76.383	n/a	GetAnswer	Loss
76.412	4.0	0.029	1111.927	59.0	3	11.3	2.42	7.2175	955.0	2.48	Outcome2	4.85	11.3	0.0	No	n/a	6.447338618346549	n/a	n/a	n/a	ShowChoice	Loss
80.424	1.0	0.012	1115.939	59.0	3	11.3	2.42	7.2175	955.0	2.48	Outcome2	4.85	11.3	0.0	No	n/a	6.447338618346549	n/a	n/a	n/a	ShowResult	Loss
81.443	5.064	0.019	1116.958	59.0	3	11.3	2.42	7.2175	955.0	2.48	Outcome2	4.85	11.3	0.0	No	n/a	6.447338618346549	n/a	n/a	n/a	ISITrial	Loss
86.525	3.0	0.018	1122.04	60.0	3	5.1	1.0	7.855	955.0	2.22	Outcome2	-1.67	5.1	3.5625	Yes	2.0	6.767836919592299	1.393	87.918	n/a	GetAnswer	Gain
87.946	4.0	0.028	1123.461	60.0	3	5.1	1.0	7.855	955.0	2.22	Outcome2	-1.67	5.1	3.5625	Yes	n/a	6.767836919592299	n/a	n/a	n/a	ShowChoice	Gain
91.958	1.0	0.012	1127.473	60.0	3	5.1	1.0	7.855	955.0	2.22	Outcome2	-1.67	5.1	3.5625	Yes	n/a	6.767836919592299	n/a	n/a	n/a	ShowResult	Gain
92.978	8.0	0.02	1128.493	60.0	3	5.1	1.0	7.855	955.0	2.22	Outcome2	-1.67	5.1	3.5625	Yes	n/a	6.767836919592299	n/a	n/a	n/a	ISITrial	Gain
101.002	3.562	0.024	1136.517	60.0	3	5.1	1.0	7.855	955.0	2.22	Outcome2	-1.67	5.1	3.5625	Yes	n/a	6.767836919592299	n/a	n/a	n/a	TrialHappPreview	Gain
104.579	4.012	0.015	1140.094	60.0	3	5.1	1.0	7.855	955.0	2.22	Outcome2	-1.67	5.1	3.5625	Yes	n/a	6.767836919592299	n/a	n/a	768.0	TrialHappiness	Gain
104.58	0.674	n/a	1140.982	60.0	3	5.1	1.0	7.855	955.0	2.22	Outcome2	-1.67	5.1	3.5625	Yes	n/a	6.767836919592299	n/a	n/a	768.0	TrialHappinessSliderResponse	Gain
108.591	6.25	4.012	1144.106	60.0	3	5.1	1.0	7.855	955.0	2.22	Outcome2	-1.67	5.1	3.5625	Yes	n/a	6.767836919592299	n/a	n/a	n/a	ISIRate	Gain
114.86	3.0	0.019	1150.375	61.0	3	12.9	3.72	9.4675	955.0	2.0	Outcome2	7.44	12.9	0.0	No	2.0	5.45753114382786	1.226	116.086	n/a	GetAnswer	Loss
116.097	4.0	0.011	1151.612	61.0	3	12.9	3.72	9.4675	955.0	2.0	Outcome2	7.44	12.9	0.0	No	n/a	5.45753114382786	n/a	n/a	n/a	ShowChoice	Loss
120.109	1.0	0.012	1155.624	61.0	3	12.9	3.72	9.4675	955.0	2.0	Outcome2	7.44	12.9	0.0	No	n/a	5.45753114382786	n/a	n/a	n/a	ShowResult	Loss
121.129	4.586	0.02	1156.644	61.0	3	12.9	3.72	9.4675	955.0	2.0	Outcome2	7.44	12.9	0.0	No	n/a	5.45753114382786	n/a	n/a	n/a	ISITrial	Loss
125.742	3.0	0.027	1161.257	62.0	3	-1.0	-1.0	9.3425	955.0	0.82	Certain	-4.17	1.5	3.74875	Yes	4.0	5.6693091732729295	1.507	127.249	n/a	GetAnswer	Mixed
127.264	4.0	0.015	1162.779	62.0	3	-1.0	-1.0	9.3425	955.0	0.82	Certain	-4.17	1.5	3.74875	Yes	n/a	5.6693091732729295	n/a	n/a	n/a	ShowChoice	Mixed
131.276	1.0	0.012	1166.791	62.0	3	-1.0	-1.0	9.3425	955.0	0.82	Certain	-4.17	1.5	3.74875	Yes	n/a	5.6693091732729295	n/a	n/a	n/a	ShowResult	Mixed
132.295	5.212	0.019	1167.81	62.0	3	-1.0	-1.0	9.3425	955.0	0.82	Certain	-4.17	1.5	3.74875	Yes	n/a	5.6693091732729295	n/a	n/a	n/a	ISITrial	Mixed
137.528	3.749	0.021	1173.043	62.0	3	-1.0	-1.0	9.3425	955.0	0.82	Certain	-4.17	1.5	3.74875	Yes	n/a	5.6693091732729295	n/a	n/a	n/a	TrialHappPreview	Mixed
141.306	4.012	0.029	1176.821	62.0	3	-1.0	-1.0	9.3425	955.0	0.82	Certain	-4.17	1.5	3.74875	Yes	n/a	5.6693091732729295	n/a	n/a	704.0	TrialHappiness	Mixed
141.306	2.008	n/a	1177.243	62.0	3	-1.0	-1.0	9.3425	955.0	0.82	Certain	-4.17	1.5	3.74875	Yes	n/a	5.6693091732729295	n/a	n/a	704.0	TrialHappinessSliderResponse	Mixed
145.318	6.995	4.012	1180.833	62.0	3	-1.0	-1.0	9.3425	955.0	0.82	Certain	-4.17	1.5	3.74875	Yes	n/a	5.6693091732729295	n/a	n/a	n/a	ISIRate	Mixed
152.339	3.0	0.026	1187.854	63.0	3	5.7	2.0	10.055	955.0	3.16	Outcome2	-1.27	5.7	0.0	No	2.0	6.9682899207248	1.215	153.554	n/a	GetAnswer	Gain
153.576	4.0	0.022	1189.091	63.0	3	5.7	2.0	10.055	955.0	3.16	Outcome2	-1.27	5.7	0.0	No	n/a	6.9682899207248	n/a	n/a	n/a	ShowChoice	Gain
157.588	1.0	0.012	1193.103	63.0	3	5.7	2.0	10.055	955.0	3.16	Outcome2	-1.27	5.7	0.0	No	n/a	6.9682899207248	n/a	n/a	n/a	ShowResult	Gain
158.607	5.595	0.019	1194.122	63.0	3	5.7	2.0	10.055	955.0	3.16	Outcome2	-1.27	5.7	0.0	No	n/a	6.9682899207248	n/a	n/a	n/a	ISITrial	Gain
164.224	3.0	0.022	1199.739	64.0	3	6.5	-0.38	10.8675	955.0	1.68	Outcome1	6.5	-0.75	0.0	No	2.0	7.25254813137033	1.08	165.304	n/a	GetAnswer	Gain
165.327	4.0	0.023	1200.842	64.0	3	6.5	-0.38	10.8675	955.0	1.68	Outcome1	6.5	-0.75	0.0	No	n/a	7.25254813137033	n/a	n/a	n/a	ShowChoice	Gain
169.339	1.0	0.012	1204.854	64.0	3	6.5	-0.38	10.8675	955.0	1.68	Outcome1	6.5	-0.75	0.0	No	n/a	7.25254813137033	n/a	n/a	n/a	ShowResult	Gain
170.359	5.47	0.02	1205.874	64.0	3	6.5	-0.38	10.8675	955.0	1.68	Outcome1	6.5	-0.75	0.0	No	n/a	7.25254813137033	n/a	n/a	n/a	ISITrial	Gain
175.859	3.0	0.03	1211.374	65.0	3	-3.0	-3.0	10.4925	955.0	1.5	Certain	-7.44	0.1	2.99675	Yes	4.0	7.53680634201586	1.744	177.603	n/a	GetAnswer	Mixed
177.614	4.0	0.011	1213.129	65.0	3	-3.0	-3.0	10.4925	955.0	1.5	Certain	-7.44	0.1	2.99675	Yes	n/a	7.53680634201586	n/a	n/a	n/a	ShowChoice	Mixed
181.626	1.0	0.012	1217.141	65.0	3	-3.0	-3.0	10.4925	955.0	1.5	Certain	-7.44	0.1	2.99675	Yes	n/a	7.53680634201586	n/a	n/a	n/a	ShowResult	Mixed
182.646	3.344	0.02	1218.161	65.0	3	-3.0	-3.0	10.4925	955.0	1.5	Certain	-7.44	0.1	2.99675	Yes	n/a	7.53680634201586	n/a	n/a	n/a	ISITrial	Mixed
186.006	2.997	0.016	1221.521	65.0	3	-3.0	-3.0	10.4925	955.0	1.5	Certain	-7.44	0.1	2.99675	Yes	n/a	7.53680634201586	n/a	n/a	n/a	TrialHappPreview	Mixed
189.032	4.012	0.029	1224.547	65.0	3	-3.0	-3.0	10.4925	955.0	1.5	Certain	-7.44	0.1	2.99675	Yes	n/a	7.53680634201586	n/a	n/a	568.0	TrialHappiness	Mixed
189.032	0.26	n/a	1225.247	65.0	3	-3.0	-3.0	10.4925	955.0	1.5	Certain	-7.44	0.1	2.99675	Yes	n/a	7.53680634201586	n/a	n/a	568.0	TrialHappinessSliderResponse	Mixed
193.044	3.987	4.012	1228.559	65.0	3	-3.0	-3.0	10.4925	955.0	1.5	Certain	-7.44	0.1	2.99675	Yes	n/a	7.53680634201586	n/a	n/a	n/a	ISIRate	Mixed
197.056	3.0	0.025	1232.571	66.0	3	0.0	0.0	10.4925	955.0	1.82	Certain	4.7	-5.43	0.0	No	4.0	10.1313703284258	1.827	198.883	n/a	GetAnswer	Gain
198.894	4.0	0.011	1234.409	66.0	3	0.0	0.0	10.4925	955.0	1.82	Certain	4.7	-5.43	0.0	No	n/a	10.1313703284258	n/a	n/a	n/a	ShowChoice	Gain
202.906	1.0	0.012	1238.421	66.0	3	0.0	0.0	10.4925	955.0	1.82	Certain	4.7	-5.43	0.0	No	n/a	10.1313703284258	n/a	n/a	n/a	ShowResult	Gain
203.926	3.959	0.02	1239.441	66.0	3	0.0	0.0	10.4925	955.0	1.82	Certain	4.7	-5.43	0.0	No	n/a	10.1313703284258	n/a	n/a	n/a	ISITrial	Gain
207.905	3.0	0.02	1243.42	67.0	3	7.7	2.0	11.455	955.0	3.16	Outcome1	7.7	-2.87	2.9185	Yes	2.0	10.5696489241223	1.485	209.39	n/a	GetAnswer	Gain
209.409	4.0	0.019	1244.924	67.0	3	7.7	2.0	11.455	955.0	3.16	Outcome1	7.7	-2.87	2.9185	Yes	n/a	10.5696489241223	n/a	n/a	n/a	ShowChoice	Gain
213.421	1.0	0.012	1248.936	67.0	3	7.7	2.0	11.455	955.0	3.16	Outcome1	7.7	-2.87	2.9185	Yes	n/a	10.5696489241223	n/a	n/a	n/a	ShowResult	Gain
214.441	4.199	0.02	1249.956	67.0	3	7.7	2.0	11.455	955.0	3.16	Outcome1	7.7	-2.87	2.9185	Yes	n/a	10.5696489241223	n/a	n/a	n/a	ISITrial	Gain
218.654	2.918	0.014	1254.169	67.0	3	7.7	2.0	11.455	955.0	3.16	Outcome1	7.7	-2.87	2.9185	Yes	n/a	10.5696489241223	n/a	n/a	n/a	TrialHappPreview	Gain
221.596	4.012	0.024	1257.111	67.0	3	7.7	2.0	11.455	955.0	3.16	Outcome1	7.7	-2.87	2.9185	Yes	2{-2}	10.5696489241223	1.36	222.956	688.0	TrialHappiness	Gain
221.596	0.506	n/a	1257.965	67.0	3	7.7	2.0	11.455	955.0	3.16	Outcome1	7.7	-2.87	2.9185	Yes	n/a	10.5696489241223	n/a	n/a	688.0	TrialHappinessSliderResponse	Gain
225.608	3.674	4.012	1261.123	67.0	3	7.7	2.0	11.455	955.0	3.16	Outcome1	7.7	-2.87	2.9185	Yes	n/a	10.5696489241223	n/a	n/a	n/a	ISIRate	Gain
229.302	3.0	0.02	1264.817	68.0	3	8.5	-0.24	12.5175	955.0	1.68	Outcome2	-0.47	8.5	0.0	No	2.0	8.969422423556061	1.661	230.963	n/a	GetAnswer	Gain
230.99	4.0	0.027	1266.505	68.0	3	8.5	-0.24	12.5175	955.0	1.68	Outcome2	-0.47	8.5	0.0	No	n/a	8.969422423556061	n/a	n/a	n/a	ShowChoice	Gain
235.002	1.0	0.012	1270.517	68.0	3	8.5	-0.24	12.5175	955.0	1.68	Outcome2	-0.47	8.5	0.0	No	n/a	8.969422423556061	n/a	n/a	n/a	ShowResult	Gain
236.022	2.185	0.02	1271.537	68.0	3	8.5	-0.24	12.5175	955.0	1.68	Outcome2	-0.47	8.5	0.0	No	n/a	8.969422423556061	n/a	n/a	n/a	ISITrial	Gain
238.229	3.0	0.022	1273.744	69.0	3	0.7	-4.0	12.605	955.0	0.3	Outcome2	-8.57	0.7	0.0	No	2.0	9.2718006795017	1.977	240.206	n/a	GetAnswer	Mixed
240.218	4.0	0.012	1275.733	69.0	3	0.7	-4.0	12.605	955.0	0.3	Outcome2	-8.57	0.7	0.0	No	n/a	9.2718006795017	n/a	n/a	n/a	ShowChoice	Mixed
244.23	1.0	0.012	1279.745	69.0	3	0.7	-4.0	12.605	955.0	0.3	Outcome2	-8.57	0.7	0.0	No	n/a	9.2718006795017	n/a	n/a	n/a	ShowResult	Mixed
245.25	2.0	0.02	1280.765	69.0	3	0.7	-4.0	12.605	955.0	0.3	Outcome2	-8.57	0.7	0.0	No	n/a	9.2718006795017	n/a	n/a	n/a	ISITrial	Mixed
247.272	3.0	0.022	1282.787	70.0	3	-2.0	-2.0	12.355	955.0	2.0	Certain	-7.27	2.3	3.65125	Yes	4.0	9.57417893544734	1.806	249.078	n/a	GetAnswer	Mixed
249.095	4.0	0.017	1284.61	70.0	3	-2.0	-2.0	12.355	955.0	2.0	Certain	-7.27	2.3	3.65125	Yes	n/a	9.57417893544734	n/a	n/a	n/a	ShowChoice	Mixed
253.107	1.0	0.012	1288.622	70.0	3	-2.0	-2.0	12.355	955.0	2.0	Certain	-7.27	2.3	3.65125	Yes	n/a	9.57417893544734	n/a	n/a	n/a	ShowResult	Mixed
254.126	2.623	0.019	1289.641	70.0	3	-2.0	-2.0	12.355	955.0	2.0	Certain	-7.27	2.3	3.65125	Yes	n/a	9.57417893544734	n/a	n/a	n/a	ISITrial	Mixed
256.768	3.651	0.019	1292.283	70.0	3	-2.0	-2.0	12.355	955.0	2.0	Certain	-7.27	2.3	3.65125	Yes	n/a	9.57417893544734	n/a	n/a	n/a	TrialHappPreview	Mixed
260.445	4.012	0.026	1295.96	70.0	3	-2.0	-2.0	12.355	955.0	2.0	Certain	-7.27	2.3	3.65125	Yes	n/a	9.57417893544734	n/a	n/a	672.0	TrialHappiness	Mixed
260.446	0.48	n/a	1296.44	70.0	3	-2.0	-2.0	12.355	955.0	2.0	Certain	-7.27	2.3	3.65125	Yes	n/a	9.57417893544734	n/a	n/a	672.0	TrialHappinessSliderResponse	Mixed
264.457	6.605	4.012	1299.972	70.0	3	-2.0	-2.0	12.355	955.0	2.0	Certain	-7.27	2.3	3.65125	Yes	n/a	9.57417893544734	n/a	n/a	n/a	ISIRate	Mixed
271.094	3.0	0.032	1306.609	71.0	3	2.7	-2.0	12.6925	955.0	0.3	Outcome2	-7.45	2.7	0.0	No	2.0	10.1483578708947	1.998	273.092	n/a	GetAnswer	Mixed
273.116	4.0	0.024	1308.631	71.0	3	2.7	-2.0	12.6925	955.0	0.3	Outcome2	-7.45	2.7	0.0	No	n/a	10.1483578708947	n/a	n/a	n/a	ShowChoice	Mixed
277.128	1.0	0.012	1312.643	71.0	3	2.7	-2.0	12.6925	955.0	0.3	Outcome2	-7.45	2.7	0.0	No	n/a	10.1483578708947	n/a	n/a	n/a	ShowResult	Mixed
278.148	5.499	0.02	1313.663	71.0	3	2.7	-2.0	12.6925	955.0	0.3	Outcome2	-7.45	2.7	0.0	No	n/a	10.1483578708947	n/a	n/a	n/a	ISITrial	Mixed
283.665	3.0	0.018	1319.18	72.0	3	11.08	5.54	14.0775	955.0	1.82	Outcome1	11.08	12.7	3.0805	Yes	2.0	-1.6202340505851298	1.443	285.108	n/a	GetAnswer	Loss
285.136	4.0	0.028	1320.651	72.0	3	11.08	5.54	14.0775	955.0	1.82	Outcome1	11.08	12.7	3.0805	Yes	n/a	-1.6202340505851298	n/a	n/a	n/a	ShowChoice	Loss
289.148	1.0	0.012	1324.663	72.0	3	11.08	5.54	14.0775	955.0	1.82	Outcome1	11.08	12.7	3.0805	Yes	n/a	-1.6202340505851298	n/a	n/a	n/a	ShowResult	Loss
290.167	5.672	0.019	1325.682	72.0	3	11.08	5.54	14.0775	955.0	1.82	Outcome1	11.08	12.7	3.0805	Yes	n/a	-1.6202340505851298	n/a	n/a	n/a	ISITrial	Loss
295.851	3.08	0.012	1331.366	72.0	3	11.08	5.54	14.0775	955.0	1.82	Outcome1	11.08	12.7	3.0805	Yes	n/a	-1.6202340505851298	n/a	n/a	n/a	TrialHappPreview	Loss
298.96	4.012	0.029	1334.475	72.0	3	11.08	5.54	14.0775	955.0	1.82	Outcome1	11.08	12.7	3.0805	Yes	n/a	-1.6202340505851298	n/a	n/a	748.0	TrialHappiness	Loss
298.961	2.977	n/a	1334.956	72.0	3	11.08	5.54	14.0775	955.0	1.82	Outcome1	11.08	12.7	3.0805	Yes	n/a	-1.6202340505851298	n/a	n/a	748.0	TrialHappinessSliderResponse	Loss
302.972	4.322	4.012	1338.487	72.0	3	11.08	5.54	14.0775	955.0	1.82	Outcome1	11.08	12.7	3.0805	Yes	n/a	-1.6202340505851298	n/a	n/a	n/a	ISIRate	Loss
307.319	3.0	0.025	1342.834	73.0	3	1.0	1.0	14.2025	955.0	3.6	Certain	5.9	-3.6	0.0	No	4.0	9.49830124575312	2.013	309.332	n/a	GetAnswer	Gain
309.358	4.0	0.026	1344.873	73.0	3	1.0	1.0	14.2025	955.0	3.6	Certain	5.9	-3.6	0.0	No	n/a	9.49830124575312	n/a	n/a	n/a	ShowChoice	Gain
313.37	1.0	0.012	1348.885	73.0	3	1.0	1.0	14.2025	955.0	3.6	Certain	5.9	-3.6	0.0	No	n/a	9.49830124575312	n/a	n/a	n/a	ShowResult	Gain
314.39	4.616	0.02	1349.905	73.0	3	1.0	1.0	14.2025	955.0	3.6	Certain	5.9	-3.6	0.0	No	n/a	9.49830124575312	n/a	n/a	n/a	ISITrial	Gain
319.037	3.0	0.031	1354.552	74.0	3	9.7	-0.02	15.415	955.0	3.16	Outcome1	9.7	-0.03	3.05625	Yes	2.0	9.73272933182333	1.117	320.154	n/a	GetAnswer	Gain
320.174	4.0	0.02	1355.689	74.0	3	9.7	-0.02	15.415	955.0	3.16	Outcome1	9.7	-0.03	3.05625	Yes	n/a	9.73272933182333	n/a	n/a	n/a	ShowChoice	Gain
324.186	1.0	0.012	1359.701	74.0	3	9.7	-0.02	15.415	955.0	3.16	Outcome1	9.7	-0.03	3.05625	Yes	n/a	9.73272933182333	n/a	n/a	n/a	ShowResult	Gain
325.205	3.909	0.019	1360.72	74.0	3	9.7	-0.02	15.415	955.0	3.16	Outcome1	9.7	-0.03	3.05625	Yes	n/a	9.73272933182333	n/a	n/a	n/a	ISITrial	Gain
329.134	3.056	0.02	1364.649	74.0	3	9.7	-0.02	15.415	955.0	3.16	Outcome1	9.7	-0.03	3.05625	Yes	n/a	9.73272933182333	n/a	n/a	n/a	TrialHappPreview	Gain
332.21	4.012	0.02	1367.725	74.0	3	9.7	-0.02	15.415	955.0	3.16	Outcome1	9.7	-0.03	3.05625	Yes	2{-2}2{-2}4{-4}	9.73272933182333	2.465	334.675	704.0	TrialHappiness	Gain
332.21	1.998	n/a	1368.192	74.0	3	9.7	-0.02	15.415	955.0	3.16	Outcome1	9.7	-0.03	3.05625	Yes	n/a	9.73272933182333	n/a	n/a	704.0	TrialHappinessSliderResponse	Gain
336.222	4.225	4.012	1371.737	74.0	3	9.7	-0.02	15.415	955.0	3.16	Outcome1	9.7	-0.03	3.05625	Yes	n/a	9.73272933182333	n/a	n/a	n/a	ISIRate	Gain
340.468	3.0	0.021	1375.983	75.0	3	11.1	0.2	16.8025	955.0	2.22	Outcome1	11.1	0.39	0.0	No	2.0	10.7146092865232	1.443	341.911	n/a	GetAnswer	Loss
341.922	4.0	0.011	1377.437	75.0	3	11.1	0.2	16.8025	955.0	2.22	Outcome1	11.1	0.39	0.0	No	n/a	10.7146092865232	n/a	n/a	n/a	ShowChoice	Loss
345.934	1.0	0.012	1381.449	75.0	3	11.1	0.2	16.8025	955.0	2.22	Outcome1	11.1	0.39	0.0	No	n/a	10.7146092865232	n/a	n/a	n/a	ShowResult	Loss
346.954	4.979	0.02	1382.469	75.0	3	11.1	0.2	16.8025	955.0	2.22	Outcome1	11.1	0.39	0.0	No	n/a	10.7146092865232	n/a	n/a	n/a	ISITrial	Loss
351.952	3.0	0.019	1387.467	76.0	3	11.7	0.35	18.265	955.0	3.16	Outcome1	11.7	0.7	0.0	No	2.0	10.998867497168698	1.593	353.545	n/a	GetAnswer	Loss
353.557	4.0	0.012	1389.072	76.0	3	11.7	0.35	18.265	955.0	3.16	Outcome1	11.7	0.7	0.0	No	n/a	10.998867497168698	n/a	n/a	n/a	ShowChoice	Loss
357.569	1.0	0.012	1393.084	76.0	3	11.7	0.35	18.265	955.0	3.16	Outcome1	11.7	0.7	0.0	No	n/a	10.998867497168698	n/a	n/a	n/a	ShowResult	Loss
358.589	3.931	0.02	1394.104	76.0	3	11.7	0.35	18.265	955.0	3.16	Outcome1	11.7	0.7	0.0	No	n/a	10.998867497168698	n/a	n/a	n/a	ISITrial	Loss
362.55	3.0	0.03	1398.065	77.0	3	12.1	0.41	19.7775	955.0	4.2	Outcome2	0.82	12.1	4.0	Yes	2.0	11.2831257078143	1.719	364.269	n/a	GetAnswer	Loss
364.289	4.0	0.02	1399.804	77.0	3	12.1	0.41	19.7775	955.0	4.2	Outcome2	0.82	12.1	4.0	Yes	n/a	11.2831257078143	n/a	n/a	n/a	ShowChoice	Loss
368.301	1.0	0.012	1403.816	77.0	3	12.1	0.41	19.7775	955.0	4.2	Outcome2	0.82	12.1	4.0	Yes	n/a	11.2831257078143	n/a	n/a	n/a	ShowResult	Loss
369.321	7.022	0.02	1404.836	77.0	3	12.1	0.41	19.7775	955.0	4.2	Outcome2	0.82	12.1	4.0	Yes	n/a	11.2831257078143	n/a	n/a	n/a	ISITrial	Loss
376.358	4.0	0.015	1411.873	77.0	3	12.1	0.41	19.7775	955.0	4.2	Outcome2	0.82	12.1	4.0	Yes	n/a	11.2831257078143	n/a	n/a	n/a	TrialHappPreview	Loss
380.387	4.012	0.029	1415.902	77.0	3	12.1	0.41	19.7775	955.0	4.2	Outcome2	0.82	12.1	4.0	Yes	n/a	11.2831257078143	n/a	n/a	720.0	TrialHappiness	Loss
380.388	1.18	n/a	1416.318	77.0	3	12.1	0.41	19.7775	955.0	4.2	Outcome2	0.82	12.1	4.0	Yes	n/a	11.2831257078143	n/a	n/a	720.0	TrialHappinessSliderResponse	Loss
384.399	8.0	4.012	1419.914	77.0	3	12.1	0.41	19.7775	955.0	4.2	Outcome2	0.82	12.1	4.0	Yes	n/a	11.2831257078143	n/a	n/a	n/a	ISIRate	Loss
392.423	3.0	0.024	1427.938	78.0	3	-4.0	-4.0	19.2775	955.0	0.66	Certain	1.3	-10.0	0.0	No	4.0	11.295583238958098	1.3	393.723	n/a	GetAnswer	Mixed
393.744	4.0	0.021	1429.259	78.0	3	-4.0	-4.0	19.2775	955.0	0.66	Certain	1.3	-10.0	0.0	No	n/a	11.295583238958098	n/a	n/a	n/a	ShowChoice	Mixed
397.756	1.0	0.012	1433.271	78.0	3	-4.0	-4.0	19.2775	955.0	0.66	Certain	1.3	-10.0	0.0	No	n/a	11.295583238958098	n/a	n/a	n/a	ShowResult	Mixed
398.775	2.078	0.019	1434.29	78.0	3	-4.0	-4.0	19.2775	955.0	0.66	Certain	1.3	-10.0	0.0	No	n/a	11.295583238958098	n/a	n/a	n/a	ISITrial	Mixed
400.882	3.0	0.029	1436.397	79.0	3	10.5	-0.53	20.59	955.0	1.68	Outcome2	-1.06	10.5	2.7295	Yes	2.0	11.5617214043035	1.736	402.618	n/a	GetAnswer	Loss
402.637	4.0	0.019	1438.152	79.0	3	10.5	-0.53	20.59	955.0	1.68	Outcome2	-1.06	10.5	2.7295	Yes	n/a	11.5617214043035	n/a	n/a	n/a	ShowChoice	Loss
406.649	1.0	0.012	1442.164	79.0	3	10.5	-0.53	20.59	955.0	1.68	Outcome2	-1.06	10.5	2.7295	Yes	n/a	11.5617214043035	n/a	n/a	n/a	ShowResult	Loss
407.669	3.829	0.02	1443.184	79.0	3	10.5	-0.53	20.59	955.0	1.68	Outcome2	-1.06	10.5	2.7295	Yes	n/a	11.5617214043035	n/a	n/a	n/a	ISITrial	Loss
411.514	2.73	0.016	1447.029	79.0	3	10.5	-0.53	20.59	955.0	1.68	Outcome2	-1.06	10.5	2.7295	Yes	n/a	11.5617214043035	n/a	n/a	n/a	TrialHappPreview	Loss
414.272	4.012	0.028	1449.787	79.0	3	10.5	-0.53	20.59	955.0	1.68	Outcome2	-1.06	10.5	2.7295	Yes	2{-2}	11.5617214043035	1.276	415.548	792.0	TrialHappiness	Loss
414.272	0.72	n/a	1450.343	79.0	3	10.5	-0.53	20.59	955.0	1.68	Outcome2	-1.06	10.5	2.7295	Yes	n/a	11.5617214043035	n/a	n/a	792.0	TrialHappinessSliderResponse	Loss
418.284	2.918	4.012	1453.799	79.0	3	10.5	-0.53	20.59	955.0	1.68	Outcome2	-1.06	10.5	2.7295	Yes	n/a	11.5617214043035	n/a	n/a	n/a	ISIRate	Loss
421.226	3.0	0.024	1456.741	80.0	3	-2.0	-2.0	20.34	955.0	0.82	Certain	-7.1	3.5	0.0	No	4.0	10.6047565118913	1.661	422.887	n/a	GetAnswer	Mixed
422.898	4.0	0.011	1458.413	80.0	3	-2.0	-2.0	20.34	955.0	0.82	Certain	-7.1	3.5	0.0	No	n/a	10.6047565118913	n/a	n/a	n/a	ShowChoice	Mixed
426.91	1.0	0.012	1462.425	80.0	3	-2.0	-2.0	20.34	955.0	0.82	Certain	-7.1	3.5	0.0	No	n/a	10.6047565118913	n/a	n/a	n/a	ShowResult	Mixed
427.929	3.336	0.019	1463.444	80.0	3	-2.0	-2.0	20.34	955.0	0.82	Certain	-7.1	3.5	0.0	No	n/a	10.6047565118913	n/a	n/a	n/a	ISITrial	Mixed
431.289	3.0	0.024	1466.804	81.0	3	-5.0	-5.0	19.715	955.0	0.2	Certain	0.5	-10.29	3.92375	Yes	4.0	10.7893544733862	1.447	432.736	n/a	GetAnswer	Mixed
432.76	4.0	0.023	1468.275	81.0	3	-5.0	-5.0	19.715	955.0	0.2	Certain	0.5	-10.29	3.92375	Yes	n/a	10.7893544733862	n/a	n/a	n/a	ShowChoice	Mixed
436.772	1.0	0.012	1472.287	81.0	3	-5.0	-5.0	19.715	955.0	0.2	Certain	0.5	-10.29	3.92375	Yes	n/a	10.7893544733862	n/a	n/a	n/a	ShowResult	Mixed
437.792	3.919	0.02	1473.307	81.0	3	-5.0	-5.0	19.715	955.0	0.2	Certain	0.5	-10.29	3.92375	Yes	n/a	10.7893544733862	n/a	n/a	n/a	ISITrial	Mixed
441.737	3.924	0.026	1477.252	81.0	3	-5.0	-5.0	19.715	955.0	0.2	Certain	0.5	-10.29	3.92375	Yes	n/a	10.7893544733862	n/a	n/a	n/a	TrialHappPreview	Mixed
445.682	4.012	0.021	1481.197	81.0	3	-5.0	-5.0	19.715	955.0	0.2	Certain	0.5	-10.29	3.92375	Yes	n/a	10.7893544733862	n/a	n/a	760.0	TrialHappiness	Mixed
445.683	1.364	n/a	1481.662	81.0	3	-5.0	-5.0	19.715	955.0	0.2	Certain	0.5	-10.29	3.92375	Yes	n/a	10.7893544733862	n/a	n/a	760.0	TrialHappinessSliderResponse	Mixed
449.694	7.695	4.012	1485.209	81.0	3	-5.0	-5.0	19.715	955.0	0.2	Certain	0.5	-10.29	3.92375	Yes	n/a	10.7893544733862	n/a	n/a	n/a	ISIRate	Mixed
457.417	3.0	0.028	1492.932	n/a	3	n/a	n/a	n/a	n/a	n/a	n/a	n/a	n/a	n/a	n/a	n/a	n/a	n/a	n/a	n/a	CurrentEarnings	n/a
460.443	-0.001	0.026	1495.958	n/a	3	n/a	n/a	n/a	n/a	n/a	n/a	n/a	n/a	n/a	n/a	{SPACE}	n/a	1.723	462.166	n/a	Goodbye	n/a
