onset	duration	onset_delay	onset_unadjusted	trial_number	block	amount_change	certain_amount	current_amount	mood_target	multiplier	outcome	outcome1_amount	outcome2_amount	question_duration	rating	response	rpe	rt	rt_time	slider_response	trial_phase	trial_type
-46.105	-0.001	0.021	18.018	n/a	0	n/a	n/a	n/a	n/a	n/a	n/a	n/a	n/a	n/a	n/a	{SPACE}	n/a	4.07	-42.035	n/a	Welcome	n/a
-42.009	5.0	0.026	22.114	n/a	0	n/a	n/a	n/a	n/a	n/a	n/a	n/a	n/a	n/a	n/a	n/a	n/a	n/a	n/a	n/a	LifeHappyPreview	n/a
-36.978	1.127	0.031	27.145	n/a	0	n/a	n/a	n/a	n/a	n/a	n/a	n/a	n/a	n/a	n/a	n/a	n/a	n/a	n/a	776.0	LifeHappiness	n/a
-36.977	0.698	n/a	27.575	n/a	0	n/a	n/a	n/a	n/a	n/a	n/a	n/a	n/a	n/a	n/a	n/a	n/a	n/a	n/a	776.0	LifeHappinessSliderResponse	n/a
-19.174	4.0	0.013	44.949	n/a	0	n/a	n/a	n/a	n/a	n/a	n/a	n/a	n/a	n/a	n/a	n/a	n/a	n/a	n/a	n/a	BlockHappyPreview	n/a
-15.162	2.539	0.012	48.961	n/a	0	n/a	n/a	n/a	n/a	n/a	n/a	n/a	n/a	n/a	n/a	n/a	n/a	n/a	n/a	740.0	BlockStartHappiness	n/a
-15.161	2.119	n/a	49.382	n/a	0	n/a	n/a	n/a	n/a	n/a	n/a	n/a	n/a	n/a	n/a	n/a	n/a	n/a	n/a	740.0	BlockStartHappinessSliderResponse	n/a
-4.213	-0.001	0.015	59.91	n/a	0	n/a	n/a	n/a	n/a	n/a	n/a	n/a	n/a	n/a	n/a	5.0	n/a	4.199	-0.014	n/a	ScanWait	n/a
0.0	10.0	0.014	64.123	n/a	1	n/a	n/a	n/a	n/a	n/a	n/a	n/a	n/a	n/a	n/a	n/a	n/a	n/a	n/a	n/a	GetReady	n/a
10.013	3.0	0.013	74.136	1.0	1	0.23	0.0	10.0288	955.0	0.52	Outcome2	1.1	0.23	0.0	No	2.0	-0.872499056247641	1.14	11.153	n/a	GetAnswer	Mixed
11.167	4.0	0.014	75.29	1.0	1	0.23	0.0	10.0288	955.0	0.52	Outcome2	1.1	0.23	0.0	No	n/a	-0.872499056247641	n/a	n/a	n/a	ShowChoice	Mixed
15.179	1.0	0.012	79.302	1.0	1	0.23	0.0	10.0288	955.0	0.52	Outcome2	1.1	0.23	0.0	No	n/a	-0.872499056247641	n/a	n/a	n/a	ShowResult	Mixed
16.199	2.431	0.02	80.322	1.0	1	0.23	0.0	10.0288	955.0	0.52	Outcome2	1.1	0.23	0.0	No	n/a	-0.872499056247641	n/a	n/a	n/a	ISITrial	Mixed
18.656	3.0	0.026	82.779	2.0	1	-3.0	-3.0	9.6538	955.0	0.4	Certain	-5.0	-1.1	0.0	No	4.0	3.89580973952435	2.077	20.733	n/a	GetAnswer	Mixed
20.746	4.0	0.013	84.869	2.0	1	-3.0	-3.0	9.6538	955.0	0.4	Certain	-5.0	-1.1	0.0	No	n/a	3.89580973952435	n/a	n/a	n/a	ShowChoice	Mixed
24.758	1.0	0.012	88.881	2.0	1	-3.0	-3.0	9.6538	955.0	0.4	Certain	-5.0	-1.1	0.0	No	n/a	3.89580973952435	n/a	n/a	n/a	ShowResult	Mixed
25.777	4.568	0.019	89.9	2.0	1	-3.0	-3.0	9.6538	955.0	0.4	Certain	-5.0	-1.1	0.0	No	n/a	3.89580973952435	n/a	n/a	n/a	ISITrial	Mixed
30.375	3.0	0.03	94.498	3.0	1	-2.0	-2.0	9.4038	955.0	0.3	Certain	-2.21	-1.3	2.868	Yes	4.0	-0.9130804077010192	1.542	31.917	n/a	GetAnswer	Mixed
31.929	4.0	0.012	96.052	3.0	1	-2.0	-2.0	9.4038	955.0	0.3	Certain	-2.21	-1.3	2.868	Yes	n/a	-0.9130804077010192	n/a	n/a	n/a	ShowChoice	Mixed
35.941	1.0	0.012	100.064	3.0	1	-2.0	-2.0	9.4038	955.0	0.3	Certain	-2.21	-1.3	2.868	Yes	n/a	-0.9130804077010192	n/a	n/a	n/a	ShowResult	Mixed
36.961	3.243	0.02	101.084	3.0	1	-2.0	-2.0	9.4038	955.0	0.3	Certain	-2.21	-1.3	2.868	Yes	n/a	-0.9130804077010192	n/a	n/a	n/a	ISITrial	Mixed
40.221	2.868	0.017	104.344	3.0	1	-2.0	-2.0	9.4038	955.0	0.3	Certain	-2.21	-1.3	2.868	Yes	n/a	-0.9130804077010192	n/a	n/a	n/a	TrialHappPreview	Mixed
43.113	4.012	0.024	107.236	3.0	1	-2.0	-2.0	9.4038	955.0	0.3	Certain	-2.21	-1.3	2.868	Yes	2{-2}	-0.9130804077010192	0.925	44.038	680.0	TrialHappiness	Mixed
43.113	0.493	n/a	107.668	3.0	1	-2.0	-2.0	9.4038	955.0	0.3	Certain	-2.21	-1.3	2.868	Yes	n/a	-0.9130804077010192	n/a	n/a	680.0	TrialHappinessSliderResponse	Mixed
47.125	3.472	4.012	111.248	3.0	1	-2.0	-2.0	9.4038	955.0	0.3	Certain	-2.21	-1.3	2.868	Yes	n/a	-0.9130804077010192	n/a	n/a	n/a	ISIRate	Mixed
50.619	3.0	0.022	114.742	4.0	1	6.7	0.65	10.2413	955.0	1.82	Outcome2	1.3	6.7	0.0	No	2.0	5.40203850509626	1.046	51.665	n/a	GetAnswer	Gain
51.688	4.0	0.023	115.811	4.0	1	6.7	0.65	10.2413	955.0	1.82	Outcome2	1.3	6.7	0.0	No	n/a	5.40203850509626	n/a	n/a	n/a	ShowChoice	Gain
55.7	1.0	0.012	119.823	4.0	1	6.7	0.65	10.2413	955.0	1.82	Outcome2	1.3	6.7	0.0	No	n/a	5.40203850509626	n/a	n/a	n/a	ShowResult	Gain
56.72	2.011	0.02	120.843	4.0	1	6.7	0.65	10.2413	955.0	1.82	Outcome2	1.3	6.7	0.0	No	n/a	5.40203850509626	n/a	n/a	n/a	ISITrial	Gain
58.76	3.0	0.029	122.883	5.0	1	-4.0	-4.0	9.7413	955.0	0.2	Certain	-1.5	-7.21	2.5825	Yes	4.0	5.713476783691959	2.101	60.861	n/a	GetAnswer	Mixed
60.883	4.0	0.021	125.006	5.0	1	-4.0	-4.0	9.7413	955.0	0.2	Certain	-1.5	-7.21	2.5825	Yes	n/a	5.713476783691959	n/a	n/a	n/a	ShowChoice	Mixed
64.895	1.0	0.012	129.018	5.0	1	-4.0	-4.0	9.7413	955.0	0.2	Certain	-1.5	-7.21	2.5825	Yes	n/a	5.713476783691959	n/a	n/a	n/a	ShowResult	Mixed
65.914	5.129	0.019	130.037	5.0	1	-4.0	-4.0	9.7413	955.0	0.2	Certain	-1.5	-7.21	2.5825	Yes	n/a	5.713476783691959	n/a	n/a	n/a	ISITrial	Mixed
71.063	2.582	0.02	135.186	5.0	1	-4.0	-4.0	9.7413	955.0	0.2	Certain	-1.5	-7.21	2.5825	Yes	n/a	5.713476783691959	n/a	n/a	n/a	TrialHappPreview	Mixed
73.671	4.012	0.026	137.794	5.0	1	-4.0	-4.0	9.7413	955.0	0.2	Certain	-1.5	-7.21	2.5825	Yes	n/a	5.713476783691959	n/a	n/a	552.0	TrialHappiness	Mixed
73.672	1.485	n/a	138.338	5.0	1	-4.0	-4.0	9.7413	955.0	0.2	Certain	-1.5	-7.21	2.5825	Yes	n/a	5.713476783691959	n/a	n/a	552.0	TrialHappinessSliderResponse	Mixed
77.683	2.33	4.012	141.806	5.0	1	-4.0	-4.0	9.7413	955.0	0.2	Certain	-1.5	-7.21	2.5825	Yes	n/a	5.713476783691959	n/a	n/a	n/a	ISIRate	Mixed
80.04	3.0	0.027	144.163	6.0	1	0.95	2.0	9.8601	955.0	0.3	Outcome1	0.95	2.7	0.0	No	2.0	-1.74820687051718	1.126	81.166	n/a	GetAnswer	Mixed
81.194	4.0	0.028	145.317	6.0	1	0.95	2.0	9.8601	955.0	0.3	Outcome1	0.95	2.7	0.0	No	n/a	-1.74820687051718	n/a	n/a	n/a	ShowChoice	Mixed
85.206	1.0	0.012	149.329	6.0	1	0.95	2.0	9.8601	955.0	0.3	Outcome1	0.95	2.7	0.0	No	n/a	-1.74820687051718	n/a	n/a	n/a	ShowResult	Mixed
86.225	6.232	0.019	150.348	6.0	1	0.95	2.0	9.8601	955.0	0.3	Outcome1	0.95	2.7	0.0	No	n/a	-1.74820687051718	n/a	n/a	n/a	ISITrial	Mixed
92.477	3.0	0.02	156.6	7.0	1	4.11	2.06	10.3739	955.0	3.6	Outcome2	5.9	4.11	0.0	No	2.0	-1.78624009060023	1.155	93.632	n/a	GetAnswer	Gain
93.648	4.0	0.016	157.771	7.0	1	4.11	2.06	10.3739	955.0	3.6	Outcome2	5.9	4.11	0.0	No	n/a	-1.78624009060023	n/a	n/a	n/a	ShowChoice	Gain
97.66	1.0	0.012	161.783	7.0	1	4.11	2.06	10.3739	955.0	3.6	Outcome2	5.9	4.11	0.0	No	n/a	-1.78624009060023	n/a	n/a	n/a	ShowResult	Gain
98.679	2.305	0.019	162.802	7.0	1	4.11	2.06	10.3739	955.0	3.6	Outcome2	5.9	4.11	0.0	No	n/a	-1.78624009060023	n/a	n/a	n/a	ISITrial	Gain
101.003	3.0	0.019	165.126	8.0	1	11.28	5.64	11.7839	955.0	2.22	Outcome1	11.28	13.1	3.1125	Yes	2.0	-1.82427331068328	0.989	101.992	n/a	GetAnswer	Loss
102.006	4.0	0.014	166.129	8.0	1	11.28	5.64	11.7839	955.0	2.22	Outcome1	11.28	13.1	3.1125	Yes	n/a	-1.82427331068328	n/a	n/a	n/a	ShowChoice	Loss
106.018	1.0	0.012	170.141	8.0	1	11.28	5.64	11.7839	955.0	2.22	Outcome1	11.28	13.1	3.1125	Yes	n/a	-1.82427331068328	n/a	n/a	n/a	ShowResult	Loss
107.038	3.506	0.02	171.161	8.0	1	11.28	5.64	11.7839	955.0	2.22	Outcome1	11.28	13.1	3.1125	Yes	n/a	-1.82427331068328	n/a	n/a	n/a	ISITrial	Loss
110.565	3.112	0.021	174.688	8.0	1	11.28	5.64	11.7839	955.0	2.22	Outcome1	11.28	13.1	3.1125	Yes	n/a	-1.82427331068328	n/a	n/a	n/a	TrialHappPreview	Loss
113.708	4.012	0.031	177.831	8.0	1	11.28	5.64	11.7839	955.0	2.22	Outcome1	11.28	13.1	3.1125	Yes	n/a	-1.82427331068328	n/a	n/a	664.0	TrialHappiness	Loss
113.708	0.462	n/a	178.461	8.0	1	11.28	5.64	11.7839	955.0	2.22	Outcome1	11.28	13.1	3.1125	Yes	n/a	-1.82427331068328	n/a	n/a	664.0	TrialHappinessSliderResponse	Loss
117.72	4.45	4.012	181.843	8.0	1	11.28	5.64	11.7839	955.0	2.22	Outcome1	11.28	13.1	3.1125	Yes	n/a	-1.82427331068328	n/a	n/a	n/a	ISIRate	Loss
122.2	3.0	0.03	186.323	9.0	1	7.3	-0.18	12.6964	955.0	2.48	Outcome2	-0.37	7.3	0.0	No	2.0	7.66591166477916	2.027	124.227	n/a	GetAnswer	Gain
124.239	4.0	0.012	188.362	9.0	1	7.3	-0.18	12.6964	955.0	2.48	Outcome2	-0.37	7.3	0.0	No	n/a	7.66591166477916	n/a	n/a	n/a	ShowChoice	Gain
128.251	1.0	0.012	192.374	9.0	1	7.3	-0.18	12.6964	955.0	2.48	Outcome2	-0.37	7.3	0.0	No	n/a	7.66591166477916	n/a	n/a	n/a	ShowResult	Gain
129.271	2.0	0.02	193.394	9.0	1	7.3	-0.18	12.6964	955.0	2.48	Outcome2	-0.37	7.3	0.0	No	n/a	7.66591166477916	n/a	n/a	n/a	ISITrial	Gain
131.294	3.0	0.023	195.417	10.0	1	-4.0	-4.0	12.1964	955.0	0.66	Certain	-0.7	-8.7	4.0	Yes	4.0	7.995469988674969	1.878	133.172	n/a	GetAnswer	Mixed
133.183	4.0	0.011	197.306	10.0	1	-4.0	-4.0	12.1964	955.0	0.66	Certain	-0.7	-8.7	4.0	Yes	n/a	7.995469988674969	n/a	n/a	n/a	ShowChoice	Mixed
137.195	1.0	0.012	201.318	10.0	1	-4.0	-4.0	12.1964	955.0	0.66	Certain	-0.7	-8.7	4.0	Yes	n/a	7.995469988674969	n/a	n/a	n/a	ShowResult	Mixed
138.215	2.0	0.02	202.338	10.0	1	-4.0	-4.0	12.1964	955.0	0.66	Certain	-0.7	-8.7	4.0	Yes	n/a	7.995469988674969	n/a	n/a	n/a	ISITrial	Mixed
140.237	4.0	0.022	204.36	10.0	1	-4.0	-4.0	12.1964	955.0	0.66	Certain	-0.7	-8.7	4.0	Yes	n/a	7.995469988674969	n/a	n/a	n/a	TrialHappPreview	Mixed
144.266	4.012	0.029	208.389	10.0	1	-4.0	-4.0	12.1964	955.0	0.66	Certain	-0.7	-8.7	4.0	Yes	n/a	7.995469988674969	n/a	n/a	616.0	TrialHappiness	Mixed
144.267	0.359	n/a	208.823	10.0	1	-4.0	-4.0	12.1964	955.0	0.66	Certain	-0.7	-8.7	4.0	Yes	n/a	7.995469988674969	n/a	n/a	616.0	TrialHappinessSliderResponse	Mixed
148.278	8.0	4.012	212.401	10.0	1	-4.0	-4.0	12.1964	955.0	0.66	Certain	-0.7	-8.7	4.0	Yes	n/a	7.995469988674969	n/a	n/a	n/a	ISIRate	Mixed
156.302	3.0	0.024	220.425	11.0	1	7.84	3.92	13.1764	955.0	2.8	Outcome2	9.5	7.84	0.0	No	2.0	-1.6575122687806698	0.916	157.218	n/a	GetAnswer	Gain
157.238	4.0	0.02	221.361	11.0	1	7.84	3.92	13.1764	955.0	2.8	Outcome2	9.5	7.84	0.0	No	n/a	-1.6575122687806698	n/a	n/a	n/a	ShowChoice	Gain
161.25	1.0	0.012	225.373	11.0	1	7.84	3.92	13.1764	955.0	2.8	Outcome2	9.5	7.84	0.0	No	n/a	-1.6575122687806698	n/a	n/a	n/a	ShowResult	Gain
162.27	3.324	0.02	226.393	11.0	1	7.84	3.92	13.1764	955.0	2.8	Outcome2	9.5	7.84	0.0	No	n/a	-1.6575122687806698	n/a	n/a	n/a	ISITrial	Gain
165.614	3.0	0.02	229.737	12.0	1	9.61	4.8	14.3777	955.0	2.48	Outcome1	9.61	11.3	2.61875	Yes	2.0	-1.68950547376368	0.993	166.607	n/a	GetAnswer	Loss
166.633	4.0	0.026	230.756	12.0	1	9.61	4.8	14.3777	955.0	2.48	Outcome1	9.61	11.3	2.61875	Yes	n/a	-1.68950547376368	n/a	n/a	n/a	ShowChoice	Loss
170.645	1.0	0.012	234.768	12.0	1	9.61	4.8	14.3777	955.0	2.48	Outcome1	9.61	11.3	2.61875	Yes	n/a	-1.68950547376368	n/a	n/a	n/a	ShowResult	Loss
171.665	6.642	0.02	235.788	12.0	1	9.61	4.8	14.3777	955.0	2.48	Outcome1	9.61	11.3	2.61875	Yes	n/a	-1.68950547376368	n/a	n/a	n/a	ISITrial	Loss
178.318	2.619	0.011	242.441	12.0	1	9.61	4.8	14.3777	955.0	2.48	Outcome1	9.61	11.3	2.61875	Yes	n/a	-1.68950547376368	n/a	n/a	n/a	TrialHappPreview	Loss
180.96	4.012	0.023	245.083	12.0	1	9.61	4.8	14.3777	955.0	2.48	Outcome1	9.61	11.3	2.61875	Yes	n/a	-1.68950547376368	n/a	n/a	664.0	TrialHappiness	Loss
180.96	0.454	n/a	245.47	12.0	1	9.61	4.8	14.3777	955.0	2.48	Outcome1	9.61	11.3	2.61875	Yes	n/a	-1.68950547376368	n/a	n/a	664.0	TrialHappinessSliderResponse	Loss
184.972	2.475	4.012	249.095	12.0	1	9.61	4.8	14.3777	955.0	2.48	Outcome1	9.61	11.3	2.61875	Yes	n/a	-1.68950547376368	n/a	n/a	n/a	ISIRate	Loss
187.479	3.0	0.032	251.602	13.0	1	9.9	0.4	15.6152	955.0	3.6	Outcome2	0.81	9.9	0.0	No	2.0	9.09286523216308	1.136	188.615	n/a	GetAnswer	Gain
188.633	4.0	0.018	252.756	13.0	1	9.9	0.4	15.6152	955.0	3.6	Outcome2	0.81	9.9	0.0	No	n/a	9.09286523216308	n/a	n/a	n/a	ShowChoice	Gain
192.645	1.0	0.012	256.768	13.0	1	9.9	0.4	15.6152	955.0	3.6	Outcome2	0.81	9.9	0.0	No	n/a	9.09286523216308	n/a	n/a	n/a	ShowResult	Gain
193.664	3.48	0.019	257.787	13.0	1	9.9	0.4	15.6152	955.0	3.6	Outcome2	0.81	9.9	0.0	No	n/a	9.09286523216308	n/a	n/a	n/a	ISITrial	Gain
197.175	3.0	0.031	261.298	14.0	1	10.9	0.74	16.9777	955.0	2.0	Outcome1	10.9	1.48	0.0	No	2.0	9.422423556058892	1.363	198.538	n/a	GetAnswer	Loss
198.562	4.0	0.024	262.685	14.0	1	10.9	0.74	16.9777	955.0	2.0	Outcome1	10.9	1.48	0.0	No	n/a	9.422423556058892	n/a	n/a	n/a	ShowChoice	Loss
202.574	1.0	0.012	266.697	14.0	1	10.9	0.74	16.9777	955.0	2.0	Outcome1	10.9	1.48	0.0	No	n/a	9.422423556058892	n/a	n/a	n/a	ShowResult	Loss
203.594	5.019	0.02	267.717	14.0	1	10.9	0.74	16.9777	955.0	2.0	Outcome1	10.9	1.48	0.0	No	n/a	9.422423556058892	n/a	n/a	n/a	ISITrial	Loss
208.643	3.0	0.03	272.766	15.0	1	1.0	1.0	17.1027	955.0	5.0	Certain	-3.45	6.3	3.3485	Yes	4.0	9.7519818799547	1.869	210.512	n/a	GetAnswer	Gain
210.532	4.0	0.019	274.655	15.0	1	1.0	1.0	17.1027	955.0	5.0	Certain	-3.45	6.3	3.3485	Yes	n/a	9.7519818799547	n/a	n/a	n/a	ShowChoice	Gain
214.544	1.0	0.012	278.667	15.0	1	1.0	1.0	17.1027	955.0	5.0	Certain	-3.45	6.3	3.3485	Yes	n/a	9.7519818799547	n/a	n/a	n/a	ShowResult	Gain
215.563	7.614	0.019	279.686	15.0	1	1.0	1.0	17.1027	955.0	5.0	Certain	-3.45	6.3	3.3485	Yes	n/a	9.7519818799547	n/a	n/a	n/a	ISITrial	Gain
223.203	3.348	0.026	287.326	15.0	1	1.0	1.0	17.1027	955.0	5.0	Certain	-3.45	6.3	3.3485	Yes	n/a	9.7519818799547	n/a	n/a	n/a	TrialHappPreview	Gain
226.58	4.012	0.029	290.703	15.0	1	1.0	1.0	17.1027	955.0	5.0	Certain	-3.45	6.3	3.3485	Yes	2{-2}4{-4}2{-2}	9.7519818799547	2.849	229.429	656.0	TrialHappiness	Gain
226.58	2.32	n/a	291.232	15.0	1	1.0	1.0	17.1027	955.0	5.0	Certain	-3.45	6.3	3.3485	Yes	n/a	9.7519818799547	n/a	n/a	656.0	TrialHappinessSliderResponse	Gain
230.592	5.394	4.012	294.715	15.0	1	1.0	1.0	17.1027	955.0	5.0	Certain	-3.45	6.3	3.3485	Yes	n/a	9.7519818799547	n/a	n/a	n/a	ISIRate	Gain
236.008	3.0	0.022	300.131	16.0	1	-3.0	-3.0	16.7277	955.0	1.2	Certain	1.9	-8.32	0.0	No	4.0	10.2174405436014	2.1	238.108	n/a	GetAnswer	Mixed
238.131	4.0	0.023	302.254	16.0	1	-3.0	-3.0	16.7277	955.0	1.2	Certain	1.9	-8.32	0.0	No	n/a	10.2174405436014	n/a	n/a	n/a	ShowChoice	Mixed
242.143	1.0	0.012	306.266	16.0	1	-3.0	-3.0	16.7277	955.0	1.2	Certain	1.9	-8.32	0.0	No	n/a	10.2174405436014	n/a	n/a	n/a	ShowResult	Mixed
243.163	3.008	0.02	307.286	16.0	1	-3.0	-3.0	16.7277	955.0	1.2	Certain	1.9	-8.32	0.0	No	n/a	10.2174405436014	n/a	n/a	n/a	ISITrial	Mixed
246.189	3.0	0.018	310.312	17.0	1	12.23	6.12	18.2565	955.0	3.6	Outcome1	12.23	13.9	3.0415	Yes	2.0	-1.6697810494526202	0.919	247.108	n/a	GetAnswer	Loss
247.125	4.0	0.017	311.248	17.0	1	12.23	6.12	18.2565	955.0	3.6	Outcome1	12.23	13.9	3.0415	Yes	n/a	-1.6697810494526202	n/a	n/a	n/a	ShowChoice	Loss
251.137	1.0	0.012	315.26	17.0	1	12.23	6.12	18.2565	955.0	3.6	Outcome1	12.23	13.9	3.0415	Yes	n/a	-1.6697810494526202	n/a	n/a	n/a	ShowResult	Loss
252.156	3.566	0.019	316.279	17.0	1	12.23	6.12	18.2565	955.0	3.6	Outcome1	12.23	13.9	3.0415	Yes	n/a	-1.6697810494526202	n/a	n/a	n/a	ISITrial	Loss
255.734	3.042	0.012	319.857	17.0	1	12.23	6.12	18.2565	955.0	3.6	Outcome1	12.23	13.9	3.0415	Yes	n/a	-1.6697810494526202	n/a	n/a	n/a	TrialHappPreview	Loss
258.793	4.012	0.017	322.916	17.0	1	12.23	6.12	18.2565	955.0	3.6	Outcome1	12.23	13.9	3.0415	Yes	n/a	-1.6697810494526202	n/a	n/a	680.0	TrialHappiness	Loss
258.794	1.04	n/a	323.389	17.0	1	12.23	6.12	18.2565	955.0	3.6	Outcome1	12.23	13.9	3.0415	Yes	n/a	-1.6697810494526202	n/a	n/a	680.0	TrialHappinessSliderResponse	Loss
262.805	4.166	4.012	326.928	17.0	1	12.23	6.12	18.2565	955.0	3.6	Outcome1	12.23	13.9	3.0415	Yes	n/a	-1.6697810494526202	n/a	n/a	n/a	ISIRate	Loss
267.001	3.0	0.03	331.124	18.0	1	0.0	0.0	18.2565	955.0	2.48	Certain	-5.19	5.3	0.0	No	4.0	10.4869762174405	1.745	268.746	n/a	GetAnswer	Gain
268.773	4.0	0.027	332.896	18.0	1	0.0	0.0	18.2565	955.0	2.48	Certain	-5.19	5.3	0.0	No	n/a	10.4869762174405	n/a	n/a	n/a	ShowChoice	Gain
272.785	1.0	0.012	336.908	18.0	1	0.0	0.0	18.2565	955.0	2.48	Certain	-5.19	5.3	0.0	No	n/a	10.4869762174405	n/a	n/a	n/a	ShowResult	Gain
273.805	6.787	0.02	337.928	18.0	1	0.0	0.0	18.2565	955.0	2.48	Certain	-5.19	5.3	0.0	No	n/a	10.4869762174405	n/a	n/a	n/a	ISITrial	Gain
280.608	3.0	0.016	344.731	19.0	1	13.5	1.35	19.944000000000003	955.0	2.8	Outcome2	2.7	13.5	0.0	No	2.0	10.798414496036198	1.131	281.739	n/a	GetAnswer	Loss
281.762	4.0	0.023	345.885	19.0	1	13.5	1.35	19.944000000000003	955.0	2.8	Outcome2	2.7	13.5	0.0	No	n/a	10.798414496036198	n/a	n/a	n/a	ShowChoice	Loss
285.774	1.0	0.012	349.897	19.0	1	13.5	1.35	19.944000000000003	955.0	2.8	Outcome2	2.7	13.5	0.0	No	n/a	10.798414496036198	n/a	n/a	n/a	ShowResult	Loss
286.794	2.0	0.02	350.917	19.0	1	13.5	1.35	19.944000000000003	955.0	2.8	Outcome2	2.7	13.5	0.0	No	n/a	10.798414496036198	n/a	n/a	n/a	ISITrial	Loss
288.816	3.0	0.022	352.939	20.0	1	-2.0	-2.0	19.694000000000003	955.0	0.4	Certain	2.9	-8.21	2.92125	Yes	4.0	11.1098527746319	1.688	290.504	n/a	GetAnswer	Mixed
290.522	4.0	0.018	354.645	20.0	1	-2.0	-2.0	19.694000000000003	955.0	0.4	Certain	2.9	-8.21	2.92125	Yes	n/a	11.1098527746319	n/a	n/a	n/a	ShowChoice	Mixed
294.534	1.0	0.012	358.657	20.0	1	-2.0	-2.0	19.694000000000003	955.0	0.4	Certain	2.9	-8.21	2.92125	Yes	n/a	11.1098527746319	n/a	n/a	n/a	ShowResult	Mixed
295.553	8.0	0.019	359.676	20.0	1	-2.0	-2.0	19.694000000000003	955.0	0.4	Certain	2.9	-8.21	2.92125	Yes	n/a	11.1098527746319	n/a	n/a	n/a	ISITrial	Mixed
303.577	2.921	0.024	367.7	20.0	1	-2.0	-2.0	19.694000000000003	955.0	0.4	Certain	2.9	-8.21	2.92125	Yes	n/a	11.1098527746319	n/a	n/a	n/a	TrialHappPreview	Mixed
306.52	4.012	0.022	370.643	20.0	1	-2.0	-2.0	19.694000000000003	955.0	0.4	Certain	2.9	-8.21	2.92125	Yes	2{-2}4{-4}2{-2}	11.1098527746319	2.949	309.469	712.0	TrialHappiness	Mixed
306.52	2.125	n/a	371.467	20.0	1	-2.0	-2.0	19.694000000000003	955.0	0.4	Certain	2.9	-8.21	2.92125	Yes	n/a	11.1098527746319	n/a	n/a	712.0	TrialHappinessSliderResponse	Mixed
310.532	3.685	4.012	374.655	20.0	1	-2.0	-2.0	19.694000000000003	955.0	0.4	Certain	2.9	-8.21	2.92125	Yes	n/a	11.1098527746319	n/a	n/a	n/a	ISIRate	Mixed
314.243	3.0	0.026	378.366	21.0	1	-0.59	-0.59	19.6202	955.0	3.16	Certain	-1.18	9.7	0.0	No	4.0	10.8776896942242	1.899	316.142	n/a	GetAnswer	Gain
316.165	4.0	0.023	380.288	21.0	1	-0.59	-0.59	19.6202	955.0	3.16	Certain	-1.18	9.7	0.0	No	n/a	10.8776896942242	n/a	n/a	n/a	ShowChoice	Gain
320.177	1.0	0.012	384.3	21.0	1	-0.59	-0.59	19.6202	955.0	3.16	Certain	-1.18	9.7	0.0	No	n/a	10.8776896942242	n/a	n/a	n/a	ShowResult	Gain
321.197	3.555	0.02	385.32	21.0	1	-0.59	-0.59	19.6202	955.0	3.16	Certain	-1.18	9.7	0.0	No	n/a	10.8776896942242	n/a	n/a	n/a	ISITrial	Gain
324.774	3.0	0.022	388.897	22.0	1	10.33	5.16	20.9114	955.0	3.6	Outcome1	10.33	11.9	3.2195	Yes	2.0	-1.57153642884107	0.843	325.617	n/a	GetAnswer	Loss
325.644	4.0	0.027	389.767	22.0	1	10.33	5.16	20.9114	955.0	3.6	Outcome1	10.33	11.9	3.2195	Yes	n/a	-1.57153642884107	n/a	n/a	n/a	ShowChoice	Loss
329.656	1.0	0.012	393.779	22.0	1	10.33	5.16	20.9114	955.0	3.6	Outcome1	10.33	11.9	3.2195	Yes	n/a	-1.57153642884107	n/a	n/a	n/a	ShowResult	Loss
330.675	6.793	0.019	394.798	22.0	1	10.33	5.16	20.9114	955.0	3.6	Outcome1	10.33	11.9	3.2195	Yes	n/a	-1.57153642884107	n/a	n/a	n/a	ISITrial	Loss
337.479	3.22	0.011	401.602	22.0	1	10.33	5.16	20.9114	955.0	3.6	Outcome1	10.33	11.9	3.2195	Yes	n/a	-1.57153642884107	n/a	n/a	n/a	TrialHappPreview	Loss
340.722	4.012	0.023	404.845	22.0	1	10.33	5.16	20.9114	955.0	3.6	Outcome1	10.33	11.9	3.2195	Yes	n/a	-1.57153642884107	n/a	n/a	688.0	TrialHappiness	Loss
340.723	1.578	n/a	405.315	22.0	1	10.33	5.16	20.9114	955.0	3.6	Outcome1	10.33	11.9	3.2195	Yes	n/a	-1.57153642884107	n/a	n/a	688.0	TrialHappinessSliderResponse	Loss
344.734	4.878	4.012	408.857	22.0	1	10.33	5.16	20.9114	955.0	3.6	Outcome1	10.33	11.9	3.2195	Yes	n/a	-1.57153642884107	n/a	n/a	n/a	ISIRate	Loss
349.632	3.0	0.02	413.755	23.0	1	0.81	1.0	21.0127	955.0	0.2	Outcome2	2.5	0.81	0.0	No	2.0	-1.69186485466214	0.982	350.614	n/a	GetAnswer	Mixed
350.635	4.0	0.021	414.758	23.0	1	0.81	1.0	21.0127	955.0	0.2	Outcome2	2.5	0.81	0.0	No	n/a	-1.69186485466214	n/a	n/a	n/a	ShowChoice	Mixed
354.647	1.0	0.012	418.77	23.0	1	0.81	1.0	21.0127	955.0	0.2	Outcome2	2.5	0.81	0.0	No	n/a	-1.69186485466214	n/a	n/a	n/a	ShowResult	Mixed
355.667	8.0	0.02	419.79	23.0	1	0.81	1.0	21.0127	955.0	0.2	Outcome2	2.5	0.81	0.0	No	n/a	-1.69186485466214	n/a	n/a	n/a	ISITrial	Mixed
363.691	3.0	0.024	427.814	24.0	1	2.0	2.0	21.2627	955.0	1.68	Certain	-3.64	8.5	3.255	Yes	4.0	12.138165345413402	1.529	365.22	n/a	GetAnswer	Gain
365.246	4.0	0.025	429.369	24.0	1	2.0	2.0	21.2627	955.0	1.68	Certain	-3.64	8.5	3.255	Yes	n/a	12.138165345413402	n/a	n/a	n/a	ShowChoice	Gain
369.258	1.0	0.012	433.381	24.0	1	2.0	2.0	21.2627	955.0	1.68	Certain	-3.64	8.5	3.255	Yes	n/a	12.138165345413402	n/a	n/a	n/a	ShowResult	Gain
370.277	2.0	0.019	434.4	24.0	1	2.0	2.0	21.2627	955.0	1.68	Certain	-3.64	8.5	3.255	Yes	n/a	12.138165345413402	n/a	n/a	n/a	ISITrial	Gain
372.3	3.255	0.023	436.423	24.0	1	2.0	2.0	21.2627	955.0	1.68	Certain	-3.64	8.5	3.255	Yes	n/a	12.138165345413402	n/a	n/a	n/a	TrialHappPreview	Gain
375.577	4.012	0.022	439.7	24.0	1	2.0	2.0	21.2627	955.0	1.68	Certain	-3.64	8.5	3.255	Yes	n/a	12.138165345413402	n/a	n/a	752.0	TrialHappiness	Gain
375.577	1.991	n/a	440.14	24.0	1	2.0	2.0	21.2627	955.0	1.68	Certain	-3.64	8.5	3.255	Yes	n/a	12.138165345413402	n/a	n/a	752.0	TrialHappinessSliderResponse	Gain
379.589	5.02	4.012	443.712	24.0	1	2.0	2.0	21.2627	955.0	1.68	Certain	-3.64	8.5	3.255	Yes	n/a	12.138165345413402	n/a	n/a	n/a	ISIRate	Gain
384.637	3.0	0.028	448.76	25.0	1	1.0	1.0	21.3877	955.0	2.0	Certain	6.9	-4.45	0.0	No	4.0	11.353340883352198	1.305	385.942	n/a	GetAnswer	Gain
385.958	4.0	0.016	450.081	25.0	1	1.0	1.0	21.3877	955.0	2.0	Certain	6.9	-4.45	0.0	No	n/a	11.353340883352198	n/a	n/a	n/a	ShowChoice	Gain
389.97	1.0	0.012	454.093	25.0	1	1.0	1.0	21.3877	955.0	2.0	Certain	6.9	-4.45	0.0	No	n/a	11.353340883352198	n/a	n/a	n/a	ShowResult	Gain
390.99	3.749	0.02	455.113	25.0	1	1.0	1.0	21.3877	955.0	2.0	Certain	6.9	-4.45	0.0	No	n/a	11.353340883352198	n/a	n/a	n/a	ISITrial	Gain
394.768	3.0	0.029	458.891	26.0	1	-5.0	-5.0	20.7627	955.0	0.3	Certain	0.7	-10.88	0.0	No	4.0	11.5832389580974	2.055	396.823	n/a	GetAnswer	Mixed
396.841	4.0	0.018	460.964	26.0	1	-5.0	-5.0	20.7627	955.0	0.3	Certain	0.7	-10.88	0.0	No	n/a	11.5832389580974	n/a	n/a	n/a	ShowChoice	Mixed
400.853	1.0	0.012	464.976	26.0	1	-5.0	-5.0	20.7627	955.0	0.3	Certain	0.7	-10.88	0.0	No	n/a	11.5832389580974	n/a	n/a	n/a	ShowResult	Mixed
401.872	7.834	0.019	465.995	26.0	1	-5.0	-5.0	20.7627	955.0	0.3	Certain	0.7	-10.88	0.0	No	n/a	11.5832389580974	n/a	n/a	n/a	ISITrial	Mixed
409.729	3.0	0.023	473.852	27.0	1	-5.0	-5.0	20.1377	955.0	2.0	Certain	-11.51	0.3	2.54975	Yes	4.0	11.8131370328426	1.628	411.357	n/a	GetAnswer	Mixed
411.367	4.0	0.01	475.49	27.0	1	-5.0	-5.0	20.1377	955.0	2.0	Certain	-11.51	0.3	2.54975	Yes	n/a	11.8131370328426	n/a	n/a	n/a	ShowChoice	Mixed
415.379	1.0	0.012	479.502	27.0	1	-5.0	-5.0	20.1377	955.0	2.0	Certain	-11.51	0.3	2.54975	Yes	n/a	11.8131370328426	n/a	n/a	n/a	ShowResult	Mixed
416.399	4.225	0.02	480.522	27.0	1	-5.0	-5.0	20.1377	955.0	2.0	Certain	-11.51	0.3	2.54975	Yes	n/a	11.8131370328426	n/a	n/a	n/a	ISITrial	Mixed
420.645	2.55	0.021	484.768	27.0	1	-5.0	-5.0	20.1377	955.0	2.0	Certain	-11.51	0.3	2.54975	Yes	n/a	11.8131370328426	n/a	n/a	n/a	TrialHappPreview	Mixed
423.22	4.012	0.025	487.343	27.0	1	-5.0	-5.0	20.1377	955.0	2.0	Certain	-11.51	0.3	2.54975	Yes	n/a	11.8131370328426	n/a	n/a	628.0	TrialHappiness	Mixed
423.22	1.205	n/a	487.763	27.0	1	-5.0	-5.0	20.1377	955.0	2.0	Certain	-11.51	0.3	2.54975	Yes	n/a	11.8131370328426	n/a	n/a	628.0	TrialHappinessSliderResponse	Mixed
427.232	2.199	4.012	491.355	27.0	1	-5.0	-5.0	20.1377	955.0	2.0	Certain	-11.51	0.3	2.54975	Yes	n/a	11.8131370328426	n/a	n/a	n/a	ISIRate	Mixed
464.795	0.327	n/a	529.384	n/a	1	n/a	n/a	n/a	n/a	n/a	n/a	n/a	n/a	n/a	n/a	n/a	n/a	n/a	n/a	600.0	BlockStartHappinessSliderResponse	n/a
-48.445	-0.001	0.024	493.578	n/a	2	n/a	n/a	n/a	n/a	n/a	n/a	n/a	n/a	n/a	n/a	{SPACE}	n/a	31.303	-17.142	n/a	Rest	n/a
-17.118	4.0	0.024	524.905	n/a	2	n/a	n/a	n/a	n/a	n/a	n/a	n/a	n/a	n/a	n/a	n/a	n/a	n/a	n/a	n/a	BlockHappyPreview	n/a
-13.106	0.793	0.012	528.917	n/a	2	n/a	n/a	n/a	n/a	n/a	n/a	n/a	n/a	n/a	n/a	n/a	n/a	n/a	n/a	600.0	BlockStartHappiness	n/a
-4.931	-0.001	0.019	537.092	n/a	2	n/a	n/a	n/a	n/a	n/a	n/a	n/a	n/a	n/a	n/a	5.0	n/a	4.913	-0.018	n/a	ScanWait	n/a
0.0	10.0	0.018	542.023	n/a	2	n/a	n/a	n/a	n/a	n/a	n/a	n/a	n/a	n/a	n/a	n/a	n/a	n/a	n/a	n/a	GetReady	n/a
10.014	3.0	0.014	552.037	28.0	2	0.0	0.0	20.1377	70.0	0.82	Certain	-1.77	0.38	0.0	No	4.0	2.15325018896447	1.506	11.52	n/a	GetAnswer	Mixed
11.535	4.0	0.015	553.558	28.0	2	0.0	0.0	20.1377	70.0	0.82	Certain	-1.77	0.38	0.0	No	n/a	2.15325018896447	n/a	n/a	n/a	ShowChoice	Mixed
15.547	1.0	0.012	557.57	28.0	2	0.0	0.0	20.1377	70.0	0.82	Certain	-1.77	0.38	0.0	No	n/a	2.15325018896447	n/a	n/a	n/a	ShowResult	Mixed
16.567	3.575	0.02	558.59	28.0	2	0.0	0.0	20.1377	70.0	0.82	Certain	-1.77	0.38	0.0	No	n/a	2.15325018896447	n/a	n/a	n/a	ISITrial	Mixed
20.161	3.0	0.019	562.184	29.0	2	0.0	0.0	20.1377	70.0	2.8	Certain	1.38	-0.82	3.529	Yes	4.0	2.20332577475435	1.314	21.475	n/a	GetAnswer	Gain
21.498	4.0	0.023	563.521	29.0	2	0.0	0.0	20.1377	70.0	2.8	Certain	1.38	-0.82	3.529	Yes	n/a	2.20332577475435	n/a	n/a	n/a	ShowChoice	Gain
25.51	1.0	0.012	567.533	29.0	2	0.0	0.0	20.1377	70.0	2.8	Certain	1.38	-0.82	3.529	Yes	n/a	2.20332577475435	n/a	n/a	n/a	ShowResult	Gain
26.53	3.955	0.02	568.553	29.0	2	0.0	0.0	20.1377	70.0	2.8	Certain	1.38	-0.82	3.529	Yes	n/a	2.20332577475435	n/a	n/a	n/a	ISITrial	Gain
30.509	3.529	0.024	572.532	29.0	2	0.0	0.0	20.1377	70.0	2.8	Certain	1.38	-0.82	3.529	Yes	n/a	2.20332577475435	n/a	n/a	n/a	TrialHappPreview	Gain
34.052	4.013	0.014	576.075	29.0	2	0.0	0.0	20.1377	70.0	2.8	Certain	1.38	-0.82	3.529	Yes	n/a	2.20332577475435	n/a	n/a	540.0	TrialHappiness	Gain
34.053	1.792	n/a	576.582	29.0	2	0.0	0.0	20.1377	70.0	2.8	Certain	1.38	-0.82	3.529	Yes	n/a	2.20332577475435	n/a	n/a	540.0	TrialHappinessSliderResponse	Gain
38.065	6.116	4.013	580.088	29.0	2	0.0	0.0	20.1377	70.0	2.8	Certain	1.38	-0.82	3.529	Yes	n/a	2.20332577475435	n/a	n/a	n/a	ISIRate	Gain
44.2	3.0	0.019	586.223	30.0	2	0.0	0.0	20.1377	70.0	2.22	Certain	-4.1	5.1	0.0	No	4.0	-9.19501133786848	1.334	45.534	n/a	GetAnswer	Gain
45.554	4.0	0.02	587.577	30.0	2	0.0	0.0	20.1377	70.0	2.22	Certain	-4.1	5.1	0.0	No	n/a	-9.19501133786848	n/a	n/a	n/a	ShowChoice	Gain
49.566	1.0	0.012	591.589	30.0	2	0.0	0.0	20.1377	70.0	2.22	Certain	-4.1	5.1	0.0	No	n/a	-9.19501133786848	n/a	n/a	n/a	ShowResult	Gain
50.585	4.453	0.019	592.608	30.0	2	0.0	0.0	20.1377	70.0	2.22	Certain	-4.1	5.1	0.0	No	n/a	-9.19501133786848	n/a	n/a	n/a	ISITrial	Gain
55.066	3.0	0.028	597.089	31.0	2	-5.0	-5.0	19.5127	70.0	1.2	Certain	-0.1	-9.83	2.50325	Yes	4.0	-9.72789115646258	2.23	57.296	n/a	GetAnswer	Mixed
57.322	4.0	0.026	599.345	31.0	2	-5.0	-5.0	19.5127	70.0	1.2	Certain	-0.1	-9.83	2.50325	Yes	n/a	-9.72789115646258	n/a	n/a	n/a	ShowChoice	Mixed
61.334	1.0	0.012	603.357	31.0	2	-5.0	-5.0	19.5127	70.0	1.2	Certain	-0.1	-9.83	2.50325	Yes	n/a	-9.72789115646258	n/a	n/a	n/a	ShowResult	Mixed
62.354	4.786	0.02	604.377	31.0	2	-5.0	-5.0	19.5127	70.0	1.2	Certain	-0.1	-9.83	2.50325	Yes	n/a	-9.72789115646258	n/a	n/a	n/a	ISITrial	Mixed
67.152	2.503	0.012	609.175	31.0	2	-5.0	-5.0	19.5127	70.0	1.2	Certain	-0.1	-9.83	2.50325	Yes	n/a	-9.72789115646258	n/a	n/a	n/a	TrialHappPreview	Mixed
69.676	4.012	0.021	611.699	31.0	2	-5.0	-5.0	19.5127	70.0	1.2	Certain	-0.1	-9.83	2.50325	Yes	n/a	-9.72789115646258	n/a	n/a	536.0	TrialHappiness	Mixed
69.677	0.193	n/a	612.033	31.0	2	-5.0	-5.0	19.5127	70.0	1.2	Certain	-0.1	-9.83	2.50325	Yes	n/a	-9.72789115646258	n/a	n/a	536.0	TrialHappinessSliderResponse	Mixed
73.688	2.013	4.012	615.711	31.0	2	-5.0	-5.0	19.5127	70.0	1.2	Certain	-0.1	-9.83	2.50325	Yes	n/a	-9.72789115646258	n/a	n/a	n/a	ISIRate	Mixed
75.728	3.0	0.027	617.751	32.0	2	-1.09	-0.55	19.3765	70.0	2.22	Outcome2	9.1	-1.09	0.0	No	2.0	-10.1927437641723	1.654	77.382	n/a	GetAnswer	Gain
77.399	4.0	0.017	619.422	32.0	2	-1.09	-0.55	19.3765	70.0	2.22	Outcome2	9.1	-1.09	0.0	No	n/a	-10.1927437641723	n/a	n/a	n/a	ShowChoice	Gain
81.411	1.0	0.012	623.434	32.0	2	-1.09	-0.55	19.3765	70.0	2.22	Outcome2	9.1	-1.09	0.0	No	n/a	-10.1927437641723	n/a	n/a	n/a	ShowResult	Gain
82.431	2.0	0.02	624.454	32.0	2	-1.09	-0.55	19.3765	70.0	2.22	Outcome2	9.1	-1.09	0.0	No	n/a	-10.1927437641723	n/a	n/a	n/a	ISITrial	Gain
84.454	3.0	0.023	626.477	33.0	2	-1.0	-1.0	19.2515	70.0	2.0	Certain	4.3	-6.42	0.0	No	4.0	-10.7210884353741	2.309	86.763	n/a	GetAnswer	Mixed
86.777	4.0	0.014	628.8	33.0	2	-1.0	-1.0	19.2515	70.0	2.0	Certain	4.3	-6.42	0.0	No	n/a	-10.7210884353741	n/a	n/a	n/a	ShowChoice	Mixed
90.789	1.0	0.012	632.812	33.0	2	-1.0	-1.0	19.2515	70.0	2.0	Certain	4.3	-6.42	0.0	No	n/a	-10.7210884353741	n/a	n/a	n/a	ShowResult	Mixed
91.809	5.099	0.02	633.832	33.0	2	-1.0	-1.0	19.2515	70.0	2.0	Certain	4.3	-6.42	0.0	No	n/a	-10.7210884353741	n/a	n/a	n/a	ISITrial	Mixed
96.924	3.0	0.016	638.947	34.0	2	2.45	1.23	19.5577	70.0	3.16	Outcome1	2.45	13.7	3.2315	Yes	2.0	-11.249433106576	0.749	97.673	n/a	GetAnswer	Loss
97.693	4.0	0.02	639.716	34.0	2	2.45	1.23	19.5577	70.0	3.16	Outcome1	2.45	13.7	3.2315	Yes	n/a	-11.249433106576	n/a	n/a	n/a	ShowChoice	Loss
101.705	1.0	0.012	643.728	34.0	2	2.45	1.23	19.5577	70.0	3.16	Outcome1	2.45	13.7	3.2315	Yes	n/a	-11.249433106576	n/a	n/a	n/a	ShowResult	Loss
102.725	4.784	0.02	644.748	34.0	2	2.45	1.23	19.5577	70.0	3.16	Outcome1	2.45	13.7	3.2315	Yes	n/a	-11.249433106576	n/a	n/a	n/a	ISITrial	Loss
107.523	3.232	0.014	649.546	34.0	2	2.45	1.23	19.5577	70.0	3.16	Outcome1	2.45	13.7	3.2315	Yes	n/a	-11.249433106576	n/a	n/a	n/a	TrialHappPreview	Loss
110.783	4.012	0.028	652.806	34.0	2	2.45	1.23	19.5577	70.0	3.16	Outcome1	2.45	13.7	3.2315	Yes	n/a	-11.249433106576	n/a	n/a	512.0	TrialHappiness	Loss
110.783	0.0	n/a	652.806	34.0	2	2.45	1.23	19.5577	70.0	3.16	Outcome1	2.45	13.7	3.2315	Yes	n/a	-11.249433106576	n/a	n/a	512.0	TrialHappinessSliderResponse	Loss
114.795	4.926	4.012	656.818	34.0	2	2.45	1.23	19.5577	70.0	3.16	Outcome1	2.45	13.7	3.2315	Yes	n/a	-11.249433106576	n/a	n/a	n/a	ISIRate	Loss
119.743	3.0	0.022	661.766	35.0	2	2.0	2.0	19.8077	70.0	3.6	Certain	-3.47	7.9	0.0	No	4.0	-11.3696145124717	1.56	121.303	n/a	GetAnswer	Gain
121.314	4.0	0.011	663.337	35.0	2	2.0	2.0	19.8077	70.0	3.6	Certain	-3.47	7.9	0.0	No	n/a	-11.3696145124717	n/a	n/a	n/a	ShowChoice	Gain
125.326	1.0	0.012	667.349	35.0	2	2.0	2.0	19.8077	70.0	3.6	Certain	-3.47	7.9	0.0	No	n/a	-11.3696145124717	n/a	n/a	n/a	ShowResult	Gain
126.346	2.098	0.02	668.369	35.0	2	2.0	2.0	19.8077	70.0	3.6	Certain	-3.47	7.9	0.0	No	n/a	-11.3696145124717	n/a	n/a	n/a	ISITrial	Gain
128.469	3.0	0.025	670.492	36.0	2	1.0	1.0	19.9327	70.0	4.2	Certain	2.02	-0.14	3.33575	Yes	4.0	2.15854119425548	1.66	130.129	n/a	GetAnswer	Gain
130.141	4.0	0.012	672.164	36.0	2	1.0	1.0	19.9327	70.0	4.2	Certain	2.02	-0.14	3.33575	Yes	n/a	2.15854119425548	n/a	n/a	n/a	ShowChoice	Gain
134.153	1.0	0.012	676.176	36.0	2	1.0	1.0	19.9327	70.0	4.2	Certain	2.02	-0.14	3.33575	Yes	n/a	2.15854119425548	n/a	n/a	n/a	ShowResult	Gain
135.172	5.156	0.019	677.195	36.0	2	1.0	1.0	19.9327	70.0	4.2	Certain	2.02	-0.14	3.33575	Yes	n/a	2.15854119425548	n/a	n/a	n/a	ISITrial	Gain
140.355	3.336	0.027	682.378	36.0	2	1.0	1.0	19.9327	70.0	4.2	Certain	2.02	-0.14	3.33575	Yes	n/a	2.15854119425548	n/a	n/a	n/a	TrialHappPreview	Gain
143.715	4.012	0.024	685.738	36.0	2	1.0	1.0	19.9327	70.0	4.2	Certain	2.02	-0.14	3.33575	Yes	n/a	2.15854119425548	n/a	n/a	556.0	TrialHappiness	Gain
143.715	0.979	n/a	686.198	36.0	2	1.0	1.0	19.9327	70.0	4.2	Certain	2.02	-0.14	3.33575	Yes	n/a	2.15854119425548	n/a	n/a	556.0	TrialHappinessSliderResponse	Gain
147.727	5.343	4.012	689.75	36.0	2	1.0	1.0	19.9327	70.0	4.2	Certain	2.02	-0.14	3.33575	Yes	n/a	2.15854119425548	n/a	n/a	n/a	ISIRate	Gain
153.093	3.0	0.023	695.116	37.0	2	-1.42	-0.71	19.7552	70.0	3.16	Outcome2	11.7	-1.42	0.0	No	2.0	-13.120181405895698	2.619	155.712	n/a	GetAnswer	Loss
155.734	4.0	0.022	697.757	37.0	2	-1.42	-0.71	19.7552	70.0	3.16	Outcome2	11.7	-1.42	0.0	No	n/a	-13.120181405895698	n/a	n/a	n/a	ShowChoice	Loss
159.746	1.0	0.012	701.769	37.0	2	-1.42	-0.71	19.7552	70.0	3.16	Outcome2	11.7	-1.42	0.0	No	n/a	-13.120181405895698	n/a	n/a	n/a	ShowResult	Loss
160.766	3.598	0.02	702.789	37.0	2	-1.42	-0.71	19.7552	70.0	3.16	Outcome2	11.7	-1.42	0.0	No	n/a	-13.120181405895698	n/a	n/a	n/a	ISITrial	Loss
164.393	3.0	0.029	706.416	38.0	2	-7.97	-1.0	18.759	70.0	3.16	Outcome1	-7.97	5.7	0.0	No	2.0	-13.671201814059	1.75	166.143	n/a	GetAnswer	Gain
166.165	4.0	0.022	708.188	38.0	2	-7.97	-1.0	18.759	70.0	3.16	Outcome1	-7.97	5.7	0.0	No	n/a	-13.671201814059	n/a	n/a	n/a	ShowChoice	Gain
170.178	1.0	0.013	712.201	38.0	2	-7.97	-1.0	18.759	70.0	3.16	Outcome1	-7.97	5.7	0.0	No	n/a	-13.671201814059	n/a	n/a	n/a	ShowResult	Gain
171.197	4.787	0.019	713.22	38.0	2	-7.97	-1.0	18.759	70.0	3.16	Outcome1	-7.97	5.7	0.0	No	n/a	-13.671201814059	n/a	n/a	n/a	ISITrial	Gain
176.012	3.0	0.028	718.035	39.0	2	-3.72	-1.86	18.294	70.0	1.68	Outcome2	10.5	-3.72	2.86425	Yes	2.0	-14.2222222222222	2.117	178.129	n/a	GetAnswer	Loss
178.151	4.0	0.022	720.174	39.0	2	-3.72	-1.86	18.294	70.0	1.68	Outcome2	10.5	-3.72	2.86425	Yes	n/a	-14.2222222222222	n/a	n/a	n/a	ShowChoice	Loss
182.163	1.0	0.012	724.186	39.0	2	-3.72	-1.86	18.294	70.0	1.68	Outcome2	10.5	-3.72	2.86425	Yes	n/a	-14.2222222222222	n/a	n/a	n/a	ShowResult	Loss
183.183	2.348	0.02	725.206	39.0	2	-3.72	-1.86	18.294	70.0	1.68	Outcome2	10.5	-3.72	2.86425	Yes	n/a	-14.2222222222222	n/a	n/a	n/a	ISITrial	Loss
185.557	2.864	0.026	727.58	39.0	2	-3.72	-1.86	18.294	70.0	1.68	Outcome2	10.5	-3.72	2.86425	Yes	n/a	-14.2222222222222	n/a	n/a	n/a	TrialHappPreview	Loss
188.449	4.012	0.028	730.472	39.0	2	-3.72	-1.86	18.294	70.0	1.68	Outcome2	10.5	-3.72	2.86425	Yes	n/a	-14.2222222222222	n/a	n/a	512.0	TrialHappiness	Loss
188.45	0.0	n/a	730.473	39.0	2	-3.72	-1.86	18.294	70.0	1.68	Outcome2	10.5	-3.72	2.86425	Yes	n/a	-14.2222222222222	n/a	n/a	512.0	TrialHappinessSliderResponse	Loss
192.461	3.457	4.012	734.484	39.0	2	-3.72	-1.86	18.294	70.0	1.68	Outcome2	10.5	-3.72	2.86425	Yes	n/a	-14.2222222222222	n/a	n/a	n/a	ISIRate	Loss
195.938	3.0	0.02	737.961	40.0	2	1.0	1.0	18.419	70.0	2.0	Certain	2.22	-0.12	0.0	No	4.0	2.3380574452003	1.296	197.234	n/a	GetAnswer	Gain
197.259	4.0	0.025	739.282	40.0	2	1.0	1.0	18.419	70.0	2.0	Certain	2.22	-0.12	0.0	No	n/a	2.3380574452003	n/a	n/a	n/a	ShowChoice	Gain
201.271	1.0	0.012	743.294	40.0	2	1.0	1.0	18.419	70.0	2.0	Certain	2.22	-0.12	0.0	No	n/a	2.3380574452003	n/a	n/a	n/a	ShowResult	Gain
202.291	3.158	0.02	744.314	40.0	2	1.0	1.0	18.419	70.0	2.0	Certain	2.22	-0.12	0.0	No	n/a	2.3380574452003	n/a	n/a	n/a	ISITrial	Gain
205.467	3.0	0.018	747.49	41.0	2	2.0	2.0	18.669	70.0	2.48	Certain	9.3	-5.23	4.0	Yes	4.0	-14.5260770975057	1.041	206.508	n/a	GetAnswer	Gain
206.52	4.0	0.012	748.543	41.0	2	2.0	2.0	18.669	70.0	2.48	Certain	9.3	-5.23	4.0	Yes	n/a	-14.5260770975057	n/a	n/a	n/a	ShowChoice	Gain
210.532	1.0	0.012	752.555	41.0	2	2.0	2.0	18.669	70.0	2.48	Certain	9.3	-5.23	4.0	Yes	n/a	-14.5260770975057	n/a	n/a	n/a	ShowResult	Gain
211.552	4.506	0.02	753.575	41.0	2	2.0	2.0	18.669	70.0	2.48	Certain	9.3	-5.23	4.0	Yes	n/a	-14.5260770975057	n/a	n/a	n/a	ISITrial	Gain
216.082	4.0	0.024	758.105	41.0	2	2.0	2.0	18.669	70.0	2.48	Certain	9.3	-5.23	4.0	Yes	n/a	-14.5260770975057	n/a	n/a	n/a	TrialHappPreview	Gain
220.111	4.012	0.029	762.134	41.0	2	2.0	2.0	18.669	70.0	2.48	Certain	9.3	-5.23	4.0	Yes	n/a	-14.5260770975057	n/a	n/a	512.0	TrialHappiness	Gain
220.111	0.0	n/a	762.134	41.0	2	2.0	2.0	18.669	70.0	2.48	Certain	9.3	-5.23	4.0	Yes	n/a	-14.5260770975057	n/a	n/a	512.0	TrialHappinessSliderResponse	Gain
224.123	8.0	4.012	766.146	41.0	2	2.0	2.0	18.669	70.0	2.48	Certain	9.3	-5.23	4.0	Yes	n/a	-14.5260770975057	n/a	n/a	n/a	ISIRate	Gain
232.147	3.0	0.024	774.17	42.0	2	-4.0	-4.0	18.169	70.0	1.0	Certain	-11.33	3.7	0.0	No	4.0	-15.0272108843537	1.731	233.878	n/a	GetAnswer	Mixed
233.902	4.0	0.024	775.925	42.0	2	-4.0	-4.0	18.169	70.0	1.0	Certain	-11.33	3.7	0.0	No	n/a	-15.0272108843537	n/a	n/a	n/a	ShowChoice	Mixed
237.914	1.0	0.012	779.937	42.0	2	-4.0	-4.0	18.169	70.0	1.0	Certain	-11.33	3.7	0.0	No	n/a	-15.0272108843537	n/a	n/a	n/a	ShowResult	Mixed
238.934	6.248	0.02	780.957	42.0	2	-4.0	-4.0	18.169	70.0	1.0	Certain	-11.33	3.7	0.0	No	n/a	-15.0272108843537	n/a	n/a	n/a	ISITrial	Mixed
245.203	3.0	0.021	787.226	43.0	2	-8.0	-8.0	17.169	70.0	1.0	Certain	-0.3	-15.83	2.77575	Yes	4.0	-15.5283446712018	2.488	247.691	n/a	GetAnswer	Mixed
247.71	4.0	0.019	789.733	43.0	2	-8.0	-8.0	17.169	70.0	1.0	Certain	-0.3	-15.83	2.77575	Yes	n/a	-15.5283446712018	n/a	n/a	n/a	ShowChoice	Mixed
251.722	1.0	0.012	793.745	43.0	2	-8.0	-8.0	17.169	70.0	1.0	Certain	-0.3	-15.83	2.77575	Yes	n/a	-15.5283446712018	n/a	n/a	n/a	ShowResult	Mixed
252.742	4.596	0.02	794.765	43.0	2	-8.0	-8.0	17.169	70.0	1.0	Certain	-0.3	-15.83	2.77575	Yes	n/a	-15.5283446712018	n/a	n/a	n/a	ISITrial	Mixed
257.356	2.776	0.018	799.379	43.0	2	-8.0	-8.0	17.169	70.0	1.0	Certain	-0.3	-15.83	2.77575	Yes	n/a	-15.5283446712018	n/a	n/a	n/a	TrialHappPreview	Mixed
260.147	4.012	0.015	802.17	43.0	2	-8.0	-8.0	17.169	70.0	1.0	Certain	-0.3	-15.83	2.77575	Yes	n/a	-15.5283446712018	n/a	n/a	488.0	TrialHappiness	Mixed
260.148	0.188	n/a	802.542	43.0	2	-8.0	-8.0	17.169	70.0	1.0	Certain	-0.3	-15.83	2.77575	Yes	n/a	-15.5283446712018	n/a	n/a	488.0	TrialHappinessSliderResponse	Mixed
264.159	3.103	4.012	806.182	43.0	2	-8.0	-8.0	17.169	70.0	1.0	Certain	-0.3	-15.83	2.77575	Yes	n/a	-15.5283446712018	n/a	n/a	n/a	ISIRate	Mixed
267.285	3.0	0.023	809.308	44.0	2	0.0	0.0	17.169	70.0	2.8	Certain	7.5	-8.12	0.0	No	4.0	-15.6213151927438	1.466	268.751	n/a	GetAnswer	Gain
268.773	4.0	0.022	810.796	44.0	2	0.0	0.0	17.169	70.0	2.8	Certain	7.5	-8.12	0.0	No	n/a	-15.6213151927438	n/a	n/a	n/a	ShowChoice	Gain
272.785	1.0	0.012	814.808	44.0	2	0.0	0.0	17.169	70.0	2.8	Certain	7.5	-8.12	0.0	No	n/a	-15.6213151927438	n/a	n/a	n/a	ShowResult	Gain
273.805	2.42	0.02	815.828	44.0	2	0.0	0.0	17.169	70.0	2.8	Certain	7.5	-8.12	0.0	No	n/a	-15.6213151927438	n/a	n/a	n/a	ISITrial	Gain
276.246	3.0	0.021	818.269	45.0	2	2.0	2.0	17.419	70.0	4.2	Certain	-6.0	10.1	0.0	No	4.0	-16.0952380952381	1.175	277.421	n/a	GetAnswer	Gain
277.433	4.0	0.012	819.456	45.0	2	2.0	2.0	17.419	70.0	4.2	Certain	-6.0	10.1	0.0	No	n/a	-16.0952380952381	n/a	n/a	n/a	ShowChoice	Gain
281.445	1.0	0.012	823.468	45.0	2	2.0	2.0	17.419	70.0	4.2	Certain	-6.0	10.1	0.0	No	n/a	-16.0952380952381	n/a	n/a	n/a	ShowResult	Gain
282.464	3.144	0.019	824.487	45.0	2	2.0	2.0	17.419	70.0	4.2	Certain	-6.0	10.1	0.0	No	n/a	-16.0952380952381	n/a	n/a	n/a	ISITrial	Gain
285.624	3.0	0.016	827.647	46.0	2	-4.0	-4.0	16.919	70.0	1.2	Certain	-12.67	3.9	3.84125	Yes	4.0	-16.5691609977324	1.85	287.474	n/a	GetAnswer	Mixed
287.496	4.0	0.022	829.519	46.0	2	-4.0	-4.0	16.919	70.0	1.2	Certain	-12.67	3.9	3.84125	Yes	n/a	-16.5691609977324	n/a	n/a	n/a	ShowChoice	Mixed
291.508	1.0	0.012	833.531	46.0	2	-4.0	-4.0	16.919	70.0	1.2	Certain	-12.67	3.9	3.84125	Yes	n/a	-16.5691609977324	n/a	n/a	n/a	ShowResult	Mixed
292.528	2.246	0.02	834.551	46.0	2	-4.0	-4.0	16.919	70.0	1.2	Certain	-12.67	3.9	3.84125	Yes	n/a	-16.5691609977324	n/a	n/a	n/a	ISITrial	Mixed
294.785	3.841	0.011	836.808	46.0	2	-4.0	-4.0	16.919	70.0	1.2	Certain	-12.67	3.9	3.84125	Yes	n/a	-16.5691609977324	n/a	n/a	n/a	TrialHappPreview	Mixed
298.646	4.012	0.02	840.669	46.0	2	-4.0	-4.0	16.919	70.0	1.2	Certain	-12.67	3.9	3.84125	Yes	n/a	-16.5691609977324	n/a	n/a	480.0	TrialHappiness	Mixed
298.647	0.217	n/a	841.096	46.0	2	-4.0	-4.0	16.919	70.0	1.2	Certain	-12.67	3.9	3.84125	Yes	n/a	-16.5691609977324	n/a	n/a	480.0	TrialHappinessSliderResponse	Mixed
302.658	7.365	4.012	844.681	46.0	2	-4.0	-4.0	16.919	70.0	1.2	Certain	-12.67	3.9	3.84125	Yes	n/a	-16.5691609977324	n/a	n/a	n/a	ISIRate	Mixed
310.047	3.0	0.024	852.07	47.0	2	-7.0	-7.0	16.044	70.0	1.0	Certain	-15.21	1.7	0.0	No	4.0	-16.9070294784581	1.975	312.022	n/a	GetAnswer	Mixed
312.036	4.0	0.014	854.059	47.0	2	-7.0	-7.0	16.044	70.0	1.0	Certain	-15.21	1.7	0.0	No	n/a	-16.9070294784581	n/a	n/a	n/a	ShowChoice	Mixed
316.048	1.0	0.012	858.071	47.0	2	-7.0	-7.0	16.044	70.0	1.0	Certain	-15.21	1.7	0.0	No	n/a	-16.9070294784581	n/a	n/a	n/a	ShowResult	Mixed
317.068	2.0	0.02	859.091	47.0	2	-7.0	-7.0	16.044	70.0	1.0	Certain	-15.21	1.7	0.0	No	n/a	-16.9070294784581	n/a	n/a	n/a	ISITrial	Mixed
319.091	3.0	0.023	861.114	48.0	2	-8.0	-8.0	15.044	70.0	0.2	Certain	0.5	-16.87	2.83175	Yes	4.0	-17.3718820861678	1.59	320.681	n/a	GetAnswer	Mixed
320.696	4.0	0.015	862.719	48.0	2	-8.0	-8.0	15.044	70.0	0.2	Certain	0.5	-16.87	2.83175	Yes	n/a	-17.3718820861678	n/a	n/a	n/a	ShowChoice	Mixed
324.708	1.0	0.012	866.731	48.0	2	-8.0	-8.0	15.044	70.0	0.2	Certain	0.5	-16.87	2.83175	Yes	n/a	-17.3718820861678	n/a	n/a	n/a	ShowResult	Mixed
325.727	3.692	0.019	867.75	48.0	2	-8.0	-8.0	15.044	70.0	0.2	Certain	0.5	-16.87	2.83175	Yes	n/a	-17.3718820861678	n/a	n/a	n/a	ISITrial	Mixed
329.439	2.832	0.02	871.462	48.0	2	-8.0	-8.0	15.044	70.0	0.2	Certain	0.5	-16.87	2.83175	Yes	n/a	-17.3718820861678	n/a	n/a	n/a	TrialHappPreview	Mixed
332.297	4.012	0.026	874.32	48.0	2	-8.0	-8.0	15.044	70.0	0.2	Certain	0.5	-16.87	2.83175	Yes	n/a	-17.3718820861678	n/a	n/a	468.0	TrialHappiness	Mixed
332.298	1.173	n/a	874.65	48.0	2	-8.0	-8.0	15.044	70.0	0.2	Certain	0.5	-16.87	2.83175	Yes	n/a	-17.3718820861678	n/a	n/a	468.0	TrialHappinessSliderResponse	Mixed
336.309	3.327	4.012	878.332	48.0	2	-8.0	-8.0	15.044	70.0	0.2	Certain	0.5	-16.87	2.83175	Yes	n/a	-17.3718820861678	n/a	n/a	n/a	ISIRate	Mixed
339.653	3.0	0.017	881.676	49.0	2	-2.56	-2.56	14.724	70.0	1.68	Certain	12.5	-5.13	0.0	No	4.0	-17.632653061224502	1.509	341.162	n/a	GetAnswer	Loss
341.174	4.0	0.012	883.197	49.0	2	-2.56	-2.56	14.724	70.0	1.68	Certain	12.5	-5.13	0.0	No	n/a	-17.632653061224502	n/a	n/a	n/a	ShowChoice	Loss
345.186	1.0	0.012	887.209	49.0	2	-2.56	-2.56	14.724	70.0	1.68	Certain	12.5	-5.13	0.0	No	n/a	-17.632653061224502	n/a	n/a	n/a	ShowResult	Loss
346.206	8.0	0.02	888.229	49.0	2	-2.56	-2.56	14.724	70.0	1.68	Certain	12.5	-5.13	0.0	No	n/a	-17.632653061224502	n/a	n/a	n/a	ISITrial	Loss
354.23	3.0	0.024	896.253	50.0	2	-4.0	-4.0	14.224	70.0	1.68	Certain	-13.58	4.5	3.54725	Yes	4.0	-18.0839002267574	1.755	355.985	n/a	GetAnswer	Gain
356.002	4.0	0.017	898.025	50.0	2	-4.0	-4.0	14.224	70.0	1.68	Certain	-13.58	4.5	3.54725	Yes	n/a	-18.0839002267574	n/a	n/a	n/a	ShowChoice	Gain
360.014	1.0	0.012	902.037	50.0	2	-4.0	-4.0	14.224	70.0	1.68	Certain	-13.58	4.5	3.54725	Yes	n/a	-18.0839002267574	n/a	n/a	n/a	ShowResult	Gain
361.033	7.537	0.019	903.056	50.0	2	-4.0	-4.0	14.224	70.0	1.68	Certain	-13.58	4.5	3.54725	Yes	n/a	-18.0839002267574	n/a	n/a	n/a	ISITrial	Gain
368.589	3.547	0.019	910.612	50.0	2	-4.0	-4.0	14.224	70.0	1.68	Certain	-13.58	4.5	3.54725	Yes	n/a	-18.0839002267574	n/a	n/a	n/a	TrialHappPreview	Gain
372.167	4.012	0.031	914.19	50.0	2	-4.0	-4.0	14.224	70.0	1.68	Certain	-13.58	4.5	3.54725	Yes	4{-4}4{-4}	-18.0839002267574	1.393	373.56	484.0	TrialHappiness	Gain
372.167	0.885	n/a	914.698	50.0	2	-4.0	-4.0	14.224	70.0	1.68	Certain	-13.58	4.5	3.54725	Yes	n/a	-18.0839002267574	n/a	n/a	484.0	TrialHappinessSliderResponse	Gain
376.179	6.189	4.012	918.202	50.0	2	-4.0	-4.0	14.224	70.0	1.68	Certain	-13.58	4.5	3.54725	Yes	n/a	-18.0839002267574	n/a	n/a	n/a	ISIRate	Gain
382.397	3.0	0.029	924.42	51.0	2	-1.0	-1.0	14.099	70.0	5.0	Certain	-10.51	8.3	0.0	No	4.0	-18.807256235827698	1.856	384.253	n/a	GetAnswer	Gain
384.27	4.0	0.017	926.293	51.0	2	-1.0	-1.0	14.099	70.0	5.0	Certain	-10.51	8.3	0.0	No	n/a	-18.807256235827698	n/a	n/a	n/a	ShowChoice	Gain
388.282	1.0	0.012	930.305	51.0	2	-1.0	-1.0	14.099	70.0	5.0	Certain	-10.51	8.3	0.0	No	n/a	-18.807256235827698	n/a	n/a	n/a	ShowResult	Gain
389.301	5.508	0.019	931.324	51.0	2	-1.0	-1.0	14.099	70.0	5.0	Certain	-10.51	8.3	0.0	No	n/a	-18.807256235827698	n/a	n/a	n/a	ISITrial	Gain
394.835	3.0	0.026	936.858	52.0	2	1.0	1.0	14.224	70.0	2.22	Certain	11.1	-8.18	0.0	No	4.0	-19.2766439909297	1.306	396.141	n/a	GetAnswer	Loss
396.155	4.0	0.014	938.178	52.0	2	1.0	1.0	14.224	70.0	2.22	Certain	11.1	-8.18	0.0	No	n/a	-19.2766439909297	n/a	n/a	n/a	ShowChoice	Loss
400.167	1.0	0.012	942.19	52.0	2	1.0	1.0	14.224	70.0	2.22	Certain	11.1	-8.18	0.0	No	n/a	-19.2766439909297	n/a	n/a	n/a	ShowResult	Loss
401.187	5.913	0.02	943.21	52.0	2	1.0	1.0	14.224	70.0	2.22	Certain	11.1	-8.18	0.0	No	n/a	-19.2766439909297	n/a	n/a	n/a	ISITrial	Loss
407.122	3.0	0.022	949.145	53.0	2	-1.0	-1.0	14.099	70.0	1.5	Certain	0.02	-2.72	2.99675	Yes	4.0	2.7407407407407405	1.361	408.483	n/a	GetAnswer	Mixed
408.509	4.0	0.025	950.532	53.0	2	-1.0	-1.0	14.099	70.0	1.5	Certain	0.02	-2.72	2.99675	Yes	n/a	2.7407407407407405	n/a	n/a	n/a	ShowChoice	Mixed
412.521	1.0	0.012	954.544	53.0	2	-1.0	-1.0	14.099	70.0	1.5	Certain	0.02	-2.72	2.99675	Yes	n/a	2.7407407407407405	n/a	n/a	n/a	ShowResult	Mixed
413.541	3.66	0.02	955.564	53.0	2	-1.0	-1.0	14.099	70.0	1.5	Certain	0.02	-2.72	2.99675	Yes	n/a	2.7407407407407405	n/a	n/a	n/a	ISITrial	Mixed
417.219	2.997	0.018	959.242	53.0	2	-1.0	-1.0	14.099	70.0	1.5	Certain	0.02	-2.72	2.99675	Yes	n/a	2.7407407407407405	n/a	n/a	n/a	TrialHappPreview	Mixed
420.244	4.012	0.028	962.267	53.0	2	-1.0	-1.0	14.099	70.0	1.5	Certain	0.02	-2.72	2.99675	Yes	n/a	2.7407407407407405	n/a	n/a	488.0	TrialHappiness	Mixed
420.245	1.685	n/a	962.591	53.0	2	-1.0	-1.0	14.099	70.0	1.5	Certain	0.02	-2.72	2.99675	Yes	n/a	2.7407407407407405	n/a	n/a	488.0	TrialHappinessSliderResponse	Mixed
424.256	3.987	4.012	966.279	53.0	2	-1.0	-1.0	14.099	70.0	1.5	Certain	0.02	-2.72	2.99675	Yes	n/a	2.7407407407407405	n/a	n/a	n/a	ISIRate	Mixed
428.268	3.0	0.025	970.291	54.0	2	0.0	0.0	14.099	70.0	1.82	Certain	-9.58	10.7	0.0	No	4.0	-20.2834467120181	1.243	429.511	n/a	GetAnswer	Loss
429.522	4.0	0.011	971.545	54.0	2	0.0	0.0	14.099	70.0	1.82	Certain	-9.58	10.7	0.0	No	n/a	-20.2834467120181	n/a	n/a	n/a	ShowChoice	Loss
433.534	1.0	0.012	975.557	54.0	2	0.0	0.0	14.099	70.0	1.82	Certain	-9.58	10.7	0.0	No	n/a	-20.2834467120181	n/a	n/a	n/a	ShowResult	Loss
434.554	8.0	0.02	976.577	54.0	2	0.0	0.0	14.099	70.0	1.82	Certain	-9.58	10.7	0.0	No	n/a	-20.2834467120181	n/a	n/a	n/a	ISITrial	Loss
482.732	0.192	n/a	1025.322	n/a	2	n/a	n/a	n/a	n/a	n/a	n/a	n/a	n/a	n/a	n/a	n/a	n/a	n/a	n/a	536.0	BlockStartHappinessSliderResponse	n/a
-51.337	-0.001	0.024	984.601	n/a	3	n/a	n/a	n/a	n/a	n/a	n/a	n/a	n/a	n/a	n/a	{SPACE}	n/a	36.13	-15.207	n/a	Rest	n/a
-15.195	4.0	0.012	1020.743	n/a	3	n/a	n/a	n/a	n/a	n/a	n/a	n/a	n/a	n/a	n/a	n/a	n/a	n/a	n/a	n/a	BlockHappyPreview	n/a
-11.183	0.759	0.012	1024.755	n/a	3	n/a	n/a	n/a	n/a	n/a	n/a	n/a	n/a	n/a	n/a	2{-2}	n/a	0.759	-10.424	536.0	BlockStartHappiness	n/a
-4.58	-0.001	0.02	1031.358	n/a	3	n/a	n/a	n/a	n/a	n/a	n/a	n/a	n/a	n/a	n/a	5.0	n/a	4.554	-0.026	n/a	ScanWait	n/a
0.0	10.0	0.026	1035.938	n/a	3	n/a	n/a	n/a	n/a	n/a	n/a	n/a	n/a	n/a	n/a	n/a	n/a	n/a	n/a	n/a	GetReady	n/a
10.014	3.0	0.014	1045.952	55.0	3	7.7	0.29	15.0615	955.0	3.16	Outcome2	0.58	7.7	2.53325	Yes	2.0	7.117780294450741	1.212	11.226	n/a	GetAnswer	Gain
11.251	4.0	0.025	1047.189	55.0	3	7.7	0.29	15.0615	955.0	3.16	Outcome2	0.58	7.7	2.53325	Yes	n/a	7.117780294450741	n/a	n/a	n/a	ShowChoice	Gain
15.263	1.0	0.012	1051.201	55.0	3	7.7	0.29	15.0615	955.0	3.16	Outcome2	0.58	7.7	2.53325	Yes	n/a	7.117780294450741	n/a	n/a	n/a	ShowResult	Gain
16.282	7.709	0.019	1052.22	55.0	3	7.7	0.29	15.0615	955.0	3.16	Outcome2	0.58	7.7	2.53325	Yes	n/a	7.117780294450741	n/a	n/a	n/a	ISITrial	Gain
24.006	2.533	0.015	1059.944	55.0	3	7.7	0.29	15.0615	955.0	3.16	Outcome2	0.58	7.7	2.53325	Yes	n/a	7.117780294450741	n/a	n/a	n/a	TrialHappPreview	Gain
26.563	4.012	0.024	1062.501	55.0	3	7.7	0.29	15.0615	955.0	3.16	Outcome2	0.58	7.7	2.53325	Yes	n/a	7.117780294450741	n/a	n/a	640.0	TrialHappiness	Gain
26.564	1.706	n/a	1063.004	55.0	3	7.7	0.29	15.0615	955.0	3.16	Outcome2	0.58	7.7	2.53325	Yes	n/a	7.117780294450741	n/a	n/a	640.0	TrialHappinessSliderResponse	Gain
30.575	2.133	4.012	1066.513	55.0	3	7.7	0.29	15.0615	955.0	3.16	Outcome2	0.58	7.7	2.53325	Yes	n/a	7.117780294450741	n/a	n/a	n/a	ISIRate	Gain
32.732	3.0	0.024	1068.67	56.0	3	-4.0	-4.0	14.5615	955.0	0.52	Certain	-6.73	-0.9	0.0	No	4.0	5.82559456398641	1.85	34.582	n/a	GetAnswer	Mixed
34.604	4.0	0.022	1070.542	56.0	3	-4.0	-4.0	14.5615	955.0	0.52	Certain	-6.73	-0.9	0.0	No	n/a	5.82559456398641	n/a	n/a	n/a	ShowChoice	Mixed
38.616	1.0	0.012	1074.554	56.0	3	-4.0	-4.0	14.5615	955.0	0.52	Certain	-6.73	-0.9	0.0	No	n/a	5.82559456398641	n/a	n/a	n/a	ShowResult	Mixed
39.636	4.697	0.02	1075.574	56.0	3	-4.0	-4.0	14.5615	955.0	0.52	Certain	-6.73	-0.9	0.0	No	n/a	5.82559456398641	n/a	n/a	n/a	ISITrial	Mixed
44.35	3.0	0.017	1080.288	57.0	3	0.0	0.0	14.5615	955.0	0.4	Certain	-0.45	0.9	0.0	No	4.0	-1.34758399395998	1.664	46.014	n/a	GetAnswer	Mixed
46.038	4.0	0.024	1081.976	57.0	3	0.0	0.0	14.5615	955.0	0.4	Certain	-0.45	0.9	0.0	No	n/a	-1.34758399395998	n/a	n/a	n/a	ShowChoice	Mixed
50.05	1.0	0.012	1085.988	57.0	3	0.0	0.0	14.5615	955.0	0.4	Certain	-0.45	0.9	0.0	No	n/a	-1.34758399395998	n/a	n/a	n/a	ShowResult	Mixed
51.07	4.291	0.02	1087.008	57.0	3	0.0	0.0	14.5615	955.0	0.4	Certain	-0.45	0.9	0.0	No	n/a	-1.34758399395998	n/a	n/a	n/a	ISITrial	Mixed
55.383	3.0	0.022	1091.321	58.0	3	0.92	1.0	14.6765	955.0	2.0	Outcome1	0.92	2.3	3.04575	Yes	2.0	-1.37731219328048	1.516	56.899	n/a	GetAnswer	Mixed
56.921	4.0	0.022	1092.859	58.0	3	0.92	1.0	14.6765	955.0	2.0	Outcome1	0.92	2.3	3.04575	Yes	n/a	-1.37731219328048	n/a	n/a	n/a	ShowChoice	Mixed
60.933	1.0	0.012	1096.871	58.0	3	0.92	1.0	14.6765	955.0	2.0	Outcome1	0.92	2.3	3.04575	Yes	n/a	-1.37731219328048	n/a	n/a	n/a	ShowResult	Mixed
61.953	2.037	0.02	1097.891	58.0	3	0.92	1.0	14.6765	955.0	2.0	Outcome1	0.92	2.3	3.04575	Yes	n/a	-1.37731219328048	n/a	n/a	n/a	ISITrial	Mixed
64.009	3.046	0.019	1099.947	58.0	3	0.92	1.0	14.6765	955.0	2.0	Outcome1	0.92	2.3	3.04575	Yes	n/a	-1.37731219328048	n/a	n/a	n/a	TrialHappPreview	Mixed
67.085	4.012	0.03	1103.023	58.0	3	0.92	1.0	14.6765	955.0	2.0	Outcome1	0.92	2.3	3.04575	Yes	n/a	-1.37731219328048	n/a	n/a	556.0	TrialHappiness	Mixed
67.085	1.2	n/a	1103.388	58.0	3	0.92	1.0	14.6765	955.0	2.0	Outcome1	0.92	2.3	3.04575	Yes	n/a	-1.37731219328048	n/a	n/a	556.0	TrialHappinessSliderResponse	Mixed
71.097	4.183	4.012	1107.035	58.0	3	0.92	1.0	14.6765	955.0	2.0	Outcome1	0.92	2.3	3.04575	Yes	n/a	-1.37731219328048	n/a	n/a	n/a	ISIRate	Mixed
75.31	3.0	0.03	1111.248	59.0	3	2.0	2.0	14.9265	955.0	4.2	Certain	-2.22	6.1	0.0	No	4.0	8.32276330690827	1.246	76.556	n/a	GetAnswer	Gain
76.58	4.0	0.024	1112.518	59.0	3	2.0	2.0	14.9265	955.0	4.2	Certain	-2.22	6.1	0.0	No	n/a	8.32276330690827	n/a	n/a	n/a	ShowChoice	Gain
80.592	1.0	0.012	1116.53	59.0	3	2.0	2.0	14.9265	955.0	4.2	Certain	-2.22	6.1	0.0	No	n/a	8.32276330690827	n/a	n/a	n/a	ShowResult	Gain
81.612	5.064	0.02	1117.55	59.0	3	2.0	2.0	14.9265	955.0	4.2	Certain	-2.22	6.1	0.0	No	n/a	8.32276330690827	n/a	n/a	n/a	ISITrial	Gain
86.694	3.0	0.018	1122.632	60.0	3	0.0	0.0	14.9265	955.0	0.66	Certain	1.3	-0.49	3.5625	Yes	4.0	-1.78557946394866	1.43	88.124	n/a	GetAnswer	Mixed
88.148	4.0	0.024	1124.086	60.0	3	0.0	0.0	14.9265	955.0	0.66	Certain	1.3	-0.49	3.5625	Yes	n/a	-1.78557946394866	n/a	n/a	n/a	ShowChoice	Mixed
92.16	1.0	0.012	1128.098	60.0	3	0.0	0.0	14.9265	955.0	0.66	Certain	1.3	-0.49	3.5625	Yes	n/a	-1.78557946394866	n/a	n/a	n/a	ShowResult	Mixed
93.18	8.0	0.02	1129.118	60.0	3	0.0	0.0	14.9265	955.0	0.66	Certain	1.3	-0.49	3.5625	Yes	n/a	-1.78557946394866	n/a	n/a	n/a	ISITrial	Mixed
101.204	3.562	0.024	1137.142	60.0	3	0.0	0.0	14.9265	955.0	0.66	Certain	1.3	-0.49	3.5625	Yes	n/a	-1.78557946394866	n/a	n/a	n/a	TrialHappPreview	Mixed
104.781	4.012	0.015	1140.719	60.0	3	0.0	0.0	14.9265	955.0	0.66	Certain	1.3	-0.49	3.5625	Yes	n/a	-1.78557946394866	n/a	n/a	576.0	TrialHappiness	Mixed
104.782	1.013	n/a	1141.286	60.0	3	0.0	0.0	14.9265	955.0	0.66	Certain	1.3	-0.49	3.5625	Yes	n/a	-1.78557946394866	n/a	n/a	576.0	TrialHappinessSliderResponse	Mixed
108.793	6.25	4.012	1144.731	60.0	3	0.0	0.0	14.9265	955.0	0.66	Certain	1.3	-0.49	3.5625	Yes	n/a	-1.78557946394866	n/a	n/a	n/a	ISIRate	Mixed
115.062	3.0	0.019	1151.0	61.0	3	2.0	2.0	15.1765	955.0	2.22	Certain	7.1	-1.79	0.0	No	4.0	8.88674971687429	1.036	116.098	n/a	GetAnswer	Gain
116.115	4.0	0.017	1152.053	61.0	3	2.0	2.0	15.1765	955.0	2.22	Certain	7.1	-1.79	0.0	No	n/a	8.88674971687429	n/a	n/a	n/a	ShowChoice	Gain
120.127	1.0	0.012	1156.065	61.0	3	2.0	2.0	15.1765	955.0	2.22	Certain	7.1	-1.79	0.0	No	n/a	8.88674971687429	n/a	n/a	n/a	ShowResult	Gain
121.147	4.586	0.02	1157.085	61.0	3	2.0	2.0	15.1765	955.0	2.22	Certain	7.1	-1.79	0.0	No	n/a	8.88674971687429	n/a	n/a	n/a	ISITrial	Gain
125.761	3.0	0.028	1161.699	62.0	3	12.1	1.39	16.689	955.0	4.2	Outcome2	2.78	12.1	3.74875	Yes	2.0	9.31596828992073	1.42	127.181	n/a	GetAnswer	Loss
127.199	4.0	0.018	1163.137	62.0	3	12.1	1.39	16.689	955.0	4.2	Outcome2	2.78	12.1	3.74875	Yes	n/a	9.31596828992073	n/a	n/a	n/a	ShowChoice	Loss
131.211	1.0	0.012	1167.149	62.0	3	12.1	1.39	16.689	955.0	4.2	Outcome2	2.78	12.1	3.74875	Yes	n/a	9.31596828992073	n/a	n/a	n/a	ShowResult	Loss
132.23	5.212	0.019	1168.168	62.0	3	12.1	1.39	16.689	955.0	4.2	Outcome2	2.78	12.1	3.74875	Yes	n/a	9.31596828992073	n/a	n/a	n/a	ISITrial	Loss
137.463	3.749	0.021	1173.401	62.0	3	12.1	1.39	16.689	955.0	4.2	Outcome2	2.78	12.1	3.74875	Yes	n/a	9.31596828992073	n/a	n/a	n/a	TrialHappPreview	Loss
141.241	4.012	0.029	1177.179	62.0	3	12.1	1.39	16.689	955.0	4.2	Outcome2	2.78	12.1	3.74875	Yes	n/a	9.31596828992073	n/a	n/a	744.0	TrialHappiness	Loss
141.241	3.521	n/a	1177.54	62.0	3	12.1	1.39	16.689	955.0	4.2	Outcome2	2.78	12.1	3.74875	Yes	n/a	9.31596828992073	n/a	n/a	744.0	TrialHappinessSliderResponse	Loss
145.253	6.995	4.012	1181.191	62.0	3	12.1	1.39	16.689	955.0	4.2	Outcome2	2.78	12.1	3.74875	Yes	n/a	9.31596828992073	n/a	n/a	n/a	ISIRate	Loss
152.274	3.0	0.026	1188.212	63.0	3	1.0	1.0	16.814	955.0	1.5	Certain	0.97	2.1	0.0	No	4.0	-1.13184220460551	1.491	153.765	n/a	GetAnswer	Mixed
153.778	4.0	0.013	1189.716	63.0	3	1.0	1.0	16.814	955.0	1.5	Certain	0.97	2.1	0.0	No	n/a	-1.13184220460551	n/a	n/a	n/a	ShowChoice	Mixed
157.79	1.0	0.012	1193.728	63.0	3	1.0	1.0	16.814	955.0	1.5	Certain	0.97	2.1	0.0	No	n/a	-1.13184220460551	n/a	n/a	n/a	ShowResult	Mixed
158.81	5.595	0.02	1194.748	63.0	3	1.0	1.0	16.814	955.0	1.5	Certain	0.97	2.1	0.0	No	n/a	-1.13184220460551	n/a	n/a	n/a	ISITrial	Mixed
164.427	3.0	0.022	1200.365	64.0	3	11.5	2.18	18.2515	955.0	2.8	Outcome1	11.5	4.37	0.0	No	2.0	7.13023782559456	1.078	165.505	n/a	GetAnswer	Loss
165.53	4.0	0.025	1201.468	64.0	3	11.5	2.18	18.2515	955.0	2.8	Outcome1	11.5	4.37	0.0	No	n/a	7.13023782559456	n/a	n/a	n/a	ShowChoice	Loss
169.542	1.0	0.012	1205.48	64.0	3	11.5	2.18	18.2515	955.0	2.8	Outcome1	11.5	4.37	0.0	No	n/a	7.13023782559456	n/a	n/a	n/a	ShowResult	Loss
170.562	5.47	0.02	1206.5	64.0	3	11.5	2.18	18.2515	955.0	2.8	Outcome1	11.5	4.37	0.0	No	n/a	7.13023782559456	n/a	n/a	n/a	ISITrial	Loss
176.062	3.0	0.03	1212.0	65.0	3	5.33	2.66	18.9177	955.0	1.68	Outcome2	6.5	5.33	2.99675	Yes	2.0	-1.17166855417139	0.842	176.904	n/a	GetAnswer	Gain
176.931	4.0	0.027	1212.869	65.0	3	5.33	2.66	18.9177	955.0	1.68	Outcome2	6.5	5.33	2.99675	Yes	n/a	-1.17166855417139	n/a	n/a	n/a	ShowChoice	Gain
180.943	1.0	0.012	1216.881	65.0	3	5.33	2.66	18.9177	955.0	1.68	Outcome2	6.5	5.33	2.99675	Yes	n/a	-1.17166855417139	n/a	n/a	n/a	ShowResult	Gain
181.963	3.344	0.02	1217.901	65.0	3	5.33	2.66	18.9177	955.0	1.68	Outcome2	6.5	5.33	2.99675	Yes	n/a	-1.17166855417139	n/a	n/a	n/a	ISITrial	Gain
185.323	2.997	0.016	1221.261	65.0	3	5.33	2.66	18.9177	955.0	1.68	Outcome2	6.5	5.33	2.99675	Yes	n/a	-1.17166855417139	n/a	n/a	n/a	TrialHappPreview	Gain
188.349	4.028	0.029	1224.287	65.0	3	5.33	2.66	18.9177	955.0	1.68	Outcome2	6.5	5.33	2.99675	Yes	n/a	-1.17166855417139	n/a	n/a	720.0	TrialHappiness	Gain
188.349	2.572	n/a	1224.663	65.0	3	5.33	2.66	18.9177	955.0	1.68	Outcome2	6.5	5.33	2.99675	Yes	n/a	-1.17166855417139	n/a	n/a	720.0	TrialHappinessSliderResponse	Gain
192.377	3.987	4.028	1228.315	65.0	3	5.33	2.66	18.9177	955.0	1.68	Outcome2	6.5	5.33	2.99675	Yes	n/a	-1.17166855417139	n/a	n/a	n/a	ISIRate	Gain
196.389	3.0	0.025	1232.327	66.0	3	13.3	2.64	20.5802	955.0	2.48	Outcome2	5.28	13.3	0.0	No	2.0	8.0158550396376	0.882	197.271	n/a	GetAnswer	Loss
197.292	4.0	0.021	1233.23	66.0	3	13.3	2.64	20.5802	955.0	2.48	Outcome2	5.28	13.3	0.0	No	n/a	8.0158550396376	n/a	n/a	n/a	ShowChoice	Loss
201.321	1.0	0.029	1237.259	66.0	3	13.3	2.64	20.5802	955.0	2.48	Outcome2	5.28	13.3	0.0	No	n/a	8.0158550396376	n/a	n/a	n/a	ShowResult	Loss
202.341	3.959	0.02	1238.279	66.0	3	13.3	2.64	20.5802	955.0	2.48	Outcome2	5.28	13.3	0.0	No	n/a	8.0158550396376	n/a	n/a	n/a	ISITrial	Loss
206.319	3.0	0.019	1242.257	67.0	3	11.39	5.7	22.004	955.0	1.82	Outcome1	11.39	12.7	2.9185	Yes	2.0	-1.31115515288788	0.871	207.19	n/a	GetAnswer	Loss
207.205	4.0	0.015	1243.143	67.0	3	11.39	5.7	22.004	955.0	1.82	Outcome1	11.39	12.7	2.9185	Yes	n/a	-1.31115515288788	n/a	n/a	n/a	ShowChoice	Loss
211.234	1.0	0.029	1247.172	67.0	3	11.39	5.7	22.004	955.0	1.82	Outcome1	11.39	12.7	2.9185	Yes	n/a	-1.31115515288788	n/a	n/a	n/a	ShowResult	Loss
212.254	4.199	0.02	1248.192	67.0	3	11.39	5.7	22.004	955.0	1.82	Outcome1	11.39	12.7	2.9185	Yes	n/a	-1.31115515288788	n/a	n/a	n/a	ISITrial	Loss
216.466	2.918	0.013	1252.404	67.0	3	11.39	5.7	22.004	955.0	1.82	Outcome1	11.39	12.7	2.9185	Yes	n/a	-1.31115515288788	n/a	n/a	n/a	TrialHappPreview	Loss
219.408	4.029	0.024	1255.346	67.0	3	11.39	5.7	22.004	955.0	1.82	Outcome1	11.39	12.7	2.9185	Yes	n/a	-1.31115515288788	n/a	n/a	712.0	TrialHappiness	Loss
219.409	1.402	n/a	1255.675	67.0	3	11.39	5.7	22.004	955.0	1.82	Outcome1	11.39	12.7	2.9185	Yes	n/a	-1.31115515288788	n/a	n/a	712.0	TrialHappinessSliderResponse	Loss
223.437	3.674	4.029	1259.375	67.0	3	11.39	5.7	22.004	955.0	1.82	Outcome1	11.39	12.7	2.9185	Yes	n/a	-1.31115515288788	n/a	n/a	n/a	ISIRate	Loss
227.132	3.0	0.021	1263.07	68.0	3	-1.0	-1.0	21.879	955.0	0.82	Certain	3.5	-5.18	0.0	No	4.0	8.68403171007928	1.724	228.856	n/a	GetAnswer	Mixed
228.87	4.0	0.014	1264.808	68.0	3	-1.0	-1.0	21.879	955.0	0.82	Certain	3.5	-5.18	0.0	No	n/a	8.68403171007928	n/a	n/a	n/a	ShowChoice	Mixed
232.899	1.0	0.029	1268.837	68.0	3	-1.0	-1.0	21.879	955.0	0.82	Certain	3.5	-5.18	0.0	No	n/a	8.68403171007928	n/a	n/a	n/a	ShowResult	Mixed
233.919	2.185	0.02	1269.857	68.0	3	-1.0	-1.0	21.879	955.0	0.82	Certain	3.5	-5.18	0.0	No	n/a	8.68403171007928	n/a	n/a	n/a	ISITrial	Mixed
236.125	3.0	0.021	1272.063	69.0	3	0.0	0.0	21.879	955.0	1.5	Certain	-4.86	4.1	0.0	No	4.0	8.95922989807475	1.247	237.372	n/a	GetAnswer	Mixed
237.396	4.0	0.024	1273.334	69.0	3	0.0	0.0	21.879	955.0	1.5	Certain	-4.86	4.1	0.0	No	n/a	8.95922989807475	n/a	n/a	n/a	ShowChoice	Mixed
241.425	1.0	0.029	1277.363	69.0	3	0.0	0.0	21.879	955.0	1.5	Certain	-4.86	4.1	0.0	No	n/a	8.95922989807475	n/a	n/a	n/a	ShowResult	Mixed
242.444	2.0	0.019	1278.382	69.0	3	0.0	0.0	21.879	955.0	1.5	Certain	-4.86	4.1	0.0	No	n/a	8.95922989807475	n/a	n/a	n/a	ISITrial	Mixed
244.467	3.0	0.023	1280.405	70.0	3	7.29	3.64	22.7902	955.0	1.82	Outcome1	7.29	8.7	3.65125	Yes	2.0	-1.41166477916195	0.918	245.385	n/a	GetAnswer	Gain
245.403	4.0	0.018	1281.341	70.0	3	7.29	3.64	22.7902	955.0	1.82	Outcome1	7.29	8.7	3.65125	Yes	n/a	-1.41166477916195	n/a	n/a	n/a	ShowChoice	Gain
249.432	1.0	0.029	1285.37	70.0	3	7.29	3.64	22.7902	955.0	1.82	Outcome1	7.29	8.7	3.65125	Yes	n/a	-1.41166477916195	n/a	n/a	n/a	ShowResult	Gain
250.452	2.623	0.02	1286.39	70.0	3	7.29	3.64	22.7902	955.0	1.82	Outcome1	7.29	8.7	3.65125	Yes	n/a	-1.41166477916195	n/a	n/a	n/a	ISITrial	Gain
253.093	3.651	0.018	1289.031	70.0	3	7.29	3.64	22.7902	955.0	1.82	Outcome1	7.29	8.7	3.65125	Yes	n/a	-1.41166477916195	n/a	n/a	n/a	TrialHappPreview	Gain
256.771	4.012	0.027	1292.709	70.0	3	7.29	3.64	22.7902	955.0	1.82	Outcome1	7.29	8.7	3.65125	Yes	n/a	-1.41166477916195	n/a	n/a	712.0	TrialHappiness	Gain
256.771	1.338	n/a	1293.032	70.0	3	7.29	3.64	22.7902	955.0	1.82	Outcome1	7.29	8.7	3.65125	Yes	n/a	-1.41166477916195	n/a	n/a	712.0	TrialHappinessSliderResponse	Gain
260.783	6.605	4.012	1296.721	70.0	3	7.29	3.64	22.7902	955.0	1.82	Outcome1	7.29	8.7	3.65125	Yes	n/a	-1.41166477916195	n/a	n/a	n/a	ISIRate	Gain
267.419	3.0	0.031	1303.357	71.0	3	3.47	1.74	23.224	955.0	2.0	Outcome2	4.9	3.47	0.0	No	2.0	-1.4345979614949	0.968	268.387	n/a	GetAnswer	Gain
268.405	4.0	0.018	1304.343	71.0	3	3.47	1.74	23.224	955.0	2.0	Outcome2	4.9	3.47	0.0	No	n/a	-1.4345979614949	n/a	n/a	n/a	ShowChoice	Gain
272.418	1.0	0.013	1308.356	71.0	3	3.47	1.74	23.224	955.0	2.0	Outcome2	4.9	3.47	0.0	No	n/a	-1.4345979614949	n/a	n/a	n/a	ShowResult	Gain
273.437	5.499	0.019	1309.375	71.0	3	3.47	1.74	23.224	955.0	2.0	Outcome2	4.9	3.47	0.0	No	n/a	-1.4345979614949	n/a	n/a	n/a	ISITrial	Gain
278.954	3.0	0.018	1314.892	72.0	3	-2.0	-2.0	22.974	955.0	0.52	Certain	3.1	-6.68	3.0805	Yes	4.0	9.78482446206116	1.555	280.509	n/a	GetAnswer	Mixed
280.525	4.0	0.016	1316.463	72.0	3	-2.0	-2.0	22.974	955.0	0.52	Certain	3.1	-6.68	3.0805	Yes	n/a	9.78482446206116	n/a	n/a	n/a	ShowChoice	Mixed
284.537	1.0	0.012	1320.475	72.0	3	-2.0	-2.0	22.974	955.0	0.52	Certain	3.1	-6.68	3.0805	Yes	n/a	9.78482446206116	n/a	n/a	n/a	ShowResult	Mixed
285.557	5.672	0.02	1321.495	72.0	3	-2.0	-2.0	22.974	955.0	0.52	Certain	3.1	-6.68	3.0805	Yes	n/a	9.78482446206116	n/a	n/a	n/a	ISITrial	Mixed
291.241	3.08	0.012	1327.179	72.0	3	-2.0	-2.0	22.974	955.0	0.52	Certain	3.1	-6.68	3.0805	Yes	n/a	9.78482446206116	n/a	n/a	n/a	TrialHappPreview	Mixed
294.35	4.012	0.029	1330.288	72.0	3	-2.0	-2.0	22.974	955.0	0.52	Certain	3.1	-6.68	3.0805	Yes	n/a	9.78482446206116	n/a	n/a	660.0	TrialHappiness	Mixed
294.351	1.19	n/a	1330.615	72.0	3	-2.0	-2.0	22.974	955.0	0.52	Certain	3.1	-6.68	3.0805	Yes	n/a	9.78482446206116	n/a	n/a	660.0	TrialHappinessSliderResponse	Mixed
298.362	4.322	4.012	1334.3	72.0	3	-2.0	-2.0	22.974	955.0	0.52	Certain	3.1	-6.68	3.0805	Yes	n/a	9.78482446206116	n/a	n/a	n/a	ISIRate	Mixed
302.708	3.0	0.024	1338.646	73.0	3	3.01	1.5	23.3503	955.0	1.82	Outcome2	4.7	3.01	0.0	No	2.0	-1.6914873537183797	1.182	303.89	n/a	GetAnswer	Gain
303.912	4.0	0.022	1339.85	73.0	3	3.01	1.5	23.3503	955.0	1.82	Outcome2	4.7	3.01	0.0	No	n/a	-1.6914873537183797	n/a	n/a	n/a	ShowChoice	Gain
307.924	1.0	0.012	1343.862	73.0	3	3.01	1.5	23.3503	955.0	1.82	Outcome2	4.7	3.01	0.0	No	n/a	-1.6914873537183797	n/a	n/a	n/a	ShowResult	Gain
308.944	4.616	0.02	1344.882	73.0	3	3.01	1.5	23.3503	955.0	1.82	Outcome2	4.7	3.01	0.0	No	n/a	-1.6914873537183797	n/a	n/a	n/a	ISITrial	Gain
313.591	3.0	0.031	1349.529	74.0	3	-6.0	-6.0	22.6003	955.0	0.82	Certain	-0.5	-11.78	3.05625	Yes	4.0	11.277463193658	2.087	315.678	n/a	GetAnswer	Mixed
315.697	4.0	0.019	1351.635	74.0	3	-6.0	-6.0	22.6003	955.0	0.82	Certain	-0.5	-11.78	3.05625	Yes	n/a	11.277463193658	n/a	n/a	n/a	ShowChoice	Mixed
319.709	1.0	0.012	1355.647	74.0	3	-6.0	-6.0	22.6003	955.0	0.82	Certain	-0.5	-11.78	3.05625	Yes	n/a	11.277463193658	n/a	n/a	n/a	ShowResult	Mixed
320.729	3.909	0.02	1356.667	74.0	3	-6.0	-6.0	22.6003	955.0	0.82	Certain	-0.5	-11.78	3.05625	Yes	n/a	11.277463193658	n/a	n/a	n/a	ISITrial	Mixed
324.658	3.056	0.02	1360.596	74.0	3	-6.0	-6.0	22.6003	955.0	0.82	Certain	-0.5	-11.78	3.05625	Yes	n/a	11.277463193658	n/a	n/a	n/a	TrialHappPreview	Mixed
327.733	4.012	0.019	1363.671	74.0	3	-6.0	-6.0	22.6003	955.0	0.82	Certain	-0.5	-11.78	3.05625	Yes	n/a	11.277463193658	n/a	n/a	680.0	TrialHappiness	Mixed
327.734	1.151	n/a	1363.883	74.0	3	-6.0	-6.0	22.6003	955.0	0.82	Certain	-0.5	-11.78	3.05625	Yes	n/a	11.277463193658	n/a	n/a	680.0	TrialHappinessSliderResponse	Mixed
331.745	4.225	4.012	1367.683	74.0	3	-6.0	-6.0	22.6003	955.0	0.82	Certain	-0.5	-11.78	3.05625	Yes	n/a	11.277463193658	n/a	n/a	n/a	ISIRate	Mixed
335.992	3.0	0.022	1371.93	75.0	3	12.9	0.82	24.2128	955.0	2.0	Outcome1	12.9	1.63	0.0	No	2.0	11.2718006795017	1.402	337.394	n/a	GetAnswer	Loss
337.412	4.0	0.018	1373.35	75.0	3	12.9	0.82	24.2128	955.0	2.0	Outcome1	12.9	1.63	0.0	No	n/a	11.2718006795017	n/a	n/a	n/a	ShowChoice	Loss
341.425	1.0	0.013	1377.363	75.0	3	12.9	0.82	24.2128	955.0	2.0	Outcome1	12.9	1.63	0.0	No	n/a	11.2718006795017	n/a	n/a	n/a	ShowResult	Loss
342.444	4.979	0.019	1378.382	75.0	3	12.9	0.82	24.2128	955.0	2.0	Outcome1	12.9	1.63	0.0	No	n/a	11.2718006795017	n/a	n/a	n/a	ISITrial	Loss
347.443	3.0	0.02	1383.381	76.0	3	-2.0	-2.0	23.9628	955.0	0.66	Certain	-8.28	3.3	0.0	No	4.0	11.5832389580974	1.471	348.914	n/a	GetAnswer	Mixed
348.93	4.0	0.016	1384.868	76.0	3	-2.0	-2.0	23.9628	955.0	0.66	Certain	-8.28	3.3	0.0	No	n/a	11.5832389580974	n/a	n/a	n/a	ShowChoice	Mixed
352.942	1.0	0.012	1388.88	76.0	3	-2.0	-2.0	23.9628	955.0	0.66	Certain	-8.28	3.3	0.0	No	n/a	11.5832389580974	n/a	n/a	n/a	ShowResult	Mixed
353.962	3.931	0.02	1389.9	76.0	3	-2.0	-2.0	23.9628	955.0	0.66	Certain	-8.28	3.3	0.0	No	n/a	11.5832389580974	n/a	n/a	n/a	ISITrial	Mixed
357.924	3.0	0.031	1393.862	77.0	3	8.58	4.29	25.0353	955.0	5.0	Outcome2	10.3	8.58	4.0	Yes	2.0	-1.71791241978105	1.075	358.999	n/a	GetAnswer	Gain
359.011	4.0	0.012	1394.949	77.0	3	8.58	4.29	25.0353	955.0	5.0	Outcome2	10.3	8.58	4.0	Yes	n/a	-1.71791241978105	n/a	n/a	n/a	ShowChoice	Gain
363.023	1.0	0.012	1398.961	77.0	3	8.58	4.29	25.0353	955.0	5.0	Outcome2	10.3	8.58	4.0	Yes	n/a	-1.71791241978105	n/a	n/a	n/a	ShowResult	Gain
364.042	7.022	0.019	1399.98	77.0	3	8.58	4.29	25.0353	955.0	5.0	Outcome2	10.3	8.58	4.0	Yes	n/a	-1.71791241978105	n/a	n/a	n/a	ISITrial	Gain
371.08	4.0	0.016	1407.018	77.0	3	8.58	4.29	25.0353	955.0	5.0	Outcome2	10.3	8.58	4.0	Yes	n/a	-1.71791241978105	n/a	n/a	n/a	TrialHappPreview	Gain
375.109	4.012	0.029	1411.047	77.0	3	8.58	4.29	25.0353	955.0	5.0	Outcome2	10.3	8.58	4.0	Yes	n/a	-1.71791241978105	n/a	n/a	664.0	TrialHappiness	Gain
375.109	0.904	n/a	1411.371	77.0	3	8.58	4.29	25.0353	955.0	5.0	Outcome2	10.3	8.58	4.0	Yes	n/a	-1.71791241978105	n/a	n/a	664.0	TrialHappinessSliderResponse	Gain
379.121	8.0	4.012	1415.059	77.0	3	8.58	4.29	25.0353	955.0	5.0	Outcome2	10.3	8.58	4.0	Yes	n/a	-1.71791241978105	n/a	n/a	n/a	ISIRate	Gain
387.145	3.0	0.024	1423.083	78.0	3	-0.09	-0.09	25.024	955.0	5.0	Certain	-0.18	12.3	0.0	No	4.0	12.4779161947905	1.445	388.59	n/a	GetAnswer	Loss
388.616	4.0	0.026	1424.554	78.0	3	-0.09	-0.09	25.024	955.0	5.0	Certain	-0.18	12.3	0.0	No	n/a	12.4779161947905	n/a	n/a	n/a	ShowChoice	Loss
392.628	1.0	0.012	1428.566	78.0	3	-0.09	-0.09	25.024	955.0	5.0	Certain	-0.18	12.3	0.0	No	n/a	12.4779161947905	n/a	n/a	n/a	ShowResult	Loss
393.648	2.078	0.02	1429.586	78.0	3	-0.09	-0.09	25.024	955.0	5.0	Certain	-0.18	12.3	0.0	No	n/a	12.4779161947905	n/a	n/a	n/a	ISITrial	Loss
395.754	3.0	0.028	1431.692	79.0	3	-6.0	-6.0	24.274	955.0	0.2	Certain	0.5	-12.31	2.7295	Yes	4.0	12.807474518686302	2.124	397.878	n/a	GetAnswer	Mixed
397.894	4.0	0.016	1433.832	79.0	3	-6.0	-6.0	24.274	955.0	0.2	Certain	0.5	-12.31	2.7295	Yes	n/a	12.807474518686302	n/a	n/a	n/a	ShowChoice	Mixed
401.906	1.0	0.012	1437.844	79.0	3	-6.0	-6.0	24.274	955.0	0.2	Certain	0.5	-12.31	2.7295	Yes	n/a	12.807474518686302	n/a	n/a	n/a	ShowResult	Mixed
402.926	3.829	0.02	1438.864	79.0	3	-6.0	-6.0	24.274	955.0	0.2	Certain	0.5	-12.31	2.7295	Yes	n/a	12.807474518686302	n/a	n/a	n/a	ISITrial	Mixed
406.771	2.73	0.016	1442.709	79.0	3	-6.0	-6.0	24.274	955.0	0.2	Certain	0.5	-12.31	2.7295	Yes	n/a	12.807474518686302	n/a	n/a	n/a	TrialHappPreview	Mixed
409.529	4.012	0.028	1445.467	79.0	3	-6.0	-6.0	24.274	955.0	0.2	Certain	0.5	-12.31	2.7295	Yes	2{-2}4{-4}	12.807474518686302	1.544	411.073	572.0	TrialHappiness	Mixed
409.529	0.879	n/a	1446.132	79.0	3	-6.0	-6.0	24.274	955.0	0.2	Certain	0.5	-12.31	2.7295	Yes	n/a	12.807474518686302	n/a	n/a	572.0	TrialHappinessSliderResponse	Mixed
413.541	2.918	4.012	1449.479	79.0	3	-6.0	-6.0	24.274	955.0	0.2	Certain	0.5	-12.31	2.7295	Yes	n/a	12.807474518686302	n/a	n/a	n/a	ISIRate	Mixed
416.483	3.0	0.024	1452.421	80.0	3	0.0	0.0	24.274	955.0	2.48	Certain	-7.4	7.3	0.0	No	4.0	14.6998867497169	1.162	417.645	n/a	GetAnswer	Gain
417.67	4.0	0.025	1453.608	80.0	3	0.0	0.0	24.274	955.0	2.48	Certain	-7.4	7.3	0.0	No	n/a	14.6998867497169	n/a	n/a	n/a	ShowChoice	Gain
421.682	1.0	0.012	1457.62	80.0	3	0.0	0.0	24.274	955.0	2.48	Certain	-7.4	7.3	0.0	No	n/a	14.6998867497169	n/a	n/a	n/a	ShowResult	Gain
422.702	3.336	0.02	1458.64	80.0	3	0.0	0.0	24.274	955.0	2.48	Certain	-7.4	7.3	0.0	No	n/a	14.6998867497169	n/a	n/a	n/a	ISITrial	Gain
426.062	3.0	0.024	1462.0	81.0	3	1.0	1.0	24.399	955.0	2.0	Certain	0.03	2.3	3.92375	Yes	4.0	-2.27321630804077	1.572	427.634	n/a	GetAnswer	Mixed
427.65	4.0	0.016	1463.588	81.0	3	1.0	1.0	24.399	955.0	2.0	Certain	0.03	2.3	3.92375	Yes	n/a	-2.27321630804077	n/a	n/a	n/a	ShowChoice	Mixed
431.662	1.0	0.012	1467.6	81.0	3	1.0	1.0	24.399	955.0	2.0	Certain	0.03	2.3	3.92375	Yes	n/a	-2.27321630804077	n/a	n/a	n/a	ShowResult	Mixed
432.682	3.919	0.02	1468.62	81.0	3	1.0	1.0	24.399	955.0	2.0	Certain	0.03	2.3	3.92375	Yes	n/a	-2.27321630804077	n/a	n/a	n/a	ISITrial	Mixed
436.627	3.924	0.026	1472.565	81.0	3	1.0	1.0	24.399	955.0	2.0	Certain	0.03	2.3	3.92375	Yes	n/a	-2.27321630804077	n/a	n/a	n/a	TrialHappPreview	Mixed
440.572	4.012	0.021	1476.51	81.0	3	1.0	1.0	24.399	955.0	2.0	Certain	0.03	2.3	3.92375	Yes	2{-2}2{-2}2{-2}	-2.27321630804077	1.445	442.017	632.0	TrialHappiness	Mixed
440.573	1.086	n/a	1476.87	81.0	3	1.0	1.0	24.399	955.0	2.0	Certain	0.03	2.3	3.92375	Yes	n/a	-2.27321630804077	n/a	n/a	632.0	TrialHappinessSliderResponse	Mixed
444.584	7.695	4.012	1480.522	81.0	3	1.0	1.0	24.399	955.0	2.0	Certain	0.03	2.3	3.92375	Yes	n/a	-2.27321630804077	n/a	n/a	n/a	ISIRate	Mixed
452.307	3.0	0.028	1488.245	n/a	3	n/a	n/a	n/a	n/a	n/a	n/a	n/a	n/a	n/a	n/a	n/a	n/a	n/a	n/a	n/a	CurrentEarnings	n/a
455.333	-0.001	0.026	1491.271	n/a	3	n/a	n/a	n/a	n/a	n/a	n/a	n/a	n/a	n/a	n/a	1.0	n/a	97.918	553.251	n/a	Goodbye	n/a
