onset	duration	onset_delay	onset_unadjusted	trial_number	block	amount_change	certain_amount	current_amount	mood_target	multiplier	outcome	outcome1_amount	outcome2_amount	question_duration	rating	response	rpe	rt	rt_time	slider_response	trial_phase	trial_type
-43.135	-0.001	0.039	35.625	n/a	0	n/a	n/a	n/a	n/a	n/a	n/a	n/a	n/a	n/a	n/a	{SPACE}	n/a	7.166	-35.969	n/a	Welcome	n/a
-35.938	5.0	0.031	42.822	n/a	0	n/a	n/a	n/a	n/a	n/a	n/a	n/a	n/a	n/a	n/a	n/a	n/a	n/a	n/a	n/a	LifeHappyPreview	n/a
-30.906	1.489	0.032	47.854	n/a	0	n/a	n/a	n/a	n/a	n/a	n/a	n/a	n/a	n/a	n/a	n/a	n/a	n/a	n/a	904.0	LifeHappiness	n/a
-30.906	0.962	n/a	48.381	n/a	0	n/a	n/a	n/a	n/a	n/a	n/a	n/a	n/a	n/a	n/a	n/a	n/a	n/a	n/a	904.0	LifeHappinessSliderResponse	n/a
-14.545	4.0	0.016	64.215	n/a	0	n/a	n/a	n/a	n/a	n/a	n/a	n/a	n/a	n/a	n/a	n/a	n/a	n/a	n/a	n/a	BlockHappyPreview	n/a
-10.53	1.672	0.015	68.23	n/a	0	n/a	n/a	n/a	n/a	n/a	n/a	n/a	n/a	n/a	n/a	n/a	n/a	n/a	n/a	840.0	BlockStartHappiness	n/a
-10.529	0.82	n/a	69.083	n/a	0	n/a	n/a	n/a	n/a	n/a	n/a	n/a	n/a	n/a	n/a	n/a	n/a	n/a	n/a	840.0	BlockStartHappinessSliderResponse	n/a
-3.199	-0.001	0.018	75.561	n/a	0	n/a	n/a	n/a	n/a	n/a	n/a	n/a	n/a	n/a	n/a	5.0	n/a	3.184	-0.015	n/a	ScanWait	n/a
0.0	10.0	0.015	78.76	n/a	1	n/a	n/a	n/a	n/a	n/a	n/a	n/a	n/a	n/a	n/a	n/a	n/a	n/a	n/a	n/a	GetReady	n/a
10.03	3.0	0.03	88.79	1.0	1	7.5	2.78	10.9375	955.0	2.8	Outcome2	5.55	7.5	0.0	No	2.0	1.95356738391846	1.24	11.27	n/a	GetAnswer	Gain
11.296	4.0	0.026	90.056	1.0	1	7.5	2.78	10.9375	955.0	2.8	Outcome2	5.55	7.5	0.0	No	n/a	1.95356738391846	n/a	n/a	n/a	ShowChoice	Gain
15.311	1.0	0.015	94.071	1.0	1	7.5	2.78	10.9375	955.0	2.8	Outcome2	5.55	7.5	0.0	No	n/a	1.95356738391846	n/a	n/a	n/a	ShowResult	Gain
16.328	2.431	0.017	95.088	1.0	1	7.5	2.78	10.9375	955.0	2.8	Outcome2	5.55	7.5	0.0	No	n/a	1.95356738391846	n/a	n/a	n/a	ISITrial	Gain
18.777	3.0	0.018	97.537	2.0	1	3.81	3.81	11.4137	955.0	3.16	Certain	7.62	9.7	0.0	No	4.0	2.08380520951302	2.781	21.558	n/a	GetAnswer	Gain
21.576	4.0	0.018	100.336	2.0	1	3.81	3.81	11.4137	955.0	3.16	Certain	7.62	9.7	0.0	No	n/a	2.08380520951302	n/a	n/a	n/a	ShowChoice	Gain
25.591	1.0	0.015	104.351	2.0	1	3.81	3.81	11.4137	955.0	3.16	Certain	7.62	9.7	0.0	No	n/a	2.08380520951302	n/a	n/a	n/a	ShowResult	Gain
26.607	4.568	0.016	105.367	2.0	1	3.81	3.81	11.4137	955.0	3.16	Certain	7.62	9.7	0.0	No	n/a	2.08380520951302	n/a	n/a	n/a	ISITrial	Gain
31.206	3.0	0.031	109.966	3.0	1	8.1	2.94	12.4262	955.0	4.2	Outcome1	8.1	5.89	2.868	Yes	2.0	2.21404303510759	1.987	33.193	n/a	GetAnswer	Gain
33.205	4.0	0.012	111.965	3.0	1	8.1	2.94	12.4262	955.0	4.2	Outcome1	8.1	5.89	2.868	Yes	n/a	2.21404303510759	n/a	n/a	n/a	ShowChoice	Gain
37.22	1.0	0.015	115.98	3.0	1	8.1	2.94	12.4262	955.0	4.2	Outcome1	8.1	5.89	2.868	Yes	n/a	2.21404303510759	n/a	n/a	n/a	ShowResult	Gain
38.237	3.243	0.017	116.997	3.0	1	8.1	2.94	12.4262	955.0	4.2	Outcome1	8.1	5.89	2.868	Yes	n/a	2.21404303510759	n/a	n/a	n/a	ISITrial	Gain
41.502	2.868	0.022	120.262	3.0	1	8.1	2.94	12.4262	955.0	4.2	Outcome1	8.1	5.89	2.868	Yes	n/a	2.21404303510759	n/a	n/a	n/a	TrialHappPreview	Gain
44.384	4.016	0.014	123.144	3.0	1	8.1	2.94	12.4262	955.0	4.2	Outcome1	8.1	5.89	2.868	Yes	n/a	2.21404303510759	n/a	n/a	872.0	TrialHappiness	Gain
44.385	0.904	n/a	124.097	3.0	1	8.1	2.94	12.4262	955.0	4.2	Outcome1	8.1	5.89	2.868	Yes	n/a	2.21404303510759	n/a	n/a	872.0	TrialHappinessSliderResponse	Gain
48.4	3.472	4.016	127.16	3.0	1	8.1	2.94	12.4262	955.0	4.2	Outcome1	8.1	5.89	2.868	Yes	n/a	2.21404303510759	n/a	n/a	n/a	ISIRate	Gain
51.899	3.0	0.027	130.659	4.0	1	4.9	1.55	13.0387	955.0	2.0	Outcome1	4.9	3.1	0.0	No	2.0	1.80067950169875	2.264	54.163	n/a	GetAnswer	Gain
54.181	4.0	0.018	132.941	4.0	1	4.9	1.55	13.0387	955.0	2.0	Outcome1	4.9	3.1	0.0	No	n/a	1.80067950169875	n/a	n/a	n/a	ShowChoice	Gain
58.196	1.0	0.015	136.956	4.0	1	4.9	1.55	13.0387	955.0	2.0	Outcome1	4.9	3.1	0.0	No	n/a	1.80067950169875	n/a	n/a	n/a	ShowResult	Gain
59.213	2.011	0.017	137.973	4.0	1	4.9	1.55	13.0387	955.0	2.0	Outcome1	4.9	3.1	0.0	No	n/a	1.80067950169875	n/a	n/a	n/a	ISITrial	Gain
61.245	3.0	0.021	140.005	5.0	1	0.92	1.0	13.1537	955.0	0.66	Outcome1	0.92	1.3	2.5825	Yes	n/a	-0.3772178180445449	n/a	n/a	n/a	GetAnswer	Mixed
64.261	4.0	0.016	143.021	5.0	1	0.92	1.0	13.1537	955.0	0.66	Outcome1	0.92	1.3	2.5825	Yes	n/a	-0.3772178180445449	n/a	n/a	n/a	ShowChoice	Mixed
68.276	1.0	0.015	147.036	5.0	1	0.92	1.0	13.1537	955.0	0.66	Outcome1	0.92	1.3	2.5825	Yes	n/a	-0.3772178180445449	n/a	n/a	n/a	ShowResult	Mixed
69.293	5.129	0.017	148.053	5.0	1	0.92	1.0	13.1537	955.0	0.66	Outcome1	0.92	1.3	2.5825	Yes	n/a	-0.3772178180445449	n/a	n/a	n/a	ISITrial	Mixed
74.441	2.582	0.019	153.201	5.0	1	0.92	1.0	13.1537	955.0	0.66	Outcome1	0.92	1.3	2.5825	Yes	n/a	-0.3772178180445449	n/a	n/a	n/a	TrialHappPreview	Mixed
77.04	4.015	0.017	155.8	5.0	1	0.92	1.0	13.1537	955.0	0.66	Outcome1	0.92	1.3	2.5825	Yes	n/a	-0.3772178180445449	n/a	n/a	832.0	TrialHappiness	Mixed
77.04	0.817	n/a	156.939	5.0	1	0.92	1.0	13.1537	955.0	0.66	Outcome1	0.92	1.3	2.5825	Yes	n/a	-0.3772178180445449	n/a	n/a	832.0	TrialHappinessSliderResponse	Mixed
81.055	2.33	4.015	159.815	5.0	1	0.92	1.0	13.1537	955.0	0.66	Outcome1	0.92	1.3	2.5825	Yes	n/a	-0.3772178180445449	n/a	n/a	n/a	ISIRate	Mixed
83.404	3.0	0.019	162.164	6.0	1	7.1	2.22	14.0412	955.0	2.22	Outcome1	7.1	4.43	0.0	No	2.0	2.6681766704416803	1.319	84.723	n/a	GetAnswer	Gain
84.737	4.0	0.014	163.497	6.0	1	7.1	2.22	14.0412	955.0	2.22	Outcome1	7.1	4.43	0.0	No	n/a	2.6681766704416803	n/a	n/a	n/a	ShowChoice	Gain
88.752	1.0	0.015	167.512	6.0	1	7.1	2.22	14.0412	955.0	2.22	Outcome1	7.1	4.43	0.0	No	n/a	2.6681766704416803	n/a	n/a	n/a	ShowResult	Gain
89.769	6.232	0.017	168.529	6.0	1	7.1	2.22	14.0412	955.0	2.22	Outcome1	7.1	4.43	0.0	No	n/a	2.6681766704416803	n/a	n/a	n/a	ISITrial	Gain
96.017	3.0	0.016	174.777	7.0	1	1.0	1.0	14.1662	955.0	0.3	Certain	-0.11	2.7	0.0	No	4.0	2.8074745186863	1.398	97.415	n/a	GetAnswer	Mixed
97.433	4.0	0.018	176.193	7.0	1	1.0	1.0	14.1662	955.0	0.3	Certain	-0.11	2.7	0.0	No	n/a	2.8074745186863	n/a	n/a	n/a	ShowChoice	Mixed
101.448	1.0	0.015	180.208	7.0	1	1.0	1.0	14.1662	955.0	0.3	Certain	-0.11	2.7	0.0	No	n/a	2.8074745186863	n/a	n/a	n/a	ShowResult	Mixed
102.464	2.305	0.016	181.224	7.0	1	1.0	1.0	14.1662	955.0	0.3	Certain	-0.11	2.7	0.0	No	n/a	2.8074745186863	n/a	n/a	n/a	ISITrial	Mixed
104.797	3.0	0.028	183.557	8.0	1	10.33	5.16	15.4574	955.0	2.0	Outcome1	10.33	10.9	3.1125	Yes	2.0	-0.570592676481691	1.203	106.0	n/a	GetAnswer	Loss
106.013	4.0	0.013	184.773	8.0	1	10.33	5.16	15.4574	955.0	2.0	Outcome1	10.33	10.9	3.1125	Yes	n/a	-0.570592676481691	n/a	n/a	n/a	ShowChoice	Loss
110.028	1.0	0.015	188.788	8.0	1	10.33	5.16	15.4574	955.0	2.0	Outcome1	10.33	10.9	3.1125	Yes	n/a	-0.570592676481691	n/a	n/a	n/a	ShowResult	Loss
111.045	3.506	0.017	189.805	8.0	1	10.33	5.16	15.4574	955.0	2.0	Outcome1	10.33	10.9	3.1125	Yes	n/a	-0.570592676481691	n/a	n/a	n/a	ISITrial	Loss
114.577	3.112	0.026	193.337	8.0	1	10.33	5.16	15.4574	955.0	2.0	Outcome1	10.33	10.9	3.1125	Yes	n/a	-0.570592676481691	n/a	n/a	n/a	TrialHappPreview	Loss
117.709	4.015	0.02	196.469	8.0	1	10.33	5.16	15.4574	955.0	2.0	Outcome1	10.33	10.9	3.1125	Yes	n/a	-0.570592676481691	n/a	n/a	832.0	TrialHappiness	Loss
117.71	0.803	n/a	197.124	8.0	1	10.33	5.16	15.4574	955.0	2.0	Outcome1	10.33	10.9	3.1125	Yes	n/a	-0.570592676481691	n/a	n/a	832.0	TrialHappinessSliderResponse	Loss
121.724	4.45	4.015	200.484	8.0	1	10.33	5.16	15.4574	955.0	2.0	Outcome1	10.33	10.9	3.1125	Yes	n/a	-0.570592676481691	n/a	n/a	n/a	ISIRate	Loss
126.19	3.0	0.016	204.95	9.0	1	13.3	5.11	17.1199	955.0	2.48	Outcome1	13.3	10.21	0.0	No	2.0	3.08607021517554	1.025	127.215	n/a	GetAnswer	Loss
127.239	4.0	0.024	205.999	9.0	1	13.3	5.11	17.1199	955.0	2.48	Outcome1	13.3	10.21	0.0	No	n/a	3.08607021517554	n/a	n/a	n/a	ShowChoice	Loss
131.254	1.0	0.015	210.014	9.0	1	13.3	5.11	17.1199	955.0	2.48	Outcome1	13.3	10.21	0.0	No	n/a	3.08607021517554	n/a	n/a	n/a	ShowResult	Loss
132.271	2.0	0.017	211.031	9.0	1	13.3	5.11	17.1199	955.0	2.48	Outcome1	13.3	10.21	0.0	No	n/a	3.08607021517554	n/a	n/a	n/a	ISITrial	Loss
134.287	3.0	0.016	213.047	10.0	1	6.56	6.56	17.9399	955.0	3.16	Certain	13.7	13.11	4.0	Yes	4.0	-0.5938089845224611	1.309	135.596	n/a	GetAnswer	Loss
135.62	4.0	0.024	214.38	10.0	1	6.56	6.56	17.9399	955.0	3.16	Certain	13.7	13.11	4.0	Yes	n/a	-0.5938089845224611	n/a	n/a	n/a	ShowChoice	Loss
139.635	1.0	0.015	218.395	10.0	1	6.56	6.56	17.9399	955.0	3.16	Certain	13.7	13.11	4.0	Yes	n/a	-0.5938089845224611	n/a	n/a	n/a	ShowResult	Loss
140.651	2.0	0.016	219.411	10.0	1	6.56	6.56	17.9399	955.0	3.16	Certain	13.7	13.11	4.0	Yes	n/a	-0.5938089845224611	n/a	n/a	n/a	ISITrial	Loss
142.667	4.0	0.016	221.427	10.0	1	6.56	6.56	17.9399	955.0	3.16	Certain	13.7	13.11	4.0	Yes	n/a	-0.5938089845224611	n/a	n/a	n/a	TrialHappPreview	Loss
146.682	4.016	0.015	225.442	10.0	1	6.56	6.56	17.9399	955.0	3.16	Certain	13.7	13.11	4.0	Yes	n/a	-0.5938089845224611	n/a	n/a	920.0	TrialHappiness	Loss
146.683	0.985	n/a	225.93	10.0	1	6.56	6.56	17.9399	955.0	3.16	Certain	13.7	13.11	4.0	Yes	n/a	-0.5938089845224611	n/a	n/a	920.0	TrialHappinessSliderResponse	Loss
150.698	8.0	4.016	229.458	10.0	1	6.56	6.56	17.9399	955.0	3.16	Certain	13.7	13.11	4.0	Yes	n/a	-0.5938089845224611	n/a	n/a	n/a	ISIRate	Loss
158.728	3.0	0.03	237.488	11.0	1	12.5	5.32	19.5024	955.0	1.68	Outcome2	10.63	12.5	0.0	No	2.0	1.86976217440544	1.648	160.376	n/a	GetAnswer	Loss
160.394	4.0	0.018	239.154	11.0	1	12.5	5.32	19.5024	955.0	1.68	Outcome2	10.63	12.5	0.0	No	n/a	1.86976217440544	n/a	n/a	n/a	ShowChoice	Loss
164.41	1.0	0.016	243.17	11.0	1	12.5	5.32	19.5024	955.0	1.68	Outcome2	10.63	12.5	0.0	No	n/a	1.86976217440544	n/a	n/a	n/a	ShowResult	Loss
165.426	3.324	0.016	244.186	11.0	1	12.5	5.32	19.5024	955.0	1.68	Outcome2	10.63	12.5	0.0	No	n/a	1.86976217440544	n/a	n/a	n/a	ISITrial	Loss
168.775	3.0	0.025	247.535	12.0	1	2.1	2.1	19.7649	955.0	4.2	Certain	4.19	6.1	2.61875	Yes	4.0	1.90939977349943	1.532	170.307	n/a	GetAnswer	Gain
170.324	4.0	0.017	249.084	12.0	1	2.1	2.1	19.7649	955.0	4.2	Certain	4.19	6.1	2.61875	Yes	n/a	1.90939977349943	n/a	n/a	n/a	ShowChoice	Gain
174.34	1.0	0.016	253.1	12.0	1	2.1	2.1	19.7649	955.0	4.2	Certain	4.19	6.1	2.61875	Yes	n/a	1.90939977349943	n/a	n/a	n/a	ShowResult	Gain
175.356	6.642	0.016	254.116	12.0	1	2.1	2.1	19.7649	955.0	4.2	Certain	4.19	6.1	2.61875	Yes	n/a	1.90939977349943	n/a	n/a	n/a	ISITrial	Gain
182.02	2.619	0.022	260.78	12.0	1	2.1	2.1	19.7649	955.0	4.2	Certain	4.19	6.1	2.61875	Yes	n/a	1.90939977349943	n/a	n/a	n/a	TrialHappPreview	Gain
184.653	4.015	0.014	263.413	12.0	1	2.1	2.1	19.7649	955.0	4.2	Certain	4.19	6.1	2.61875	Yes	n/a	1.90939977349943	n/a	n/a	840.0	TrialHappiness	Gain
184.653	1.575	n/a	263.911	12.0	1	2.1	2.1	19.7649	955.0	4.2	Certain	4.19	6.1	2.61875	Yes	n/a	1.90939977349943	n/a	n/a	840.0	TrialHappinessSliderResponse	Gain
188.668	2.475	4.015	267.428	12.0	1	2.1	2.1	19.7649	955.0	4.2	Certain	4.19	6.1	2.61875	Yes	n/a	1.90939977349943	n/a	n/a	n/a	ISIRate	Gain
191.167	3.0	0.024	269.927	13.0	1	-1.1	-3.0	19.6274	955.0	0.4	Outcome1	-1.1	-4.41	0.0	No	2.0	3.30804077010192	1.244	192.411	n/a	GetAnswer	Mixed
192.433	4.0	0.022	271.193	13.0	1	-1.1	-3.0	19.6274	955.0	0.4	Outcome1	-1.1	-4.41	0.0	No	n/a	3.30804077010192	n/a	n/a	n/a	ShowChoice	Mixed
196.449	1.0	0.016	275.209	13.0	1	-1.1	-3.0	19.6274	955.0	0.4	Outcome1	-1.1	-4.41	0.0	No	n/a	3.30804077010192	n/a	n/a	n/a	ShowResult	Mixed
197.465	3.48	0.016	276.225	13.0	1	-1.1	-3.0	19.6274	955.0	0.4	Outcome1	-1.1	-4.41	0.0	No	n/a	3.30804077010192	n/a	n/a	n/a	ISITrial	Mixed
200.964	3.0	0.019	279.724	14.0	1	9.1	2.83	20.7649	955.0	2.22	Outcome1	9.1	5.66	0.0	No	2.0	3.4382785956964903	1.418	202.382	n/a	GetAnswer	Gain
202.397	4.0	0.015	281.157	14.0	1	9.1	2.83	20.7649	955.0	2.22	Outcome1	9.1	5.66	0.0	No	n/a	3.4382785956964903	n/a	n/a	n/a	ShowChoice	Gain
206.412	1.0	0.015	285.172	14.0	1	9.1	2.83	20.7649	955.0	2.22	Outcome1	9.1	5.66	0.0	No	n/a	3.4382785956964903	n/a	n/a	n/a	ShowResult	Gain
207.428	5.019	0.016	286.188	14.0	1	9.1	2.83	20.7649	955.0	2.22	Outcome1	9.1	5.66	0.0	No	n/a	3.4382785956964903	n/a	n/a	n/a	ISITrial	Gain
212.476	3.0	0.029	291.236	15.0	1	5.3	0.86	21.4274	955.0	2.48	Outcome1	5.3	1.73	3.3485	Yes	2.0	3.56851642129105	1.49	213.966	n/a	GetAnswer	Gain
213.992	4.0	0.026	292.752	15.0	1	5.3	0.86	21.4274	955.0	2.48	Outcome1	5.3	1.73	3.3485	Yes	n/a	3.56851642129105	n/a	n/a	n/a	ShowChoice	Gain
218.008	1.0	0.016	296.768	15.0	1	5.3	0.86	21.4274	955.0	2.48	Outcome1	5.3	1.73	3.3485	Yes	n/a	3.56851642129105	n/a	n/a	n/a	ShowResult	Gain
219.024	7.614	0.016	297.784	15.0	1	5.3	0.86	21.4274	955.0	2.48	Outcome1	5.3	1.73	3.3485	Yes	n/a	3.56851642129105	n/a	n/a	n/a	ISITrial	Gain
226.655	3.348	0.017	305.415	15.0	1	5.3	0.86	21.4274	955.0	2.48	Outcome1	5.3	1.73	3.3485	Yes	n/a	3.56851642129105	n/a	n/a	n/a	TrialHappPreview	Gain
230.02	4.016	0.017	308.78	15.0	1	5.3	0.86	21.4274	955.0	2.48	Outcome1	5.3	1.73	3.3485	Yes	n/a	3.56851642129105	n/a	n/a	832.0	TrialHappiness	Gain
230.021	1.6	n/a	309.554	15.0	1	5.3	0.86	21.4274	955.0	2.48	Outcome1	5.3	1.73	3.3485	Yes	n/a	3.56851642129105	n/a	n/a	832.0	TrialHappinessSliderResponse	Gain
234.036	5.394	4.016	312.796	15.0	1	5.3	0.86	21.4274	955.0	2.48	Outcome1	5.3	1.73	3.3485	Yes	n/a	3.56851642129105	n/a	n/a	n/a	ISIRate	Gain
239.45	3.0	0.02	318.21	16.0	1	1.0	1.0	21.5524	955.0	0.52	Certain	3.1	-0.73	0.0	No	4.0	3.83465458663647	1.286	240.736	n/a	GetAnswer	Mixed
240.75	4.0	0.014	319.51	16.0	1	1.0	1.0	21.5524	955.0	0.52	Certain	3.1	-0.73	0.0	No	n/a	3.83465458663647	n/a	n/a	n/a	ShowChoice	Mixed
244.765	1.0	0.015	323.525	16.0	1	1.0	1.0	21.5524	955.0	0.52	Certain	3.1	-0.73	0.0	No	n/a	3.83465458663647	n/a	n/a	n/a	ShowResult	Mixed
245.781	3.008	0.016	324.541	16.0	1	1.0	1.0	21.5524	955.0	0.52	Certain	3.1	-0.73	0.0	No	n/a	3.83465458663647	n/a	n/a	n/a	ISITrial	Mixed
248.814	3.0	0.025	327.574	17.0	1	6.5	1.26	22.3649	955.0	1.68	Outcome2	2.53	6.5	3.0415	Yes	2.0	3.97395243488109	0.928	249.742	n/a	GetAnswer	Gain
249.763	4.0	0.021	328.523	17.0	1	6.5	1.26	22.3649	955.0	1.68	Outcome2	2.53	6.5	3.0415	Yes	n/a	3.97395243488109	n/a	n/a	n/a	ShowChoice	Gain
253.779	1.0	0.016	332.539	17.0	1	6.5	1.26	22.3649	955.0	1.68	Outcome2	2.53	6.5	3.0415	Yes	n/a	3.97395243488109	n/a	n/a	n/a	ShowResult	Gain
254.795	3.566	0.016	333.555	17.0	1	6.5	1.26	22.3649	955.0	1.68	Outcome2	2.53	6.5	3.0415	Yes	n/a	3.97395243488109	n/a	n/a	n/a	ISITrial	Gain
258.377	3.042	0.016	337.137	17.0	1	6.5	1.26	22.3649	955.0	1.68	Outcome2	2.53	6.5	3.0415	Yes	n/a	3.97395243488109	n/a	n/a	n/a	TrialHappPreview	Gain
261.443	4.015	0.024	340.203	17.0	1	6.5	1.26	22.3649	955.0	1.68	Outcome2	2.53	6.5	3.0415	Yes	n/a	3.97395243488109	n/a	n/a	856.0	TrialHappiness	Gain
261.443	0.865	n/a	340.793	17.0	1	6.5	1.26	22.3649	955.0	1.68	Outcome2	2.53	6.5	3.0415	Yes	n/a	3.97395243488109	n/a	n/a	856.0	TrialHappinessSliderResponse	Gain
265.458	4.166	4.015	344.218	17.0	1	6.5	1.26	22.3649	955.0	1.68	Outcome2	2.53	6.5	3.0415	Yes	n/a	3.97395243488109	n/a	n/a	n/a	ISIRate	Gain
269.64	3.0	0.016	348.4	18.0	1	13.1	4.7	24.0024	955.0	2.22	Outcome1	13.1	9.39	0.0	No	2.0	3.70554926387316	1.016	270.656	n/a	GetAnswer	Loss
270.673	4.0	0.017	349.433	18.0	1	13.1	4.7	24.0024	955.0	2.22	Outcome1	13.1	9.39	0.0	No	n/a	3.70554926387316	n/a	n/a	n/a	ShowChoice	Loss
274.688	1.0	0.015	353.448	18.0	1	13.1	4.7	24.0024	955.0	2.22	Outcome1	13.1	9.39	0.0	No	n/a	3.70554926387316	n/a	n/a	n/a	ShowResult	Loss
275.704	6.787	0.016	354.464	18.0	1	13.1	4.7	24.0024	955.0	2.22	Outcome1	13.1	9.39	0.0	No	n/a	3.70554926387316	n/a	n/a	n/a	ISITrial	Loss
282.519	3.0	0.028	361.279	19.0	1	10.7	3.44	25.3399	955.0	1.82	Outcome1	10.7	6.88	0.0	No	2.0	3.8176670441676097	1.665	284.184	n/a	GetAnswer	Loss
284.202	4.0	0.018	362.962	19.0	1	10.7	3.44	25.3399	955.0	1.82	Outcome1	10.7	6.88	0.0	No	n/a	3.8176670441676097	n/a	n/a	n/a	ShowChoice	Loss
288.217	1.0	0.015	366.977	19.0	1	10.7	3.44	25.3399	955.0	1.82	Outcome1	10.7	6.88	0.0	No	n/a	3.8176670441676097	n/a	n/a	n/a	ShowResult	Loss
289.233	2.0	0.016	367.993	19.0	1	10.7	3.44	25.3399	955.0	1.82	Outcome1	10.7	6.88	0.0	No	n/a	3.8176670441676097	n/a	n/a	n/a	ISITrial	Loss
291.249	3.0	0.016	370.009	20.0	1	4.66	4.66	25.9224	955.0	3.6	Certain	9.31	9.9	2.92125	Yes	4.0	-0.589090222725557	1.621	292.87	n/a	GetAnswer	Gain
292.882	4.0	0.012	371.642	20.0	1	4.66	4.66	25.9224	955.0	3.6	Certain	9.31	9.9	2.92125	Yes	n/a	-0.589090222725557	n/a	n/a	n/a	ShowChoice	Gain
296.897	1.0	0.015	375.657	20.0	1	4.66	4.66	25.9224	955.0	3.6	Certain	9.31	9.9	2.92125	Yes	n/a	-0.589090222725557	n/a	n/a	n/a	ShowResult	Gain
297.913	8.0	0.016	376.673	20.0	1	4.66	4.66	25.9224	955.0	3.6	Certain	9.31	9.9	2.92125	Yes	n/a	-0.589090222725557	n/a	n/a	n/a	ISITrial	Gain
305.927	2.921	0.014	384.687	20.0	1	4.66	4.66	25.9224	955.0	3.6	Certain	9.31	9.9	2.92125	Yes	n/a	-0.589090222725557	n/a	n/a	n/a	TrialHappPreview	Gain
308.876	4.016	0.028	387.636	20.0	1	4.66	4.66	25.9224	955.0	3.6	Certain	9.31	9.9	2.92125	Yes	n/a	-0.589090222725557	n/a	n/a	840.0	TrialHappiness	Gain
308.877	0.833	n/a	388.36	20.0	1	4.66	4.66	25.9224	955.0	3.6	Certain	9.31	9.9	2.92125	Yes	n/a	-0.589090222725557	n/a	n/a	840.0	TrialHappinessSliderResponse	Gain
312.892	3.685	4.016	391.652	20.0	1	4.66	4.66	25.9224	955.0	3.6	Certain	9.31	9.9	2.92125	Yes	n/a	-0.589090222725557	n/a	n/a	n/a	ISIRate	Gain
316.607	3.0	0.03	395.367	21.0	1	4.3	4.3	26.4599	955.0	2.0	Certain	8.59	12.9	0.0	No	4.0	4.31370328425821	1.589	318.196	n/a	GetAnswer	Loss
318.223	4.0	0.027	396.983	21.0	1	4.3	4.3	26.4599	955.0	2.0	Certain	8.59	12.9	0.0	No	n/a	4.31370328425821	n/a	n/a	n/a	ShowChoice	Loss
322.238	1.0	0.015	400.998	21.0	1	4.3	4.3	26.4599	955.0	2.0	Certain	8.59	12.9	0.0	No	n/a	4.31370328425821	n/a	n/a	n/a	ShowResult	Loss
323.255	3.555	0.017	402.015	21.0	1	4.3	4.3	26.4599	955.0	2.0	Certain	8.59	12.9	0.0	No	n/a	4.31370328425821	n/a	n/a	n/a	ISITrial	Loss
326.837	3.0	0.027	405.597	22.0	1	3.63	1.82	26.9137	955.0	2.0	Outcome2	4.3	3.63	3.2195	Yes	2.0	-0.674216685541714	1.656	328.493	n/a	GetAnswer	Mixed
328.52	4.0	0.027	407.28	22.0	1	3.63	1.82	26.9137	955.0	2.0	Outcome2	4.3	3.63	3.2195	Yes	n/a	-0.674216685541714	n/a	n/a	n/a	ShowChoice	Mixed
332.535	1.0	0.015	411.295	22.0	1	3.63	1.82	26.9137	955.0	2.0	Outcome2	4.3	3.63	3.2195	Yes	n/a	-0.674216685541714	n/a	n/a	n/a	ShowResult	Mixed
333.551	6.793	0.016	412.311	22.0	1	3.63	1.82	26.9137	955.0	2.0	Outcome2	4.3	3.63	3.2195	Yes	n/a	-0.674216685541714	n/a	n/a	n/a	ISITrial	Mixed
340.365	3.22	0.021	419.125	22.0	1	3.63	1.82	26.9137	955.0	2.0	Outcome2	4.3	3.63	3.2195	Yes	n/a	-0.674216685541714	n/a	n/a	n/a	TrialHappPreview	Mixed
343.614	4.016	0.029	422.374	22.0	1	3.63	1.82	26.9137	955.0	2.0	Outcome2	4.3	3.63	3.2195	Yes	n/a	-0.674216685541714	n/a	n/a	800.0	TrialHappiness	Mixed
343.615	1.45	n/a	423.06	22.0	1	3.63	1.82	26.9137	955.0	2.0	Outcome2	4.3	3.63	3.2195	Yes	n/a	-0.674216685541714	n/a	n/a	800.0	TrialHappinessSliderResponse	Mixed
347.63	4.878	4.016	426.39	22.0	1	3.63	1.82	26.9137	955.0	2.0	Outcome2	4.3	3.63	3.2195	Yes	n/a	-0.674216685541714	n/a	n/a	n/a	ISIRate	Mixed
352.528	3.0	0.02	431.288	23.0	1	-2.0	-2.0	26.6637	955.0	0.3	Certain	-4.55	0.7	0.0	No	4.0	5.25368063420159	1.585	354.113	n/a	GetAnswer	Mixed
354.127	4.0	0.014	432.887	23.0	1	-2.0	-2.0	26.6637	955.0	0.3	Certain	-4.55	0.7	0.0	No	n/a	5.25368063420159	n/a	n/a	n/a	ShowChoice	Mixed
358.143	1.0	0.016	436.903	23.0	1	-2.0	-2.0	26.6637	955.0	0.3	Certain	-4.55	0.7	0.0	No	n/a	5.25368063420159	n/a	n/a	n/a	ShowResult	Mixed
359.159	8.0	0.016	437.919	23.0	1	-2.0	-2.0	26.6637	955.0	0.3	Certain	-4.55	0.7	0.0	No	n/a	5.25368063420159	n/a	n/a	n/a	ISITrial	Mixed
367.19	3.0	0.031	445.95	24.0	1	9.5	2.04	27.8512	955.0	2.8	Outcome2	4.07	9.5	3.255	Yes	2.0	5.4292185730464295	1.674	368.864	n/a	GetAnswer	Gain
368.889	4.0	0.025	447.649	24.0	1	9.5	2.04	27.8512	955.0	2.8	Outcome2	4.07	9.5	3.255	Yes	n/a	5.4292185730464295	n/a	n/a	n/a	ShowChoice	Gain
372.904	1.0	0.015	451.664	24.0	1	9.5	2.04	27.8512	955.0	2.8	Outcome2	4.07	9.5	3.255	Yes	n/a	5.4292185730464295	n/a	n/a	n/a	ShowResult	Gain
373.921	2.0	0.017	452.681	24.0	1	9.5	2.04	27.8512	955.0	2.8	Outcome2	4.07	9.5	3.255	Yes	n/a	5.4292185730464295	n/a	n/a	n/a	ISITrial	Gain
375.936	3.255	0.015	454.696	24.0	1	9.5	2.04	27.8512	955.0	2.8	Outcome2	4.07	9.5	3.255	Yes	n/a	5.4292185730464295	n/a	n/a	n/a	TrialHappPreview	Gain
379.219	4.015	0.028	457.979	24.0	1	9.5	2.04	27.8512	955.0	2.8	Outcome2	4.07	9.5	3.255	Yes	n/a	5.4292185730464295	n/a	n/a	784.0	TrialHappiness	Gain
379.219	1.13	n/a	458.455	24.0	1	9.5	2.04	27.8512	955.0	2.8	Outcome2	4.07	9.5	3.255	Yes	n/a	5.4292185730464295	n/a	n/a	784.0	TrialHappinessSliderResponse	Gain
383.234	5.02	4.015	461.994	24.0	1	9.5	2.04	27.8512	955.0	2.8	Outcome2	4.07	9.5	3.255	Yes	n/a	5.4292185730464295	n/a	n/a	n/a	ISIRate	Gain
388.282	3.0	0.028	467.042	25.0	1	-1.0	-1.0	27.7262	955.0	0.82	Certain	1.5	-4.38	0.0	No	4.0	5.876557191392981	1.301	389.583	n/a	GetAnswer	Mixed
389.598	4.0	0.015	468.358	25.0	1	-1.0	-1.0	27.7262	955.0	0.82	Certain	1.5	-4.38	0.0	No	n/a	5.876557191392981	n/a	n/a	n/a	ShowChoice	Mixed
393.614	1.0	0.016	472.374	25.0	1	-1.0	-1.0	27.7262	955.0	0.82	Certain	1.5	-4.38	0.0	No	n/a	5.876557191392981	n/a	n/a	n/a	ShowResult	Mixed
394.63	3.749	0.016	473.39	25.0	1	-1.0	-1.0	27.7262	955.0	0.82	Certain	1.5	-4.38	0.0	No	n/a	5.876557191392981	n/a	n/a	n/a	ISITrial	Mixed
398.412	3.0	0.033	477.172	26.0	1	2.0	2.0	27.9762	955.0	2.8	Certain	-0.57	5.5	0.0	No	4.0	6.07021517553794	1.132	399.544	n/a	GetAnswer	Gain
399.562	4.0	0.018	478.322	26.0	1	2.0	2.0	27.9762	955.0	2.8	Certain	-0.57	5.5	0.0	No	n/a	6.07021517553794	n/a	n/a	n/a	ShowChoice	Gain
403.577	1.0	0.015	482.337	26.0	1	2.0	2.0	27.9762	955.0	2.8	Certain	-0.57	5.5	0.0	No	n/a	6.07021517553794	n/a	n/a	n/a	ShowResult	Gain
404.593	7.834	0.016	483.353	26.0	1	2.0	2.0	27.9762	955.0	2.8	Certain	-0.57	5.5	0.0	No	n/a	6.07021517553794	n/a	n/a	n/a	ISITrial	Gain
412.457	3.0	0.03	491.217	27.0	1	-1.0	-1.0	27.8512	955.0	0.52	Certain	-0.9	-1.87	2.54975	Yes	4.0	-0.9738580596451492	1.805	414.262	n/a	GetAnswer	Mixed
414.29	4.0	0.028	493.05	27.0	1	-1.0	-1.0	27.8512	955.0	0.52	Certain	-0.9	-1.87	2.54975	Yes	n/a	-0.9738580596451492	n/a	n/a	n/a	ShowChoice	Mixed
418.305	1.0	0.015	497.065	27.0	1	-1.0	-1.0	27.8512	955.0	0.52	Certain	-0.9	-1.87	2.54975	Yes	n/a	-0.9738580596451492	n/a	n/a	n/a	ShowResult	Mixed
419.321	4.225	0.016	498.081	27.0	1	-1.0	-1.0	27.8512	955.0	0.52	Certain	-0.9	-1.87	2.54975	Yes	n/a	-0.9738580596451492	n/a	n/a	n/a	ISITrial	Mixed
423.57	2.55	0.024	502.33	27.0	1	-1.0	-1.0	27.8512	955.0	0.52	Certain	-0.9	-1.87	2.54975	Yes	n/a	-0.9738580596451492	n/a	n/a	n/a	TrialHappPreview	Mixed
426.136	4.015	0.016	504.896	27.0	1	-1.0	-1.0	27.8512	955.0	0.52	Certain	-0.9	-1.87	2.54975	Yes	n/a	-0.9738580596451492	n/a	n/a	856.0	TrialHappiness	Mixed
426.136	0.862	n/a	505.539	27.0	1	-1.0	-1.0	27.8512	955.0	0.52	Certain	-0.9	-1.87	2.54975	Yes	n/a	-0.9738580596451492	n/a	n/a	856.0	TrialHappinessSliderResponse	Mixed
430.151	2.199	4.015	508.911	27.0	1	-1.0	-1.0	27.8512	955.0	0.52	Certain	-0.9	-1.87	2.54975	Yes	n/a	-0.9738580596451492	n/a	n/a	n/a	ISIRate	Mixed
474.603	0.911	n/a	554.024	n/a	1	n/a	n/a	n/a	n/a	n/a	n/a	n/a	n/a	n/a	n/a	n/a	n/a	n/a	n/a	880.0	BlockStartHappinessSliderResponse	n/a
-54.631	-0.001	0.034	511.144	n/a	2	n/a	n/a	n/a	n/a	n/a	n/a	n/a	n/a	n/a	n/a	{SPACE}	n/a	38.183	-16.448	n/a	Rest	n/a
-16.428	4.0	0.02	549.347	n/a	2	n/a	n/a	n/a	n/a	n/a	n/a	n/a	n/a	n/a	n/a	n/a	n/a	n/a	n/a	n/a	BlockHappyPreview	n/a
-12.413	1.572	0.015	553.362	n/a	2	n/a	n/a	n/a	n/a	n/a	n/a	n/a	n/a	n/a	n/a	n/a	n/a	n/a	n/a	880.0	BlockStartHappiness	n/a
-3.516	-0.001	0.021	562.259	n/a	2	n/a	n/a	n/a	n/a	n/a	n/a	n/a	n/a	n/a	n/a	5.0	n/a	3.503	-0.013	n/a	ScanWait	n/a
0.0	10.0	0.013	565.775	n/a	2	n/a	n/a	n/a	n/a	n/a	n/a	n/a	n/a	n/a	n/a	n/a	n/a	n/a	n/a	n/a	GetReady	n/a
10.03	3.0	0.03	575.805	28.0	2	1.0	1.0	27.9762	70.0	2.48	Certain	-0.47	2.82	0.0	No	4.0	3.2908163265306096	1.23	11.26	n/a	GetAnswer	Loss
11.279	4.0	0.019	577.054	28.0	2	1.0	1.0	27.9762	70.0	2.48	Certain	-0.47	2.82	0.0	No	n/a	3.2908163265306096	n/a	n/a	n/a	ShowChoice	Loss
15.294	1.0	0.015	581.069	28.0	2	1.0	1.0	27.9762	70.0	2.48	Certain	-0.47	2.82	0.0	No	n/a	3.2908163265306096	n/a	n/a	n/a	ShowResult	Loss
16.311	3.575	0.017	582.086	28.0	2	1.0	1.0	27.9762	70.0	2.48	Certain	-0.47	2.82	0.0	No	n/a	3.2908163265306096	n/a	n/a	n/a	ISITrial	Loss
19.91	3.0	0.024	585.685	29.0	2	-2.0	-2.0	27.7262	70.0	1.82	Certain	4.7	-9.99	3.529	Yes	4.0	-14.6938775510204	1.515	21.425	n/a	GetAnswer	Gain
21.442	4.0	0.017	587.217	29.0	2	-2.0	-2.0	27.7262	70.0	1.82	Certain	4.7	-9.99	3.529	Yes	n/a	-14.6938775510204	n/a	n/a	n/a	ShowChoice	Gain
25.458	1.0	0.016	591.233	29.0	2	-2.0	-2.0	27.7262	70.0	1.82	Certain	4.7	-9.99	3.529	Yes	n/a	-14.6938775510204	n/a	n/a	n/a	ShowResult	Gain
26.474	3.955	0.016	592.249	29.0	2	-2.0	-2.0	27.7262	70.0	1.82	Certain	4.7	-9.99	3.529	Yes	n/a	-14.6938775510204	n/a	n/a	n/a	ISITrial	Gain
30.456	3.529	0.027	596.231	29.0	2	-2.0	-2.0	27.7262	70.0	1.82	Certain	4.7	-9.99	3.529	Yes	n/a	-14.6938775510204	n/a	n/a	n/a	TrialHappPreview	Gain
34.005	4.015	0.02	599.78	29.0	2	-2.0	-2.0	27.7262	70.0	1.82	Certain	4.7	-9.99	3.529	Yes	n/a	-14.6938775510204	n/a	n/a	872.0	TrialHappiness	Gain
34.005	1.797	n/a	600.356	29.0	2	-2.0	-2.0	27.7262	70.0	1.82	Certain	4.7	-9.99	3.529	Yes	n/a	-14.6938775510204	n/a	n/a	872.0	TrialHappinessSliderResponse	Gain
38.02	6.116	4.015	603.795	29.0	2	-2.0	-2.0	27.7262	70.0	1.82	Certain	4.7	-9.99	3.529	Yes	n/a	-14.6938775510204	n/a	n/a	n/a	ISIRate	Gain
44.168	3.0	0.032	609.943	30.0	2	-11.58	-4.0	26.2787	70.0	1.2	Outcome2	3.9	-11.58	0.0	No	2.0	-15.4761904761905	1.183	45.351	n/a	GetAnswer	Mixed
45.367	4.0	0.016	611.142	30.0	2	-11.58	-4.0	26.2787	70.0	1.2	Outcome2	3.9	-11.58	0.0	No	n/a	-15.4761904761905	n/a	n/a	n/a	ShowChoice	Mixed
49.383	1.0	0.016	615.158	30.0	2	-11.58	-4.0	26.2787	70.0	1.2	Outcome2	3.9	-11.58	0.0	No	n/a	-15.4761904761905	n/a	n/a	n/a	ShowResult	Mixed
50.399	4.453	0.016	616.174	30.0	2	-11.58	-4.0	26.2787	70.0	1.2	Outcome2	3.9	-11.58	0.0	No	n/a	-15.4761904761905	n/a	n/a	n/a	ISITrial	Mixed
54.881	3.0	0.029	620.656	31.0	2	-1.0	-1.0	26.1537	70.0	1.82	Certain	-9.69	6.7	2.50325	Yes	4.0	-16.3854875283447	1.434	56.315	n/a	GetAnswer	Gain
56.33	4.0	0.015	622.105	31.0	2	-1.0	-1.0	26.1537	70.0	1.82	Certain	-9.69	6.7	2.50325	Yes	n/a	-16.3854875283447	n/a	n/a	n/a	ShowChoice	Gain
60.346	1.0	0.016	626.121	31.0	2	-1.0	-1.0	26.1537	70.0	1.82	Certain	-9.69	6.7	2.50325	Yes	n/a	-16.3854875283447	n/a	n/a	n/a	ShowResult	Gain
61.362	4.786	0.016	627.137	31.0	2	-1.0	-1.0	26.1537	70.0	1.82	Certain	-9.69	6.7	2.50325	Yes	n/a	-16.3854875283447	n/a	n/a	n/a	ISITrial	Gain
66.16	2.503	0.012	631.935	31.0	2	-1.0	-1.0	26.1537	70.0	1.82	Certain	-9.69	6.7	2.50325	Yes	n/a	-16.3854875283447	n/a	n/a	n/a	TrialHappPreview	Gain
68.693	4.015	0.03	634.468	31.0	2	-1.0	-1.0	26.1537	70.0	1.82	Certain	-9.69	6.7	2.50325	Yes	n/a	-16.3854875283447	n/a	n/a	768.0	TrialHappiness	Gain
68.693	0.673	n/a	635.15	31.0	2	-1.0	-1.0	26.1537	70.0	1.82	Certain	-9.69	6.7	2.50325	Yes	n/a	-16.3854875283447	n/a	n/a	768.0	TrialHappinessSliderResponse	Gain
72.708	2.013	4.015	638.483	31.0	2	-1.0	-1.0	26.1537	70.0	1.82	Certain	-9.69	6.7	2.50325	Yes	n/a	-16.3854875283447	n/a	n/a	n/a	ISIRate	Gain
74.741	3.0	0.02	640.516	32.0	2	-9.83	-2.0	24.9249	70.0	3.16	Outcome2	5.7	-9.83	0.0	No	2.0	-15.5260770975057	1.114	75.855	n/a	GetAnswer	Gain
75.874	4.0	0.019	641.649	32.0	2	-9.83	-2.0	24.9249	70.0	3.16	Outcome2	5.7	-9.83	0.0	No	n/a	-15.5260770975057	n/a	n/a	n/a	ShowChoice	Gain
79.889	1.0	0.015	645.664	32.0	2	-9.83	-2.0	24.9249	70.0	3.16	Outcome2	5.7	-9.83	0.0	No	n/a	-15.5260770975057	n/a	n/a	n/a	ShowResult	Gain
80.905	2.0	0.016	646.68	32.0	2	-9.83	-2.0	24.9249	70.0	3.16	Outcome2	5.7	-9.83	0.0	No	n/a	-15.5260770975057	n/a	n/a	n/a	ISITrial	Gain
82.938	3.0	0.033	648.713	33.0	2	-14.62	-6.0	23.0974	70.0	1.0	Outcome2	1.7	-14.62	0.0	No	2.0	-16.317460317460302	1.483	84.421	n/a	GetAnswer	Mixed
84.437	4.0	0.016	650.212	33.0	2	-14.62	-6.0	23.0974	70.0	1.0	Outcome2	1.7	-14.62	0.0	No	n/a	-16.317460317460302	n/a	n/a	n/a	ShowChoice	Mixed
88.453	1.0	0.016	654.228	33.0	2	-14.62	-6.0	23.0974	70.0	1.0	Outcome2	1.7	-14.62	0.0	No	n/a	-16.317460317460302	n/a	n/a	n/a	ShowResult	Mixed
89.469	5.099	0.016	655.244	33.0	2	-14.62	-6.0	23.0974	70.0	1.0	Outcome2	1.7	-14.62	0.0	No	n/a	-16.317460317460302	n/a	n/a	n/a	ISITrial	Mixed
94.6	3.0	0.032	660.375	34.0	2	-8.0	-8.0	22.0974	70.0	2.0	Certain	-16.81	0.3	3.2315	Yes	4.0	-17.108843537414998	1.329	95.929	n/a	GetAnswer	Mixed
95.95	4.0	0.021	661.725	34.0	2	-8.0	-8.0	22.0974	70.0	2.0	Certain	-16.81	0.3	3.2315	Yes	n/a	-17.108843537414998	n/a	n/a	n/a	ShowChoice	Mixed
99.965	1.0	0.015	665.74	34.0	2	-8.0	-8.0	22.0974	70.0	2.0	Certain	-16.81	0.3	3.2315	Yes	n/a	-17.108843537414998	n/a	n/a	n/a	ShowResult	Mixed
100.982	4.784	0.017	666.757	34.0	2	-8.0	-8.0	22.0974	70.0	2.0	Certain	-16.81	0.3	3.2315	Yes	n/a	-17.108843537414998	n/a	n/a	n/a	ISITrial	Mixed
105.78	3.232	0.014	671.555	34.0	2	-8.0	-8.0	22.0974	70.0	2.0	Certain	-16.81	0.3	3.2315	Yes	n/a	-17.108843537414998	n/a	n/a	n/a	TrialHappPreview	Mixed
109.029	4.015	0.017	674.804	34.0	2	-8.0	-8.0	22.0974	70.0	2.0	Certain	-16.81	0.3	3.2315	Yes	n/a	-17.108843537414998	n/a	n/a	716.0	TrialHappiness	Mixed
109.029	1.496	n/a	675.664	34.0	2	-8.0	-8.0	22.0974	70.0	2.0	Certain	-16.81	0.3	3.2315	Yes	n/a	-17.108843537414998	n/a	n/a	716.0	TrialHappinessSliderResponse	Mixed
113.044	4.926	4.015	678.819	34.0	2	-8.0	-8.0	22.0974	70.0	2.0	Certain	-16.81	0.3	3.2315	Yes	n/a	-17.108843537414998	n/a	n/a	n/a	ISIRate	Mixed
117.992	3.0	0.022	683.767	35.0	2	-12.52	-4.0	20.5324	70.0	1.68	Outcome2	4.5	-12.52	0.0	No	2.0	-17.015873015873	0.959	118.951	n/a	GetAnswer	Gain
118.975	4.0	0.024	684.75	35.0	2	-12.52	-4.0	20.5324	70.0	1.68	Outcome2	4.5	-12.52	0.0	No	n/a	-17.015873015873	n/a	n/a	n/a	ShowChoice	Gain
122.991	1.0	0.016	688.766	35.0	2	-12.52	-4.0	20.5324	70.0	1.68	Outcome2	4.5	-12.52	0.0	No	n/a	-17.015873015873	n/a	n/a	n/a	ShowResult	Gain
124.007	2.098	0.016	689.782	35.0	2	-12.52	-4.0	20.5324	70.0	1.68	Outcome2	4.5	-12.52	0.0	No	n/a	-17.015873015873	n/a	n/a	n/a	ISITrial	Gain
126.123	3.0	0.018	691.898	36.0	2	-16.65	-8.0	18.4511	70.0	0.52	Outcome2	1.1	-16.65	3.33575	Yes	2.0	-17.7482993197279	1.354	127.477	n/a	GetAnswer	Mixed
127.489	4.0	0.012	693.264	36.0	2	-16.65	-8.0	18.4511	70.0	0.52	Outcome2	1.1	-16.65	3.33575	Yes	n/a	-17.7482993197279	n/a	n/a	n/a	ShowChoice	Mixed
131.504	1.0	0.015	697.279	36.0	2	-16.65	-8.0	18.4511	70.0	0.52	Outcome2	1.1	-16.65	3.33575	Yes	n/a	-17.7482993197279	n/a	n/a	n/a	ShowResult	Mixed
132.521	5.156	0.017	698.296	36.0	2	-16.65	-8.0	18.4511	70.0	0.52	Outcome2	1.1	-16.65	3.33575	Yes	n/a	-17.7482993197279	n/a	n/a	n/a	ISITrial	Mixed
137.702	3.336	0.025	703.477	36.0	2	-16.65	-8.0	18.4511	70.0	0.52	Outcome2	1.1	-16.65	3.33575	Yes	n/a	-17.7482993197279	n/a	n/a	n/a	TrialHappPreview	Mixed
141.068	4.015	0.03	706.843	36.0	2	-16.65	-8.0	18.4511	70.0	0.52	Outcome2	1.1	-16.65	3.33575	Yes	n/a	-17.7482993197279	n/a	n/a	752.0	TrialHappiness	Mixed
141.068	0.643	n/a	707.805	36.0	2	-16.65	-8.0	18.4511	70.0	0.52	Outcome2	1.1	-16.65	3.33575	Yes	n/a	-17.7482993197279	n/a	n/a	752.0	TrialHappinessSliderResponse	Mixed
145.083	5.343	4.015	710.858	36.0	2	-16.65	-8.0	18.4511	70.0	0.52	Outcome2	1.1	-16.65	3.33575	Yes	n/a	-17.7482993197279	n/a	n/a	n/a	ISIRate	Mixed
150.448	3.0	0.022	716.223	37.0	2	-15.59	-6.0	16.5023	70.0	0.82	Outcome2	3.5	-15.59	0.0	No	2.0	-19.092970521542	1.105	151.553	n/a	GetAnswer	Mixed
151.581	4.0	0.028	717.356	37.0	2	-15.59	-6.0	16.5023	70.0	0.82	Outcome2	3.5	-15.59	0.0	No	n/a	-19.092970521542	n/a	n/a	n/a	ShowChoice	Mixed
155.596	1.0	0.015	721.371	37.0	2	-15.59	-6.0	16.5023	70.0	0.82	Outcome2	3.5	-15.59	0.0	No	n/a	-19.092970521542	n/a	n/a	n/a	ShowResult	Mixed
156.612	3.598	0.016	722.387	37.0	2	-15.59	-6.0	16.5023	70.0	0.82	Outcome2	3.5	-15.59	0.0	No	n/a	-19.092970521542	n/a	n/a	n/a	ISITrial	Mixed
160.228	3.0	0.018	726.003	38.0	2	-6.37	-3.18	15.7061	70.0	2.8	Outcome2	13.5	-6.37	0.0	No	2.0	-19.8662131519274	0.913	161.141	n/a	GetAnswer	Loss
161.161	4.0	0.02	726.936	38.0	2	-6.37	-3.18	15.7061	70.0	2.8	Outcome2	13.5	-6.37	0.0	No	n/a	-19.8662131519274	n/a	n/a	n/a	ShowChoice	Loss
165.176	1.0	0.015	730.951	38.0	2	-6.37	-3.18	15.7061	70.0	2.8	Outcome2	13.5	-6.37	0.0	No	n/a	-19.8662131519274	n/a	n/a	n/a	ShowResult	Loss
166.192	4.787	0.016	731.967	38.0	2	-6.37	-3.18	15.7061	70.0	2.8	Outcome2	13.5	-6.37	0.0	No	n/a	-19.8662131519274	n/a	n/a	n/a	ISITrial	Loss
171.007	3.0	0.028	736.782	39.0	2	-8.94	1.0	14.5886	70.0	3.16	Outcome2	11.7	-8.94	2.86425	Yes	2.0	-20.639455782312897	1.178	172.185	n/a	GetAnswer	Loss
172.207	4.0	0.022	737.982	39.0	2	-8.94	1.0	14.5886	70.0	3.16	Outcome2	11.7	-8.94	2.86425	Yes	n/a	-20.639455782312897	n/a	n/a	n/a	ShowChoice	Loss
176.222	1.0	0.015	741.997	39.0	2	-8.94	1.0	14.5886	70.0	3.16	Outcome2	11.7	-8.94	2.86425	Yes	n/a	-20.639455782312897	n/a	n/a	n/a	ShowResult	Loss
177.238	2.348	0.016	743.013	39.0	2	-8.94	1.0	14.5886	70.0	3.16	Outcome2	11.7	-8.94	2.86425	Yes	n/a	-20.639455782312897	n/a	n/a	n/a	ISITrial	Loss
179.604	2.864	0.018	745.379	39.0	2	-8.94	1.0	14.5886	70.0	3.16	Outcome2	11.7	-8.94	2.86425	Yes	n/a	-20.639455782312897	n/a	n/a	n/a	TrialHappPreview	Loss
182.487	4.015	0.019	748.262	39.0	2	-8.94	1.0	14.5886	70.0	3.16	Outcome2	11.7	-8.94	2.86425	Yes	2{-2}2{-2}	-20.639455782312897	1.84	184.327	736.0	TrialHappiness	Loss
182.487	1.157	n/a	748.945	39.0	2	-8.94	1.0	14.5886	70.0	3.16	Outcome2	11.7	-8.94	2.86425	Yes	n/a	-20.639455782312897	n/a	n/a	736.0	TrialHappinessSliderResponse	Loss
186.502	3.457	4.015	752.277	39.0	2	-8.94	1.0	14.5886	70.0	3.16	Outcome2	11.7	-8.94	2.86425	Yes	n/a	-20.639455782312897	n/a	n/a	n/a	ISIRate	Loss
189.984	3.0	0.025	755.759	40.0	2	-1.0	-1.0	14.4636	70.0	0.4	Certain	-3.3	0.22	0.0	No	4.0	3.52362055933485	0.989	190.973	n/a	GetAnswer	Mixed
190.984	4.0	0.011	756.759	40.0	2	-1.0	-1.0	14.4636	70.0	0.4	Certain	-3.3	0.22	0.0	No	n/a	3.52362055933485	n/a	n/a	n/a	ShowChoice	Mixed
194.999	1.0	0.015	760.774	40.0	2	-1.0	-1.0	14.4636	70.0	0.4	Certain	-3.3	0.22	0.0	No	n/a	3.52362055933485	n/a	n/a	n/a	ShowResult	Mixed
196.015	3.158	0.016	761.79	40.0	2	-1.0	-1.0	14.4636	70.0	0.4	Certain	-3.3	0.22	0.0	No	n/a	3.52362055933485	n/a	n/a	n/a	ISITrial	Mixed
199.198	3.0	0.025	764.973	41.0	2	-9.0	-9.0	13.3386	70.0	1.5	Certain	2.1	-19.8	4.0	Yes	4.0	-21.895691609977305	1.321	200.519	n/a	GetAnswer	Mixed
200.53	4.0	0.011	766.305	41.0	2	-9.0	-9.0	13.3386	70.0	1.5	Certain	2.1	-19.8	4.0	Yes	n/a	-21.895691609977305	n/a	n/a	n/a	ShowChoice	Mixed
204.546	1.0	0.016	770.321	41.0	2	-9.0	-9.0	13.3386	70.0	1.5	Certain	2.1	-19.8	4.0	Yes	n/a	-21.895691609977305	n/a	n/a	n/a	ShowResult	Mixed
205.562	4.506	0.016	771.337	41.0	2	-9.0	-9.0	13.3386	70.0	1.5	Certain	2.1	-19.8	4.0	Yes	n/a	-21.895691609977305	n/a	n/a	n/a	ISITrial	Mixed
210.094	4.0	0.026	775.869	41.0	2	-9.0	-9.0	13.3386	70.0	1.5	Certain	2.1	-19.8	4.0	Yes	n/a	-21.895691609977305	n/a	n/a	n/a	TrialHappPreview	Mixed
214.109	4.015	0.015	779.884	41.0	2	-9.0	-9.0	13.3386	70.0	1.5	Certain	2.1	-19.8	4.0	Yes	n/a	-21.895691609977305	n/a	n/a	744.0	TrialHappiness	Mixed
214.11	0.624	n/a	780.533	41.0	2	-9.0	-9.0	13.3386	70.0	1.5	Certain	2.1	-19.8	4.0	Yes	n/a	-21.895691609977305	n/a	n/a	744.0	TrialHappinessSliderResponse	Mixed
218.124	8.0	4.015	783.899	41.0	2	-9.0	-9.0	13.3386	70.0	1.5	Certain	2.1	-19.8	4.0	Yes	n/a	-21.895691609977305	n/a	n/a	n/a	ISIRate	Mixed
226.155	3.0	0.031	791.93	42.0	2	-15.09	-3.0	11.4524	70.0	3.16	Outcome2	7.7	-15.09	0.0	No	2.0	-22.7868480725624	1.424	227.579	n/a	GetAnswer	Gain
227.604	4.0	0.025	793.379	42.0	2	-15.09	-3.0	11.4524	70.0	3.16	Outcome2	7.7	-15.09	0.0	No	n/a	-22.7868480725624	n/a	n/a	n/a	ShowChoice	Gain
231.62	1.0	0.016	797.395	42.0	2	-15.09	-3.0	11.4524	70.0	3.16	Outcome2	7.7	-15.09	0.0	No	n/a	-22.7868480725624	n/a	n/a	n/a	ShowResult	Gain
232.636	6.248	0.016	798.411	42.0	2	-15.09	-3.0	11.4524	70.0	3.16	Outcome2	7.7	-15.09	0.0	No	n/a	-22.7868480725624	n/a	n/a	n/a	ISITrial	Gain
238.9	3.0	0.016	804.675	43.0	2	-14.65	-3.0	9.6212	70.0	2.0	Outcome2	8.9	-14.65	2.77575	Yes	2.0	-23.5510204081633	0.939	239.839	n/a	GetAnswer	Gain
239.867	4.0	0.028	805.642	43.0	2	-14.65	-3.0	9.6212	70.0	2.0	Outcome2	8.9	-14.65	2.77575	Yes	n/a	-23.5510204081633	n/a	n/a	n/a	ShowChoice	Gain
243.882	1.0	0.015	809.657	43.0	2	-14.65	-3.0	9.6212	70.0	2.0	Outcome2	8.9	-14.65	2.77575	Yes	n/a	-23.5510204081633	n/a	n/a	n/a	ShowResult	Gain
244.898	4.596	0.016	810.673	43.0	2	-14.65	-3.0	9.6212	70.0	2.0	Outcome2	8.9	-14.65	2.77575	Yes	n/a	-23.5510204081633	n/a	n/a	n/a	ISITrial	Gain
249.513	2.776	0.019	815.288	43.0	2	-14.65	-3.0	9.6212	70.0	2.0	Outcome2	8.9	-14.65	2.77575	Yes	n/a	-23.5510204081633	n/a	n/a	n/a	TrialHappPreview	Gain
252.312	4.016	0.023	818.087	43.0	2	-14.65	-3.0	9.6212	70.0	2.0	Outcome2	8.9	-14.65	2.77575	Yes	n/a	-23.5510204081633	n/a	n/a	768.0	TrialHappiness	Gain
252.313	0.678	n/a	818.633	43.0	2	-14.65	-3.0	9.6212	70.0	2.0	Outcome2	8.9	-14.65	2.77575	Yes	n/a	-23.5510204081633	n/a	n/a	768.0	TrialHappinessSliderResponse	Gain
256.328	3.103	4.016	822.103	43.0	2	-14.65	-3.0	9.6212	70.0	2.0	Outcome2	8.9	-14.65	2.77575	Yes	n/a	-23.5510204081633	n/a	n/a	n/a	ISIRate	Gain
259.46	3.0	0.029	825.235	44.0	2	-14.62	-2.0	7.7937	70.0	4.2	Outcome2	10.1	-14.62	0.0	No	2.0	-24.7233560090703	0.582	260.042	n/a	GetAnswer	Gain
260.06	4.0	0.018	825.835	44.0	2	-14.62	-2.0	7.7937	70.0	4.2	Outcome2	10.1	-14.62	0.0	No	n/a	-24.7233560090703	n/a	n/a	n/a	ShowChoice	Gain
264.075	1.0	0.015	829.85	44.0	2	-14.62	-2.0	7.7937	70.0	4.2	Outcome2	10.1	-14.62	0.0	No	n/a	-24.7233560090703	n/a	n/a	n/a	ShowResult	Gain
265.091	2.42	0.016	830.866	44.0	2	-14.62	-2.0	7.7937	70.0	4.2	Outcome2	10.1	-14.62	0.0	No	n/a	-24.7233560090703	n/a	n/a	n/a	ISITrial	Gain
267.541	3.0	0.03	833.316	45.0	2	-12.0	-12.0	6.2937	70.0	0.2	Certain	-25.01	0.5	0.0	No	4.0	-25.514739229024897	1.554	269.095	n/a	GetAnswer	Mixed
269.107	4.0	0.012	834.882	45.0	2	-12.0	-12.0	6.2937	70.0	0.2	Certain	-25.01	0.5	0.0	No	n/a	-25.514739229024897	n/a	n/a	n/a	ShowChoice	Mixed
273.122	1.0	0.015	838.897	45.0	2	-12.0	-12.0	6.2937	70.0	0.2	Certain	-25.01	0.5	0.0	No	n/a	-25.514739229024897	n/a	n/a	n/a	ShowResult	Mixed
274.138	3.144	0.016	839.913	45.0	2	-12.0	-12.0	6.2937	70.0	0.2	Certain	-25.01	0.5	0.0	No	n/a	-25.514739229024897	n/a	n/a	n/a	ISITrial	Mixed
277.304	3.0	0.022	843.079	46.0	2	-24.01	-11.0	3.2924	70.0	2.0	Outcome2	2.3	-24.01	3.84125	Yes	2.0	-26.3061224489796	1.284	278.588	n/a	GetAnswer	Mixed
278.603	4.0	0.015	844.378	46.0	2	-24.01	-11.0	3.2924	70.0	2.0	Outcome2	2.3	-24.01	3.84125	Yes	n/a	-26.3061224489796	n/a	n/a	n/a	ShowChoice	Mixed
282.619	1.0	0.016	848.394	46.0	2	-24.01	-11.0	3.2924	70.0	2.0	Outcome2	2.3	-24.01	3.84125	Yes	n/a	-26.3061224489796	n/a	n/a	n/a	ShowResult	Mixed
283.635	2.246	0.016	849.41	46.0	2	-24.01	-11.0	3.2924	70.0	2.0	Outcome2	2.3	-24.01	3.84125	Yes	n/a	-26.3061224489796	n/a	n/a	n/a	ISITrial	Mixed
285.901	3.841	0.02	851.676	46.0	2	-24.01	-11.0	3.2924	70.0	2.0	Outcome2	2.3	-24.01	3.84125	Yes	n/a	-26.3061224489796	n/a	n/a	n/a	TrialHappPreview	Mixed
289.766	4.015	0.024	855.541	46.0	2	-24.01	-11.0	3.2924	70.0	2.0	Outcome2	2.3	-24.01	3.84125	Yes	2{-2}	-26.3061224489796	1.389	291.155	816.0	TrialHappiness	Mixed
289.767	0.771	n/a	856.16	46.0	2	-24.01	-11.0	3.2924	70.0	2.0	Outcome2	2.3	-24.01	3.84125	Yes	n/a	-26.3061224489796	n/a	n/a	816.0	TrialHappinessSliderResponse	Mixed
293.781	7.365	4.015	859.556	46.0	2	-24.01	-11.0	3.2924	70.0	2.0	Outcome2	2.3	-24.01	3.84125	Yes	n/a	-26.3061224489796	n/a	n/a	n/a	ISIRate	Mixed
301.162	3.0	0.016	866.937	47.0	2	-16.01	-2.0	1.2911	70.0	3.6	Outcome1	-16.01	11.9	0.0	No	2.0	-27.913832199546498	0.995	302.157	n/a	GetAnswer	Loss
302.179	4.0	0.022	867.954	47.0	2	-16.01	-2.0	1.2911	70.0	3.6	Outcome1	-16.01	11.9	0.0	No	n/a	-27.913832199546498	n/a	n/a	n/a	ShowChoice	Loss
306.194	1.0	0.015	871.969	47.0	2	-16.01	-2.0	1.2911	70.0	3.6	Outcome1	-16.01	11.9	0.0	No	n/a	-27.913832199546498	n/a	n/a	n/a	ShowResult	Loss
307.21	2.0	0.016	872.985	47.0	2	-16.01	-2.0	1.2911	70.0	3.6	Outcome1	-16.01	11.9	0.0	No	n/a	-27.913832199546498	n/a	n/a	n/a	ISITrial	Loss
309.226	3.0	0.016	875.001	48.0	2	-18.26	-4.0	-0.9914	70.0	1.68	Outcome2	10.5	-18.26	2.83175	Yes	2.0	-28.759637188208604	0.95	310.176	n/a	GetAnswer	Loss
310.192	4.0	0.016	875.967	48.0	2	-18.26	-4.0	-0.9914	70.0	1.68	Outcome2	10.5	-18.26	2.83175	Yes	n/a	-28.759637188208604	n/a	n/a	n/a	ShowChoice	Loss
314.208	1.0	0.016	879.983	48.0	2	-18.26	-4.0	-0.9914	70.0	1.68	Outcome2	10.5	-18.26	2.83175	Yes	n/a	-28.759637188208604	n/a	n/a	n/a	ShowResult	Loss
315.224	3.692	0.016	880.999	48.0	2	-18.26	-4.0	-0.9914	70.0	1.68	Outcome2	10.5	-18.26	2.83175	Yes	n/a	-28.759637188208604	n/a	n/a	n/a	ISITrial	Loss
318.939	2.832	0.023	884.714	48.0	2	-18.26	-4.0	-0.9914	70.0	1.68	Outcome2	10.5	-18.26	2.83175	Yes	n/a	-28.759637188208604	n/a	n/a	n/a	TrialHappPreview	Loss
321.788	4.016	0.017	887.563	48.0	2	-18.26	-4.0	-0.9914	70.0	1.68	Outcome2	10.5	-18.26	2.83175	Yes	n/a	-28.759637188208604	n/a	n/a	760.0	TrialHappiness	Loss
321.789	0.662	n/a	888.074	48.0	2	-18.26	-4.0	-0.9914	70.0	1.68	Outcome2	10.5	-18.26	2.83175	Yes	n/a	-28.759637188208604	n/a	n/a	760.0	TrialHappinessSliderResponse	Loss
325.804	3.327	4.016	891.579	48.0	2	-18.26	-4.0	-0.9914	70.0	1.68	Outcome2	10.5	-18.26	2.83175	Yes	n/a	-28.759637188208604	n/a	n/a	n/a	ISIRate	Loss
329.153	3.0	0.022	894.928	49.0	2	3.08	1.0	-0.6064	70.0	5.0	Outcome2	-1.13	3.08	0.0	No	2.0	4.21315192743764	1.354	330.507	n/a	GetAnswer	Loss
330.519	4.0	0.012	896.294	49.0	2	3.08	1.0	-0.6064	70.0	5.0	Outcome2	-1.13	3.08	0.0	No	n/a	4.21315192743764	n/a	n/a	n/a	ShowChoice	Loss
334.534	1.0	0.015	900.309	49.0	2	3.08	1.0	-0.6064	70.0	5.0	Outcome2	-1.13	3.08	0.0	No	n/a	4.21315192743764	n/a	n/a	n/a	ShowResult	Loss
335.55	8.0	0.016	901.325	49.0	2	3.08	1.0	-0.6064	70.0	5.0	Outcome2	-1.13	3.08	0.0	No	n/a	4.21315192743764	n/a	n/a	n/a	ISITrial	Loss
343.581	3.0	0.031	909.356	50.0	2	-25.74	-11.0	-3.8239	70.0	1.0	Outcome2	3.7	-25.74	3.54725	Yes	2.0	-29.4353741496599	1.785	345.366	n/a	GetAnswer	Mixed
345.38	4.0	0.014	911.155	50.0	2	-25.74	-11.0	-3.8239	70.0	1.0	Outcome2	3.7	-25.74	3.54725	Yes	n/a	-29.4353741496599	n/a	n/a	n/a	ShowChoice	Mixed
349.396	1.0	0.016	915.171	50.0	2	-25.74	-11.0	-3.8239	70.0	1.0	Outcome2	3.7	-25.74	3.54725	Yes	n/a	-29.4353741496599	n/a	n/a	n/a	ShowResult	Mixed
350.412	7.537	0.016	916.187	50.0	2	-25.74	-11.0	-3.8239	70.0	1.0	Outcome2	3.7	-25.74	3.54725	Yes	n/a	-29.4353741496599	n/a	n/a	n/a	ISITrial	Mixed
357.959	3.547	0.01	923.734	50.0	2	-25.74	-11.0	-3.8239	70.0	1.0	Outcome2	3.7	-25.74	3.54725	Yes	n/a	-29.4353741496599	n/a	n/a	n/a	TrialHappPreview	Mixed
361.525	4.015	0.019	927.3	50.0	2	-25.74	-11.0	-3.8239	70.0	1.0	Outcome2	3.7	-25.74	3.54725	Yes	n/a	-29.4353741496599	n/a	n/a	792.0	TrialHappiness	Mixed
361.525	0.73	n/a	927.808	50.0	2	-25.74	-11.0	-3.8239	70.0	1.0	Outcome2	3.7	-25.74	3.54725	Yes	n/a	-29.4353741496599	n/a	n/a	792.0	TrialHappinessSliderResponse	Mixed
365.54	6.189	4.015	931.315	50.0	2	-25.74	-11.0	-3.8239	70.0	1.0	Outcome2	3.7	-25.74	3.54725	Yes	n/a	-29.4353741496599	n/a	n/a	n/a	ISIRate	Mixed
371.755	3.0	0.026	937.53	51.0	2	-0.32	-2.0	-3.8639	70.0	0.3	Outcome2	-4.79	-0.32	0.0	No	2.0	4.4735449735449695	1.145	372.9	n/a	GetAnswer	Mixed
372.921	4.0	0.021	938.696	51.0	2	-0.32	-2.0	-3.8639	70.0	0.3	Outcome2	-4.79	-0.32	0.0	No	n/a	4.4735449735449695	n/a	n/a	n/a	ShowChoice	Mixed
376.936	1.0	0.015	942.711	51.0	2	-0.32	-2.0	-3.8639	70.0	0.3	Outcome2	-4.79	-0.32	0.0	No	n/a	4.4735449735449695	n/a	n/a	n/a	ShowResult	Mixed
377.952	5.508	0.016	943.727	51.0	2	-0.32	-2.0	-3.8639	70.0	0.3	Outcome2	-4.79	-0.32	0.0	No	n/a	4.4735449735449695	n/a	n/a	n/a	ISITrial	Mixed
383.484	3.0	0.024	949.259	52.0	2	-32.08	-16.0	-7.8739	70.0	0.82	Outcome2	-0.5	-32.08	0.0	No	2.0	-31.5804988662131	1.338	384.822	n/a	GetAnswer	Mixed
384.833	4.0	0.011	950.608	52.0	2	-32.08	-16.0	-7.8739	70.0	0.82	Outcome2	-0.5	-32.08	0.0	No	n/a	-31.5804988662131	n/a	n/a	n/a	ShowChoice	Mixed
388.849	1.0	0.016	954.624	52.0	2	-32.08	-16.0	-7.8739	70.0	0.82	Outcome2	-0.5	-32.08	0.0	No	n/a	-31.5804988662131	n/a	n/a	n/a	ShowResult	Mixed
389.865	5.913	0.016	955.64	52.0	2	-32.08	-16.0	-7.8739	70.0	0.82	Outcome2	-0.5	-32.08	0.0	No	n/a	-31.5804988662131	n/a	n/a	n/a	ISITrial	Mixed
395.796	3.0	0.018	961.571	53.0	2	-22.1	-6.0	-10.6364	70.0	5.0	Outcome1	-22.1	10.3	2.99675	Yes	2.0	-32.3990929705215	1.129	396.925	n/a	GetAnswer	Gain
396.946	4.0	0.021	962.721	53.0	2	-22.1	-6.0	-10.6364	70.0	5.0	Outcome1	-22.1	10.3	2.99675	Yes	n/a	-32.3990929705215	n/a	n/a	n/a	ShowChoice	Gain
400.961	1.0	0.015	966.736	53.0	2	-22.1	-6.0	-10.6364	70.0	5.0	Outcome1	-22.1	10.3	2.99675	Yes	n/a	-32.3990929705215	n/a	n/a	n/a	ShowResult	Gain
401.977	3.66	0.016	967.752	53.0	2	-22.1	-6.0	-10.6364	70.0	5.0	Outcome1	-22.1	10.3	2.99675	Yes	n/a	-32.3990929705215	n/a	n/a	n/a	ISITrial	Gain
405.659	2.997	0.022	971.434	53.0	2	-22.1	-6.0	-10.6364	70.0	5.0	Outcome1	-22.1	10.3	2.99675	Yes	n/a	-32.3990929705215	n/a	n/a	n/a	TrialHappPreview	Gain
408.675	4.015	0.019	974.45	53.0	2	-22.1	-6.0	-10.6364	70.0	5.0	Outcome1	-22.1	10.3	2.99675	Yes	n/a	-32.3990929705215	n/a	n/a	808.0	TrialHappiness	Gain
408.676	0.767	n/a	974.923	53.0	2	-22.1	-6.0	-10.6364	70.0	5.0	Outcome1	-22.1	10.3	2.99675	Yes	n/a	-32.3990929705215	n/a	n/a	808.0	TrialHappinessSliderResponse	Gain
412.69	3.987	4.015	978.465	53.0	2	-22.1	-6.0	-10.6364	70.0	5.0	Outcome1	-22.1	10.3	2.99675	Yes	n/a	-32.3990929705215	n/a	n/a	n/a	ISIRate	Gain
416.706	3.0	0.029	982.481	54.0	2	-33.39	-16.0	-14.8102	70.0	1.5	Outcome2	0.1	-33.39	0.0	No	2.0	-33.4897959183673	1.02	417.726	n/a	GetAnswer	Mixed
417.755	4.0	0.029	983.53	54.0	2	-33.39	-16.0	-14.8102	70.0	1.5	Outcome2	0.1	-33.39	0.0	No	n/a	-33.4897959183673	n/a	n/a	n/a	ShowChoice	Mixed
421.771	1.0	0.016	987.546	54.0	2	-33.39	-16.0	-14.8102	70.0	1.5	Outcome2	0.1	-33.39	0.0	No	n/a	-33.4897959183673	n/a	n/a	n/a	ShowResult	Mixed
422.787	8.0	0.016	988.562	54.0	2	-33.39	-16.0	-14.8102	70.0	1.5	Outcome2	0.1	-33.39	0.0	No	n/a	-33.4897959183673	n/a	n/a	n/a	ISITrial	Mixed
459.275	0.672	n/a	1025.667	n/a	2	n/a	n/a	n/a	n/a	n/a	n/a	n/a	n/a	n/a	n/a	n/a	n/a	n/a	n/a	768.0	BlockStartHappinessSliderResponse	n/a
-36.038	-0.001	0.03	996.592	n/a	3	n/a	n/a	n/a	n/a	n/a	n/a	n/a	n/a	n/a	n/a	{SPACE}	n/a	24.423	-11.615	n/a	Rest	n/a
-11.596	4.0	0.019	1021.034	n/a	3	n/a	n/a	n/a	n/a	n/a	n/a	n/a	n/a	n/a	n/a	n/a	n/a	n/a	n/a	n/a	BlockHappyPreview	n/a
-7.581	1.289	0.015	1025.049	n/a	3	n/a	n/a	n/a	n/a	n/a	n/a	n/a	n/a	n/a	n/a	n/a	n/a	n/a	n/a	768.0	BlockStartHappiness	n/a
-2.233	-0.001	0.022	1030.397	n/a	3	n/a	n/a	n/a	n/a	n/a	n/a	n/a	n/a	n/a	n/a	5.0	n/a	2.215	-0.018	n/a	ScanWait	n/a
0.0	10.0	0.018	1032.63	n/a	3	n/a	n/a	n/a	n/a	n/a	n/a	n/a	n/a	n/a	n/a	n/a	n/a	n/a	n/a	n/a	GetReady	n/a
10.013	3.0	0.013	1042.643	55.0	3	11.94	5.97	-13.3177	955.0	1.82	Outcome2	12.7	11.94	2.53325	Yes	2.0	-0.7588712721781801	1.007	11.02	n/a	GetAnswer	Loss
11.046	4.0	0.026	1043.676	55.0	3	11.94	5.97	-13.3177	955.0	1.82	Outcome2	12.7	11.94	2.53325	Yes	n/a	-0.7588712721781801	n/a	n/a	n/a	ShowChoice	Loss
15.061	1.0	0.015	1047.691	55.0	3	11.94	5.97	-13.3177	955.0	1.82	Outcome2	12.7	11.94	2.53325	Yes	n/a	-0.7588712721781801	n/a	n/a	n/a	ShowResult	Loss
16.078	7.709	0.017	1048.708	55.0	3	11.94	5.97	-13.3177	955.0	1.82	Outcome2	12.7	11.94	2.53325	Yes	n/a	-0.7588712721781801	n/a	n/a	n/a	ISITrial	Loss
23.808	2.533	0.021	1056.438	55.0	3	11.94	5.97	-13.3177	955.0	1.82	Outcome2	12.7	11.94	2.53325	Yes	n/a	-0.7588712721781801	n/a	n/a	n/a	TrialHappPreview	Loss
26.358	4.015	0.017	1058.988	55.0	3	11.94	5.97	-13.3177	955.0	1.82	Outcome2	12.7	11.94	2.53325	Yes	n/a	-0.7588712721781801	n/a	n/a	824.0	TrialHappiness	Loss
26.358	0.794	n/a	1059.549	55.0	3	11.94	5.97	-13.3177	955.0	1.82	Outcome2	12.7	11.94	2.53325	Yes	n/a	-0.7588712721781801	n/a	n/a	824.0	TrialHappinessSliderResponse	Loss
30.373	2.133	4.015	1063.003	55.0	3	11.94	5.97	-13.3177	955.0	1.82	Outcome2	12.7	11.94	2.53325	Yes	n/a	-0.7588712721781801	n/a	n/a	n/a	ISIRate	Loss
32.522	3.0	0.016	1065.152	56.0	3	13.9	5.73	-11.5802	955.0	3.6	Outcome1	13.9	11.46	0.0	No	2.0	2.43714609286523	0.8	33.322	n/a	GetAnswer	Loss
33.338	4.0	0.016	1065.968	56.0	3	13.9	5.73	-11.5802	955.0	3.6	Outcome1	13.9	11.46	0.0	No	n/a	2.43714609286523	n/a	n/a	n/a	ShowChoice	Loss
37.354	1.0	0.016	1069.984	56.0	3	13.9	5.73	-11.5802	955.0	3.6	Outcome1	13.9	11.46	0.0	No	n/a	2.43714609286523	n/a	n/a	n/a	ShowResult	Loss
38.37	4.697	0.016	1071.0	56.0	3	13.9	5.73	-11.5802	955.0	3.6	Outcome1	13.9	11.46	0.0	No	n/a	2.43714609286523	n/a	n/a	n/a	ISITrial	Loss
43.085	3.0	0.018	1075.715	57.0	3	3.3	2.0	-11.1677	955.0	0.66	Outcome2	0.71	3.3	0.0	No	2.0	2.58550396375991	1.273	44.358	n/a	GetAnswer	Mixed
44.385	4.0	0.027	1077.015	57.0	3	3.3	2.0	-11.1677	955.0	0.66	Outcome2	0.71	3.3	0.0	No	n/a	2.58550396375991	n/a	n/a	n/a	ShowChoice	Mixed
48.4	1.0	0.015	1081.03	57.0	3	3.3	2.0	-11.1677	955.0	0.66	Outcome2	0.71	3.3	0.0	No	n/a	2.58550396375991	n/a	n/a	n/a	ShowResult	Mixed
49.416	4.291	0.016	1082.046	57.0	3	3.3	2.0	-11.1677	955.0	0.66	Outcome2	0.71	3.3	0.0	No	n/a	2.58550396375991	n/a	n/a	n/a	ISITrial	Mixed
53.731	3.0	0.024	1086.361	58.0	3	8.3	2.78	-10.1302	955.0	5.0	Outcome2	5.57	8.3	3.04575	Yes	2.0	2.73386183465459	0.899	54.63	n/a	GetAnswer	Gain
54.648	4.0	0.018	1087.278	58.0	3	8.3	2.78	-10.1302	955.0	5.0	Outcome2	5.57	8.3	3.04575	Yes	n/a	2.73386183465459	n/a	n/a	n/a	ShowChoice	Gain
58.663	1.0	0.015	1091.293	58.0	3	8.3	2.78	-10.1302	955.0	5.0	Outcome2	5.57	8.3	3.04575	Yes	n/a	2.73386183465459	n/a	n/a	n/a	ShowResult	Gain
59.679	2.037	0.016	1092.309	58.0	3	8.3	2.78	-10.1302	955.0	5.0	Outcome2	5.57	8.3	3.04575	Yes	n/a	2.73386183465459	n/a	n/a	n/a	ISITrial	Gain
61.729	3.046	0.013	1094.359	58.0	3	8.3	2.78	-10.1302	955.0	5.0	Outcome2	5.57	8.3	3.04575	Yes	n/a	2.73386183465459	n/a	n/a	n/a	TrialHappPreview	Gain
64.794	4.016	0.019	1097.424	58.0	3	8.3	2.78	-10.1302	955.0	5.0	Outcome2	5.57	8.3	3.04575	Yes	n/a	2.73386183465459	n/a	n/a	776.0	TrialHappiness	Gain
64.795	0.692	n/a	1098.072	58.0	3	8.3	2.78	-10.1302	955.0	5.0	Outcome2	5.57	8.3	3.04575	Yes	n/a	2.73386183465459	n/a	n/a	776.0	TrialHappinessSliderResponse	Gain
68.81	4.183	4.016	1101.44	58.0	3	8.3	2.78	-10.1302	955.0	5.0	Outcome2	5.57	8.3	3.04575	Yes	n/a	2.73386183465459	n/a	n/a	n/a	ISIRate	Gain
73.008	3.0	0.015	1105.638	59.0	3	6.52	3.26	-9.3152	955.0	2.48	Outcome1	6.52	7.3	0.0	No	2.0	-0.7811438278595699	1.09	74.098	n/a	GetAnswer	Gain
74.124	4.0	0.026	1106.754	59.0	3	6.52	3.26	-9.3152	955.0	2.48	Outcome1	6.52	7.3	0.0	No	n/a	-0.7811438278595699	n/a	n/a	n/a	ShowChoice	Gain
78.14	1.0	0.016	1110.77	59.0	3	6.52	3.26	-9.3152	955.0	2.48	Outcome1	6.52	7.3	0.0	No	n/a	-0.7811438278595699	n/a	n/a	n/a	ShowResult	Gain
79.156	5.064	0.016	1111.786	59.0	3	6.52	3.26	-9.3152	955.0	2.48	Outcome1	6.52	7.3	0.0	No	n/a	-0.7811438278595699	n/a	n/a	n/a	ISITrial	Gain
84.238	3.0	0.018	1116.868	60.0	3	-0.1	-2.0	-9.3277	955.0	1.2	Outcome2	-4.0	-0.1	3.5625	Yes	2.0	3.90033975084938	1.507	85.745	n/a	GetAnswer	Mixed
85.77	4.0	0.025	1118.4	60.0	3	-0.1	-2.0	-9.3277	955.0	1.2	Outcome2	-4.0	-0.1	3.5625	Yes	n/a	3.90033975084938	n/a	n/a	n/a	ShowChoice	Mixed
89.786	1.0	0.016	1122.416	60.0	3	-0.1	-2.0	-9.3277	955.0	1.2	Outcome2	-4.0	-0.1	3.5625	Yes	n/a	3.90033975084938	n/a	n/a	n/a	ShowResult	Mixed
90.802	8.0	0.016	1123.432	60.0	3	-0.1	-2.0	-9.3277	955.0	1.2	Outcome2	-4.0	-0.1	3.5625	Yes	n/a	3.90033975084938	n/a	n/a	n/a	ISITrial	Mixed
98.816	3.562	0.014	1131.446	60.0	3	-0.1	-2.0	-9.3277	955.0	1.2	Outcome2	-4.0	-0.1	3.5625	Yes	n/a	3.90033975084938	n/a	n/a	n/a	TrialHappPreview	Mixed
102.398	4.015	0.02	1135.028	60.0	3	-0.1	-2.0	-9.3277	955.0	1.2	Outcome2	-4.0	-0.1	3.5625	Yes	n/a	3.90033975084938	n/a	n/a	792.0	TrialHappiness	Mixed
102.399	0.728	n/a	1135.756	60.0	3	-0.1	-2.0	-9.3277	955.0	1.2	Outcome2	-4.0	-0.1	3.5625	Yes	n/a	3.90033975084938	n/a	n/a	792.0	TrialHappinessSliderResponse	Mixed
106.413	6.25	4.015	1139.043	60.0	3	-0.1	-2.0	-9.3277	955.0	1.2	Outcome2	-4.0	-0.1	3.5625	Yes	n/a	3.90033975084938	n/a	n/a	n/a	ISIRate	Mixed
112.694	3.0	0.031	1145.324	61.0	3	8.7	2.44	-8.2402	955.0	1.82	Outcome1	8.7	4.87	0.0	No	2.0	3.83125707814269	0.961	113.655	n/a	GetAnswer	Gain
113.677	4.0	0.022	1146.307	61.0	3	8.7	2.44	-8.2402	955.0	1.82	Outcome1	8.7	4.87	0.0	No	n/a	3.83125707814269	n/a	n/a	n/a	ShowChoice	Gain
117.693	1.0	0.016	1150.323	61.0	3	8.7	2.44	-8.2402	955.0	1.82	Outcome1	8.7	4.87	0.0	No	n/a	3.83125707814269	n/a	n/a	n/a	ShowResult	Gain
118.709	4.586	0.016	1151.339	61.0	3	8.7	2.44	-8.2402	955.0	1.82	Outcome1	8.7	4.87	0.0	No	n/a	3.83125707814269	n/a	n/a	n/a	ISITrial	Gain
123.324	3.0	0.029	1155.954	62.0	3	5.9	0.94	-7.5027	955.0	3.6	Outcome2	1.88	5.9	3.74875	Yes	2.0	4.0158550396376	0.974	124.298	n/a	GetAnswer	Gain
124.324	4.0	0.026	1156.954	62.0	3	5.9	0.94	-7.5027	955.0	3.6	Outcome2	1.88	5.9	3.74875	Yes	n/a	4.0158550396376	n/a	n/a	n/a	ShowChoice	Gain
128.339	1.0	0.015	1160.969	62.0	3	5.9	0.94	-7.5027	955.0	3.6	Outcome2	1.88	5.9	3.74875	Yes	n/a	4.0158550396376	n/a	n/a	n/a	ShowResult	Gain
129.355	5.212	0.016	1161.985	62.0	3	5.9	0.94	-7.5027	955.0	3.6	Outcome2	1.88	5.9	3.74875	Yes	n/a	4.0158550396376	n/a	n/a	n/a	ISITrial	Gain
134.587	3.749	0.02	1167.217	62.0	3	5.9	0.94	-7.5027	955.0	3.6	Outcome2	1.88	5.9	3.74875	Yes	n/a	4.0158550396376	n/a	n/a	n/a	TrialHappPreview	Gain
138.352	4.015	0.016	1170.982	62.0	3	5.9	0.94	-7.5027	955.0	3.6	Outcome2	1.88	5.9	3.74875	Yes	n/a	4.0158550396376	n/a	n/a	832.0	TrialHappiness	Gain
138.353	0.806	n/a	1171.649	62.0	3	5.9	0.94	-7.5027	955.0	3.6	Outcome2	1.88	5.9	3.74875	Yes	n/a	4.0158550396376	n/a	n/a	832.0	TrialHappinessSliderResponse	Gain
142.367	6.995	4.015	1174.997	62.0	3	5.9	0.94	-7.5027	955.0	3.6	Outcome2	1.88	5.9	3.74875	Yes	n/a	4.0158550396376	n/a	n/a	n/a	ISIRate	Gain
149.382	3.0	0.02	1182.012	63.0	3	11.5	3.99	-6.0652	955.0	2.8	Outcome1	11.5	7.98	0.0	No	2.0	3.52095130237826	1.016	150.398	n/a	GetAnswer	Loss
150.415	4.0	0.017	1183.045	63.0	3	11.5	3.99	-6.0652	955.0	2.8	Outcome1	11.5	7.98	0.0	No	n/a	3.52095130237826	n/a	n/a	n/a	ShowChoice	Loss
154.43	1.0	0.015	1187.06	63.0	3	11.5	3.99	-6.0652	955.0	2.8	Outcome1	11.5	7.98	0.0	No	n/a	3.52095130237826	n/a	n/a	n/a	ShowResult	Loss
155.446	5.595	0.016	1188.076	63.0	3	11.5	3.99	-6.0652	955.0	2.8	Outcome1	11.5	7.98	0.0	No	n/a	3.52095130237826	n/a	n/a	n/a	ISITrial	Loss
161.061	3.0	0.02	1193.691	64.0	3	2.9	1.0	-5.7027	955.0	0.4	Outcome1	2.9	-0.76	0.0	No	2.0	3.66024915062288	0.91	161.971	n/a	GetAnswer	Mixed
161.994	4.0	0.023	1194.624	64.0	3	2.9	1.0	-5.7027	955.0	0.4	Outcome1	2.9	-0.76	0.0	No	n/a	3.66024915062288	n/a	n/a	n/a	ShowChoice	Mixed
166.009	1.0	0.015	1198.639	64.0	3	2.9	1.0	-5.7027	955.0	0.4	Outcome1	2.9	-0.76	0.0	No	n/a	3.66024915062288	n/a	n/a	n/a	ShowResult	Mixed
167.026	5.47	0.017	1199.656	64.0	3	2.9	1.0	-5.7027	955.0	0.4	Outcome1	2.9	-0.76	0.0	No	n/a	3.66024915062288	n/a	n/a	n/a	ISITrial	Mixed
172.524	3.0	0.028	1205.154	65.0	3	0.0	0.0	-5.7027	955.0	1.2	Certain	-1.9	1.9	2.99675	Yes	4.0	3.7995469988675	1.372	173.896	n/a	GetAnswer	Mixed
173.907	4.0	0.011	1206.537	65.0	3	0.0	0.0	-5.7027	955.0	1.2	Certain	-1.9	1.9	2.99675	Yes	n/a	3.7995469988675	n/a	n/a	n/a	ShowChoice	Mixed
177.922	1.0	0.015	1210.552	65.0	3	0.0	0.0	-5.7027	955.0	1.2	Certain	-1.9	1.9	2.99675	Yes	n/a	3.7995469988675	n/a	n/a	n/a	ShowResult	Mixed
178.938	3.344	0.016	1211.568	65.0	3	0.0	0.0	-5.7027	955.0	1.2	Certain	-1.9	1.9	2.99675	Yes	n/a	3.7995469988675	n/a	n/a	n/a	ISITrial	Mixed
182.304	2.997	0.022	1214.934	65.0	3	0.0	0.0	-5.7027	955.0	1.2	Certain	-1.9	1.9	2.99675	Yes	n/a	3.7995469988675	n/a	n/a	n/a	TrialHappPreview	Mixed
185.319	4.016	0.018	1217.949	65.0	3	0.0	0.0	-5.7027	955.0	1.2	Certain	-1.9	1.9	2.99675	Yes	n/a	3.7995469988675	n/a	n/a	784.0	TrialHappiness	Mixed
185.32	0.711	n/a	1218.661	65.0	3	0.0	0.0	-5.7027	955.0	1.2	Certain	-1.9	1.9	2.99675	Yes	n/a	3.7995469988675	n/a	n/a	784.0	TrialHappinessSliderResponse	Mixed
189.335	3.987	4.016	1221.965	65.0	3	0.0	0.0	-5.7027	955.0	1.2	Certain	-1.9	1.9	2.99675	Yes	n/a	3.7995469988675	n/a	n/a	n/a	ISIRate	Mixed
193.35	3.0	0.028	1225.98	66.0	3	0.0	0.0	-5.7027	955.0	0.2	Certain	-2.25	2.5	0.0	No	4.0	4.75424688561721	1.068	194.418	n/a	GetAnswer	Mixed
194.433	4.0	0.015	1227.063	66.0	3	0.0	0.0	-5.7027	955.0	0.2	Certain	-2.25	2.5	0.0	No	n/a	4.75424688561721	n/a	n/a	n/a	ShowChoice	Mixed
198.448	1.0	0.015	1231.078	66.0	3	0.0	0.0	-5.7027	955.0	0.2	Certain	-2.25	2.5	0.0	No	n/a	4.75424688561721	n/a	n/a	n/a	ShowResult	Mixed
199.464	3.959	0.016	1232.094	66.0	3	0.0	0.0	-5.7027	955.0	0.2	Certain	-2.25	2.5	0.0	No	n/a	4.75424688561721	n/a	n/a	n/a	ISITrial	Mixed
203.446	3.0	0.023	1236.076	67.0	3	6.9	0.98	-4.8402	955.0	2.0	Outcome1	6.9	1.95	2.9185	Yes	2.0	4.94790486976217	1.358	204.804	n/a	GetAnswer	Gain
204.829	4.0	0.025	1237.459	67.0	3	6.9	0.98	-4.8402	955.0	2.0	Outcome1	6.9	1.95	2.9185	Yes	n/a	4.94790486976217	n/a	n/a	n/a	ShowChoice	Gain
208.844	1.0	0.015	1241.474	67.0	3	6.9	0.98	-4.8402	955.0	2.0	Outcome1	6.9	1.95	2.9185	Yes	n/a	4.94790486976217	n/a	n/a	n/a	ShowResult	Gain
209.861	4.199	0.017	1242.491	67.0	3	6.9	0.98	-4.8402	955.0	2.0	Outcome1	6.9	1.95	2.9185	Yes	n/a	4.94790486976217	n/a	n/a	n/a	ISITrial	Gain
214.076	2.918	0.016	1246.706	67.0	3	6.9	0.98	-4.8402	955.0	2.0	Outcome1	6.9	1.95	2.9185	Yes	n/a	4.94790486976217	n/a	n/a	n/a	TrialHappPreview	Gain
217.008	4.016	0.014	1249.638	67.0	3	6.9	0.98	-4.8402	955.0	2.0	Outcome1	6.9	1.95	2.9185	Yes	n/a	4.94790486976217	n/a	n/a	832.0	TrialHappiness	Gain
217.009	0.814	n/a	1250.28	67.0	3	6.9	0.98	-4.8402	955.0	2.0	Outcome1	6.9	1.95	2.9185	Yes	n/a	4.94790486976217	n/a	n/a	832.0	TrialHappinessSliderResponse	Gain
221.024	3.674	4.016	1253.654	67.0	3	6.9	0.98	-4.8402	955.0	2.0	Outcome1	6.9	1.95	2.9185	Yes	n/a	4.94790486976217	n/a	n/a	n/a	ISIRate	Gain
224.722	3.0	0.024	1257.352	68.0	3	-2.19	-2.0	-5.114	955.0	0.2	Outcome1	-2.19	-1.5	0.0	No	2.0	-0.6855417138542851	1.628	226.35	n/a	GetAnswer	Mixed
226.372	4.0	0.022	1259.002	68.0	3	-2.19	-2.0	-5.114	955.0	0.2	Outcome1	-2.19	-1.5	0.0	No	n/a	-0.6855417138542851	n/a	n/a	n/a	ShowChoice	Mixed
230.387	1.0	0.015	1263.017	68.0	3	-2.19	-2.0	-5.114	955.0	0.2	Outcome1	-2.19	-1.5	0.0	No	n/a	-0.6855417138542851	n/a	n/a	n/a	ShowResult	Mixed
231.403	2.185	0.016	1264.033	68.0	3	-2.19	-2.0	-5.114	955.0	0.2	Outcome1	-2.19	-1.5	0.0	No	n/a	-0.6855417138542851	n/a	n/a	n/a	ISITrial	Mixed
233.619	3.0	0.031	1266.249	69.0	3	12.1	3.82	-3.6015	955.0	4.2	Outcome2	7.63	12.1	0.0	No	2.0	4.46545866364666	1.051	234.67	n/a	GetAnswer	Loss
234.686	4.0	0.016	1267.316	69.0	3	12.1	3.82	-3.6015	955.0	4.2	Outcome2	7.63	12.1	0.0	No	n/a	4.46545866364666	n/a	n/a	n/a	ShowChoice	Loss
238.701	1.0	0.015	1271.331	69.0	3	12.1	3.82	-3.6015	955.0	4.2	Outcome2	7.63	12.1	0.0	No	n/a	4.46545866364666	n/a	n/a	n/a	ShowResult	Loss
239.717	2.0	0.016	1272.347	69.0	3	12.1	3.82	-3.6015	955.0	4.2	Outcome2	7.63	12.1	0.0	No	n/a	4.46545866364666	n/a	n/a	n/a	ISITrial	Loss
241.733	3.0	0.016	1274.363	70.0	3	7.79	3.9	-2.6277	955.0	1.68	Outcome1	7.79	8.5	3.65125	Yes	2.0	-0.708758021895055	0.989	242.722	n/a	GetAnswer	Gain
242.749	4.0	0.027	1275.379	70.0	3	7.79	3.9	-2.6277	955.0	1.68	Outcome1	7.79	8.5	3.65125	Yes	n/a	-0.708758021895055	n/a	n/a	n/a	ShowChoice	Gain
246.765	1.0	0.016	1279.395	70.0	3	7.79	3.9	-2.6277	955.0	1.68	Outcome1	7.79	8.5	3.65125	Yes	n/a	-0.708758021895055	n/a	n/a	n/a	ShowResult	Gain
247.781	2.623	0.016	1280.411	70.0	3	7.79	3.9	-2.6277	955.0	1.68	Outcome1	7.79	8.5	3.65125	Yes	n/a	-0.708758021895055	n/a	n/a	n/a	ISITrial	Gain
250.43	3.651	0.026	1283.06	70.0	3	7.79	3.9	-2.6277	955.0	1.68	Outcome1	7.79	8.5	3.65125	Yes	n/a	-0.708758021895055	n/a	n/a	n/a	TrialHappPreview	Gain
254.095	4.016	0.014	1286.725	70.0	3	7.79	3.9	-2.6277	955.0	1.68	Outcome1	7.79	8.5	3.65125	Yes	n/a	-0.708758021895055	n/a	n/a	800.0	TrialHappiness	Gain
254.096	0.75	n/a	1287.265	70.0	3	7.79	3.9	-2.6277	955.0	1.68	Outcome1	7.79	8.5	3.65125	Yes	n/a	-0.708758021895055	n/a	n/a	800.0	TrialHappinessSliderResponse	Gain
258.111	6.605	4.016	1290.741	70.0	3	7.79	3.9	-2.6277	955.0	1.68	Outcome1	7.79	8.5	3.65125	Yes	n/a	-0.708758021895055	n/a	n/a	n/a	ISIRate	Gain
264.742	3.0	0.026	1297.372	71.0	3	5.1	2.0	-1.9902	955.0	2.22	Outcome2	-0.19	5.1	0.0	No	2.0	5.2876557191393	1.114	265.856	n/a	GetAnswer	Gain
265.875	4.0	0.019	1298.505	71.0	3	5.1	2.0	-1.9902	955.0	2.22	Outcome2	-0.19	5.1	0.0	No	n/a	5.2876557191393	n/a	n/a	n/a	ShowChoice	Gain
269.89	1.0	0.015	1302.52	71.0	3	5.1	2.0	-1.9902	955.0	2.22	Outcome2	-0.19	5.1	0.0	No	n/a	5.2876557191393	n/a	n/a	n/a	ShowResult	Gain
270.906	5.499	0.016	1303.536	71.0	3	5.1	2.0	-1.9902	955.0	2.22	Outcome2	-0.19	5.1	0.0	No	n/a	5.2876557191393	n/a	n/a	n/a	ISITrial	Gain
276.421	3.0	0.016	1309.051	72.0	3	6.3	0.42	-1.2027	955.0	5.0	Outcome2	0.84	6.3	3.0805	Yes	2.0	5.46319365798414	1.104	277.525	n/a	GetAnswer	Gain
277.537	4.0	0.012	1310.167	72.0	3	6.3	0.42	-1.2027	955.0	5.0	Outcome2	0.84	6.3	3.0805	Yes	n/a	5.46319365798414	n/a	n/a	n/a	ShowChoice	Gain
281.553	1.0	0.016	1314.183	72.0	3	6.3	0.42	-1.2027	955.0	5.0	Outcome2	0.84	6.3	3.0805	Yes	n/a	5.46319365798414	n/a	n/a	n/a	ShowResult	Gain
282.569	5.672	0.016	1315.199	72.0	3	6.3	0.42	-1.2027	955.0	5.0	Outcome2	0.84	6.3	3.0805	Yes	n/a	5.46319365798414	n/a	n/a	n/a	ISITrial	Gain
288.267	3.08	0.026	1320.897	72.0	3	6.3	0.42	-1.2027	955.0	5.0	Outcome2	0.84	6.3	3.0805	Yes	n/a	5.46319365798414	n/a	n/a	n/a	TrialHappPreview	Gain
291.366	4.015	0.019	1323.996	72.0	3	6.3	0.42	-1.2027	955.0	5.0	Outcome2	0.84	6.3	3.0805	Yes	n/a	5.46319365798414	n/a	n/a	888.0	TrialHappiness	Gain
291.367	0.924	n/a	1324.512	72.0	3	6.3	0.42	-1.2027	955.0	5.0	Outcome2	0.84	6.3	3.0805	Yes	n/a	5.46319365798414	n/a	n/a	888.0	TrialHappinessSliderResponse	Gain
295.381	4.322	4.015	1328.011	72.0	3	6.3	0.42	-1.2027	955.0	5.0	Outcome2	0.84	6.3	3.0805	Yes	n/a	5.46319365798414	n/a	n/a	n/a	ISIRate	Gain
299.73	3.0	0.027	1332.36	73.0	3	2.0	2.0	-0.9527	955.0	1.5	Certain	-0.04	4.1	0.0	No	4.0	4.14382785956965	1.396	301.126	n/a	GetAnswer	Mixed
301.146	4.0	0.02	1333.776	73.0	3	2.0	2.0	-0.9527	955.0	1.5	Certain	-0.04	4.1	0.0	No	n/a	4.14382785956965	n/a	n/a	n/a	ShowChoice	Mixed
305.161	1.0	0.015	1337.791	73.0	3	2.0	2.0	-0.9527	955.0	1.5	Certain	-0.04	4.1	0.0	No	n/a	4.14382785956965	n/a	n/a	n/a	ShowResult	Mixed
306.177	4.616	0.016	1338.807	73.0	3	2.0	2.0	-0.9527	955.0	1.5	Certain	-0.04	4.1	0.0	No	n/a	4.14382785956965	n/a	n/a	n/a	ISITrial	Mixed
310.809	3.0	0.016	1343.439	74.0	3	0.0	0.0	-0.9527	955.0	1.0	Certain	-0.3	-0.83	3.05625	Yes	4.0	-0.528690071725179	1.028	311.837	n/a	GetAnswer	Mixed
311.859	4.0	0.022	1344.489	74.0	3	0.0	0.0	-0.9527	955.0	1.0	Certain	-0.3	-0.83	3.05625	Yes	n/a	-0.528690071725179	n/a	n/a	n/a	ShowChoice	Mixed
315.874	1.0	0.015	1348.504	74.0	3	0.0	0.0	-0.9527	955.0	1.0	Certain	-0.3	-0.83	3.05625	Yes	n/a	-0.528690071725179	n/a	n/a	n/a	ShowResult	Mixed
316.89	3.909	0.016	1349.52	74.0	3	0.0	0.0	-0.9527	955.0	1.0	Certain	-0.3	-0.83	3.05625	Yes	n/a	-0.528690071725179	n/a	n/a	n/a	ISITrial	Mixed
320.822	3.056	0.023	1353.452	74.0	3	0.0	0.0	-0.9527	955.0	1.0	Certain	-0.3	-0.83	3.05625	Yes	n/a	-0.528690071725179	n/a	n/a	n/a	TrialHappPreview	Mixed
323.905	4.015	0.027	1356.535	74.0	3	0.0	0.0	-0.9527	955.0	1.0	Certain	-0.3	-0.83	3.05625	Yes	n/a	-0.528690071725179	n/a	n/a	816.0	TrialHappiness	Mixed
323.905	1.261	n/a	1356.88	74.0	3	0.0	0.0	-0.9527	955.0	1.0	Certain	-0.3	-0.83	3.05625	Yes	n/a	-0.528690071725179	n/a	n/a	816.0	TrialHappinessSliderResponse	Mixed
327.92	4.225	4.015	1360.55	74.0	3	0.0	0.0	-0.9527	955.0	1.0	Certain	-0.3	-0.83	3.05625	Yes	n/a	-0.528690071725179	n/a	n/a	n/a	ISIRate	Mixed
332.168	3.0	0.023	1364.798	75.0	3	7.9	1.19	0.0348	955.0	3.6	Outcome1	7.9	2.38	0.0	No	2.0	5.51868629671574	1.2	333.368	n/a	GetAnswer	Gain
333.385	4.0	0.017	1366.015	75.0	3	7.9	1.19	0.0348	955.0	3.6	Outcome1	7.9	2.38	0.0	No	n/a	5.51868629671574	n/a	n/a	n/a	ShowChoice	Gain
337.4	1.0	0.015	1370.03	75.0	3	7.9	1.19	0.0348	955.0	3.6	Outcome1	7.9	2.38	0.0	No	n/a	5.51868629671574	n/a	n/a	n/a	ShowResult	Gain
338.416	4.979	0.016	1371.046	75.0	3	7.9	1.19	0.0348	955.0	3.6	Outcome1	7.9	2.38	0.0	No	n/a	5.51868629671574	n/a	n/a	n/a	ISITrial	Gain
343.415	3.0	0.02	1376.045	76.0	3	8.46	4.23	1.0923	955.0	2.48	Outcome1	8.46	9.3	0.0	No	2.0	-0.840317100792752	1.039	344.454	n/a	GetAnswer	Gain
344.481	4.0	0.027	1377.111	76.0	3	8.46	4.23	1.0923	955.0	2.48	Outcome1	8.46	9.3	0.0	No	n/a	-0.840317100792752	n/a	n/a	n/a	ShowChoice	Gain
348.496	1.0	0.015	1381.126	76.0	3	8.46	4.23	1.0923	955.0	2.48	Outcome1	8.46	9.3	0.0	No	n/a	-0.840317100792752	n/a	n/a	n/a	ShowResult	Gain
349.512	3.931	0.016	1382.142	76.0	3	8.46	4.23	1.0923	955.0	2.48	Outcome1	8.46	9.3	0.0	No	n/a	-0.840317100792752	n/a	n/a	n/a	ISITrial	Gain
353.461	3.0	0.018	1386.091	77.0	3	-0.7	-3.0	1.0048	955.0	0.66	Outcome2	-6.53	-0.7	4.0	Yes	2.0	5.833522083805209	1.439	354.9	n/a	GetAnswer	Mixed
354.927	4.0	0.027	1387.557	77.0	3	-0.7	-3.0	1.0048	955.0	0.66	Outcome2	-6.53	-0.7	4.0	Yes	n/a	5.833522083805209	n/a	n/a	n/a	ShowChoice	Mixed
358.943	1.0	0.016	1391.573	77.0	3	-0.7	-3.0	1.0048	955.0	0.66	Outcome2	-6.53	-0.7	4.0	Yes	n/a	5.833522083805209	n/a	n/a	n/a	ShowResult	Mixed
359.959	7.022	0.016	1392.589	77.0	3	-0.7	-3.0	1.0048	955.0	0.66	Outcome2	-6.53	-0.7	4.0	Yes	n/a	5.833522083805209	n/a	n/a	n/a	ISITrial	Mixed
367.006	4.0	0.025	1399.636	77.0	3	-0.7	-3.0	1.0048	955.0	0.66	Outcome2	-6.53	-0.7	4.0	Yes	n/a	5.833522083805209	n/a	n/a	n/a	TrialHappPreview	Mixed
371.022	4.015	0.016	1403.652	77.0	3	-0.7	-3.0	1.0048	955.0	0.66	Outcome2	-6.53	-0.7	4.0	Yes	n/a	5.833522083805209	n/a	n/a	832.0	TrialHappiness	Mixed
371.022	0.801	n/a	1404.156	77.0	3	-0.7	-3.0	1.0048	955.0	0.66	Outcome2	-6.53	-0.7	4.0	Yes	n/a	5.833522083805209	n/a	n/a	832.0	TrialHappinessSliderResponse	Mixed
375.037	8.0	4.015	1407.667	77.0	3	-0.7	-3.0	1.0048	955.0	0.66	Outcome2	-6.53	-0.7	4.0	Yes	n/a	5.833522083805209	n/a	n/a	n/a	ISIRate	Mixed
383.068	3.0	0.031	1415.698	78.0	3	11.1	2.69	2.3923	955.0	2.22	Outcome2	5.38	11.1	0.0	No	2.0	5.7191392978482405	1.076	384.144	n/a	GetAnswer	Loss
384.167	4.0	0.023	1416.797	78.0	3	11.1	2.69	2.3923	955.0	2.22	Outcome2	5.38	11.1	0.0	No	n/a	5.7191392978482405	n/a	n/a	n/a	ShowChoice	Loss
388.182	1.0	0.015	1420.812	78.0	3	11.1	2.69	2.3923	955.0	2.22	Outcome2	5.38	11.1	0.0	No	n/a	5.7191392978482405	n/a	n/a	n/a	ShowResult	Loss
389.199	2.078	0.017	1421.829	78.0	3	11.1	2.69	2.3923	955.0	2.22	Outcome2	5.38	11.1	0.0	No	n/a	5.7191392978482405	n/a	n/a	n/a	ISITrial	Loss
391.298	3.0	0.021	1423.928	79.0	3	-1.0	-1.0	2.2673	955.0	1.2	Certain	1.9	-3.96	2.7295	Yes	4.0	5.858437146092871	1.304	392.602	n/a	GetAnswer	Mixed
392.614	4.0	0.012	1425.244	79.0	3	-1.0	-1.0	2.2673	955.0	1.2	Certain	1.9	-3.96	2.7295	Yes	n/a	5.858437146092871	n/a	n/a	n/a	ShowChoice	Mixed
396.63	1.0	0.016	1429.26	79.0	3	-1.0	-1.0	2.2673	955.0	1.2	Certain	1.9	-3.96	2.7295	Yes	n/a	5.858437146092871	n/a	n/a	n/a	ShowResult	Mixed
397.646	3.829	0.016	1430.276	79.0	3	-1.0	-1.0	2.2673	955.0	1.2	Certain	1.9	-3.96	2.7295	Yes	n/a	5.858437146092871	n/a	n/a	n/a	ISITrial	Mixed
401.494	2.73	0.019	1434.124	79.0	3	-1.0	-1.0	2.2673	955.0	1.2	Certain	1.9	-3.96	2.7295	Yes	n/a	5.858437146092871	n/a	n/a	n/a	TrialHappPreview	Mixed
404.244	4.015	0.02	1436.874	79.0	3	-1.0	-1.0	2.2673	955.0	1.2	Certain	1.9	-3.96	2.7295	Yes	n/a	5.858437146092871	n/a	n/a	856.0	TrialHappiness	Mixed
404.244	0.853	n/a	1437.592	79.0	3	-1.0	-1.0	2.2673	955.0	1.2	Certain	1.9	-3.96	2.7295	Yes	n/a	5.858437146092871	n/a	n/a	856.0	TrialHappinessSliderResponse	Mixed
408.259	2.918	4.015	1440.889	79.0	3	-1.0	-1.0	2.2673	955.0	1.2	Certain	1.9	-3.96	2.7295	Yes	n/a	5.858437146092871	n/a	n/a	n/a	ISIRate	Mixed
411.208	3.0	0.031	1443.838	80.0	3	10.7	2.56	3.6048	955.0	1.82	Outcome1	10.7	5.11	0.0	No	2.0	5.59003397508494	1.176	412.384	n/a	GetAnswer	Loss
412.407	4.0	0.023	1445.037	80.0	3	10.7	2.56	3.6048	955.0	1.82	Outcome1	10.7	5.11	0.0	No	n/a	5.59003397508494	n/a	n/a	n/a	ShowChoice	Loss
416.423	1.0	0.016	1449.053	80.0	3	10.7	2.56	3.6048	955.0	1.82	Outcome1	10.7	5.11	0.0	No	n/a	5.59003397508494	n/a	n/a	n/a	ShowResult	Loss
417.439	3.336	0.016	1450.069	80.0	3	10.7	2.56	3.6048	955.0	1.82	Outcome1	10.7	5.11	0.0	No	n/a	5.59003397508494	n/a	n/a	n/a	ISITrial	Loss
420.804	3.0	0.029	1453.434	81.0	3	0.36	0.0	3.6498	955.0	0.52	Outcome2	1.1	0.36	3.92375	Yes	2.0	-0.736787466968667	1.296	422.1	n/a	GetAnswer	Mixed
422.121	4.0	0.021	1454.751	81.0	3	0.36	0.0	3.6498	955.0	0.52	Outcome2	1.1	0.36	3.92375	Yes	n/a	-0.736787466968667	n/a	n/a	n/a	ShowChoice	Mixed
426.136	1.0	0.015	1458.766	81.0	3	0.36	0.0	3.6498	955.0	0.52	Outcome2	1.1	0.36	3.92375	Yes	n/a	-0.736787466968667	n/a	n/a	n/a	ShowResult	Mixed
427.152	3.919	0.016	1459.782	81.0	3	0.36	0.0	3.6498	955.0	0.52	Outcome2	1.1	0.36	3.92375	Yes	n/a	-0.736787466968667	n/a	n/a	n/a	ISITrial	Mixed
431.084	3.924	0.013	1463.714	81.0	3	0.36	0.0	3.6498	955.0	0.52	Outcome2	1.1	0.36	3.92375	Yes	n/a	-0.736787466968667	n/a	n/a	n/a	TrialHappPreview	Mixed
435.033	4.015	0.025	1467.663	81.0	3	0.36	0.0	3.6498	955.0	0.52	Outcome2	1.1	0.36	3.92375	Yes	n/a	-0.736787466968667	n/a	n/a	856.0	TrialHappiness	Mixed
435.034	0.86	n/a	1468.159	81.0	3	0.36	0.0	3.6498	955.0	0.52	Outcome2	1.1	0.36	3.92375	Yes	n/a	-0.736787466968667	n/a	n/a	856.0	TrialHappinessSliderResponse	Mixed
439.048	7.695	4.015	1471.678	81.0	3	0.36	0.0	3.6498	955.0	0.52	Outcome2	1.1	0.36	3.92375	Yes	n/a	-0.736787466968667	n/a	n/a	n/a	ISIRate	Mixed
446.762	3.0	0.019	1479.392	n/a	3	n/a	n/a	n/a	n/a	n/a	n/a	n/a	n/a	n/a	n/a	n/a	n/a	n/a	n/a	n/a	CurrentEarnings	n/a
449.778	-0.001	0.016	1482.408	n/a	3	n/a	n/a	n/a	n/a	n/a	n/a	n/a	n/a	n/a	n/a	{SPACE}	n/a	8.471	458.249	n/a	Goodbye	n/a
