onset	duration	onset_delay	onset_unadjusted	trial_number	block	amount_change	certain_amount	current_amount	mood_target	multiplier	outcome	outcome1_amount	outcome2_amount	question_duration	rating	response	rpe	rt	rt_time	slider_response	trial_phase	trial_type
-51.694	-0.001	0.033	34.838	n/a	0	n/a	n/a	n/a	n/a	n/a	n/a	n/a	n/a	n/a	n/a	{SPACE}	n/a	7.265	-44.429	n/a	Welcome	n/a
-44.399	5.0	0.03	42.133	n/a	0	n/a	n/a	n/a	n/a	n/a	n/a	n/a	n/a	n/a	n/a	n/a	n/a	n/a	n/a	n/a	LifeHappyPreview	n/a
-39.368	4.037	0.031	47.164	n/a	0	n/a	n/a	n/a	n/a	n/a	n/a	n/a	n/a	n/a	n/a	n/a	n/a	n/a	n/a	736.0	LifeHappiness	n/a
-39.367	3.188	n/a	48.014	n/a	0	n/a	n/a	n/a	n/a	n/a	n/a	n/a	n/a	n/a	n/a	n/a	n/a	n/a	n/a	736.0	LifeHappinessSliderResponse	n/a
-18.522	4.0	0.019	68.01	n/a	0	n/a	n/a	n/a	n/a	n/a	n/a	n/a	n/a	n/a	n/a	n/a	n/a	n/a	n/a	n/a	BlockHappyPreview	n/a
-14.51	1.647	0.012	72.022	n/a	0	n/a	n/a	n/a	n/a	n/a	n/a	n/a	n/a	n/a	n/a	n/a	n/a	n/a	n/a	532.0	BlockStartHappiness	n/a
-14.509	0.145	n/a	73.525	n/a	0	n/a	n/a	n/a	n/a	n/a	n/a	n/a	n/a	n/a	n/a	n/a	n/a	n/a	n/a	532.0	BlockStartHappinessSliderResponse	n/a
-2.875	-0.001	0.019	83.657	n/a	0	n/a	n/a	n/a	n/a	n/a	n/a	n/a	n/a	n/a	n/a	5.0	n/a	2.862	-0.013	n/a	ScanWait	n/a
0.0	10.0	0.013	86.532	n/a	1	n/a	n/a	n/a	n/a	n/a	n/a	n/a	n/a	n/a	n/a	n/a	n/a	n/a	n/a	n/a	GetReady	n/a
10.03	3.0	0.03	96.562	1.0	1	5.18	2.59	10.6475	955.0	2.0	Outcome2	6.9	5.18	0.0	No	2.0	-1.71659116647792	1.411	11.441	n/a	GetAnswer	Gain
11.468	4.0	0.027	98.0	1.0	1	5.18	2.59	10.6475	955.0	2.0	Outcome2	6.9	5.18	0.0	No	n/a	-1.71659116647792	n/a	n/a	n/a	ShowChoice	Gain
15.48	1.0	0.012	102.012	1.0	1	5.18	2.59	10.6475	955.0	2.0	Outcome2	6.9	5.18	0.0	No	n/a	-1.71659116647792	n/a	n/a	n/a	ShowResult	Gain
16.5	2.431	0.02	103.032	1.0	1	5.18	2.59	10.6475	955.0	2.0	Outcome2	6.9	5.18	0.0	No	n/a	-1.71659116647792	n/a	n/a	n/a	ISITrial	Gain
18.957	3.0	0.026	105.489	2.0	1	-1.0	-1.0	10.5225	955.0	1.0	Certain	-2.06	-0.3	0.0	No	4.0	-1.75651189127973	2.086	21.043	n/a	GetAnswer	Mixed
21.063	4.0	0.02	107.595	2.0	1	-1.0	-1.0	10.5225	955.0	1.0	Certain	-2.06	-0.3	0.0	No	n/a	-1.75651189127973	n/a	n/a	n/a	ShowChoice	Mixed
25.075	1.0	0.012	111.607	2.0	1	-1.0	-1.0	10.5225	955.0	1.0	Certain	-2.06	-0.3	0.0	No	n/a	-1.75651189127973	n/a	n/a	n/a	ShowResult	Mixed
26.095	4.568	0.02	112.627	2.0	1	-1.0	-1.0	10.5225	955.0	1.0	Certain	-2.06	-0.3	0.0	No	n/a	-1.75651189127973	n/a	n/a	n/a	ISITrial	Mixed
30.692	3.0	0.029	117.224	3.0	1	8.5	4.25	11.585	955.0	5.0	Outcome1	8.5	10.3	2.868	Yes	2.0	-1.79643261608154	1.286	31.978	n/a	GetAnswer	Gain
31.996	4.0	0.018	118.528	3.0	1	8.5	4.25	11.585	955.0	5.0	Outcome1	8.5	10.3	2.868	Yes	n/a	-1.79643261608154	n/a	n/a	n/a	ShowChoice	Gain
36.008	1.0	0.012	122.54	3.0	1	8.5	4.25	11.585	955.0	5.0	Outcome1	8.5	10.3	2.868	Yes	n/a	-1.79643261608154	n/a	n/a	n/a	ShowResult	Gain
37.028	3.243	0.02	123.56	3.0	1	8.5	4.25	11.585	955.0	5.0	Outcome1	8.5	10.3	2.868	Yes	n/a	-1.79643261608154	n/a	n/a	n/a	ISITrial	Gain
40.288	2.868	0.017	126.82	3.0	1	8.5	4.25	11.585	955.0	5.0	Outcome1	8.5	10.3	2.868	Yes	n/a	-1.79643261608154	n/a	n/a	n/a	TrialHappPreview	Gain
43.179	4.013	0.023	129.711	3.0	1	8.5	4.25	11.585	955.0	5.0	Outcome1	8.5	10.3	2.868	Yes	2{-2}	-1.79643261608154	1.546	44.725	560.0	TrialHappiness	Gain
43.18	0.243	n/a	131.015	3.0	1	8.5	4.25	11.585	955.0	5.0	Outcome1	8.5	10.3	2.868	Yes	n/a	-1.79643261608154	n/a	n/a	560.0	TrialHappinessSliderResponse	Gain
47.192	3.472	4.013	133.724	3.0	1	8.5	4.25	11.585	955.0	5.0	Outcome1	8.5	10.3	2.868	Yes	n/a	-1.79643261608154	n/a	n/a	n/a	ISIRate	Gain
50.685	3.0	0.021	137.217	4.0	1	-0.22	-0.22	11.5575	955.0	3.16	Certain	-0.45	7.7	0.0	No	4.0	8.14722536806342	1.318	52.003	n/a	GetAnswer	Gain
52.023	4.0	0.02	138.555	4.0	1	-0.22	-0.22	11.5575	955.0	3.16	Certain	-0.45	7.7	0.0	No	n/a	8.14722536806342	n/a	n/a	n/a	ShowChoice	Gain
56.051	1.0	0.028	142.583	4.0	1	-0.22	-0.22	11.5575	955.0	3.16	Certain	-0.45	7.7	0.0	No	n/a	8.14722536806342	n/a	n/a	n/a	ShowResult	Gain
57.071	2.011	0.02	143.603	4.0	1	-0.22	-0.22	11.5575	955.0	3.16	Certain	-0.45	7.7	0.0	No	n/a	8.14722536806342	n/a	n/a	n/a	ISITrial	Gain
59.111	3.0	0.029	145.643	5.0	1	9.3	0.36	12.72	955.0	2.48	Outcome1	9.3	0.71	2.5825	Yes	2.0	8.59456398640997	1.48	60.591	n/a	GetAnswer	Gain
60.615	4.0	0.024	147.147	5.0	1	9.3	0.36	12.72	955.0	2.48	Outcome1	9.3	0.71	2.5825	Yes	n/a	8.59456398640997	n/a	n/a	n/a	ShowChoice	Gain
64.627	1.0	0.012	151.159	5.0	1	9.3	0.36	12.72	955.0	2.48	Outcome1	9.3	0.71	2.5825	Yes	n/a	8.59456398640997	n/a	n/a	n/a	ShowResult	Gain
65.647	5.129	0.02	152.179	5.0	1	9.3	0.36	12.72	955.0	2.48	Outcome1	9.3	0.71	2.5825	Yes	n/a	8.59456398640997	n/a	n/a	n/a	ISITrial	Gain
70.796	2.582	0.02	157.328	5.0	1	9.3	0.36	12.72	955.0	2.48	Outcome1	9.3	0.71	2.5825	Yes	n/a	8.59456398640997	n/a	n/a	n/a	TrialHappPreview	Gain
73.403	4.012	0.025	159.935	5.0	1	9.3	0.36	12.72	955.0	2.48	Outcome1	9.3	0.71	2.5825	Yes	n/a	8.59456398640997	n/a	n/a	552.0	TrialHappiness	Gain
73.404	0.232	n/a	160.431	5.0	1	9.3	0.36	12.72	955.0	2.48	Outcome1	9.3	0.71	2.5825	Yes	n/a	8.59456398640997	n/a	n/a	552.0	TrialHappinessSliderResponse	Gain
77.415	2.33	4.012	163.947	5.0	1	9.3	0.36	12.72	955.0	2.48	Outcome1	9.3	0.71	2.5825	Yes	n/a	8.59456398640997	n/a	n/a	n/a	ISIRate	Gain
79.772	3.0	0.027	166.304	6.0	1	11.5	1.16	14.1575	955.0	2.8	Outcome1	11.5	2.32	0.0	No	2.0	9.17780294450736	1.408	81.18	n/a	GetAnswer	Loss
81.193	4.0	0.013	167.725	6.0	1	11.5	1.16	14.1575	955.0	2.8	Outcome1	11.5	2.32	0.0	No	n/a	9.17780294450736	n/a	n/a	n/a	ShowChoice	Loss
85.205	1.0	0.012	171.737	6.0	1	11.5	1.16	14.1575	955.0	2.8	Outcome1	11.5	2.32	0.0	No	n/a	9.17780294450736	n/a	n/a	n/a	ShowResult	Loss
86.225	6.232	0.02	172.757	6.0	1	11.5	1.16	14.1575	955.0	2.8	Outcome1	11.5	2.32	0.0	No	n/a	9.17780294450736	n/a	n/a	n/a	ISITrial	Loss
92.477	3.0	0.02	179.009	7.0	1	1.43	2.0	14.3363	955.0	0.66	Outcome2	3.3	1.43	0.0	No	2.0	-1.86778029445074	1.261	93.738	n/a	GetAnswer	Mixed
93.764	4.0	0.026	180.296	7.0	1	1.43	2.0	14.3363	955.0	0.66	Outcome2	3.3	1.43	0.0	No	n/a	-1.86778029445074	n/a	n/a	n/a	ShowChoice	Mixed
97.776	1.0	0.012	184.308	7.0	1	1.43	2.0	14.3363	955.0	0.66	Outcome2	3.3	1.43	0.0	No	n/a	-1.86778029445074	n/a	n/a	n/a	ShowResult	Mixed
98.796	2.305	0.02	185.328	7.0	1	1.43	2.0	14.3363	955.0	0.66	Outcome2	3.3	1.43	0.0	No	n/a	-1.86778029445074	n/a	n/a	n/a	ISITrial	Mixed
101.12	3.0	0.019	187.652	8.0	1	13.5	1.7	16.0238	955.0	2.8	Outcome1	13.5	3.41	3.1125	Yes	2.0	10.0906002265006	1.312	102.432	n/a	GetAnswer	Loss
102.457	4.0	0.025	188.989	8.0	1	13.5	1.7	16.0238	955.0	2.8	Outcome1	13.5	3.41	3.1125	Yes	n/a	10.0906002265006	n/a	n/a	n/a	ShowChoice	Loss
106.469	1.0	0.012	193.001	8.0	1	13.5	1.7	16.0238	955.0	2.8	Outcome1	13.5	3.41	3.1125	Yes	n/a	10.0906002265006	n/a	n/a	n/a	ShowResult	Loss
107.489	3.506	0.02	194.021	8.0	1	13.5	1.7	16.0238	955.0	2.8	Outcome1	13.5	3.41	3.1125	Yes	n/a	10.0906002265006	n/a	n/a	n/a	ISITrial	Loss
111.016	3.112	0.021	197.548	8.0	1	13.5	1.7	16.0238	955.0	2.8	Outcome1	13.5	3.41	3.1125	Yes	n/a	10.0906002265006	n/a	n/a	n/a	TrialHappPreview	Loss
114.159	4.012	0.031	200.691	8.0	1	13.5	1.7	16.0238	955.0	2.8	Outcome1	13.5	3.41	3.1125	Yes	n/a	10.0906002265006	n/a	n/a	560.0	TrialHappiness	Loss
114.159	3.258	n/a	201.134	8.0	1	13.5	1.7	16.0238	955.0	2.8	Outcome1	13.5	3.41	3.1125	Yes	n/a	10.0906002265006	n/a	n/a	560.0	TrialHappinessSliderResponse	Loss
118.171	4.45	4.012	204.703	8.0	1	13.5	1.7	16.0238	955.0	2.8	Outcome1	13.5	3.41	3.1125	Yes	n/a	10.0906002265006	n/a	n/a	n/a	ISIRate	Loss
122.651	3.0	0.03	209.183	9.0	1	-4.0	-4.0	15.5238	955.0	0.52	Certain	1.1	-9.31	0.0	No	4.0	10.4110985277463	2.104	124.755	n/a	GetAnswer	Mixed
124.774	4.0	0.019	211.306	9.0	1	-4.0	-4.0	15.5238	955.0	0.52	Certain	1.1	-9.31	0.0	No	n/a	10.4110985277463	n/a	n/a	n/a	ShowChoice	Mixed
128.786	1.0	0.012	215.318	9.0	1	-4.0	-4.0	15.5238	955.0	0.52	Certain	1.1	-9.31	0.0	No	n/a	10.4110985277463	n/a	n/a	n/a	ShowResult	Mixed
129.805	2.0	0.019	216.337	9.0	1	-4.0	-4.0	15.5238	955.0	0.52	Certain	1.1	-9.31	0.0	No	n/a	10.4110985277463	n/a	n/a	n/a	ISITrial	Mixed
131.828	3.0	0.023	218.36	10.0	1	-2.0	-2.0	15.2738	955.0	0.3	Certain	-1.3	-3.25	4.0	Yes	4.0	-1.94865987164968	2.388	134.216	n/a	GetAnswer	Mixed
134.235	4.0	0.019	220.767	10.0	1	-2.0	-2.0	15.2738	955.0	0.3	Certain	-1.3	-3.25	4.0	Yes	n/a	-1.94865987164968	n/a	n/a	n/a	ShowChoice	Mixed
138.247	1.0	0.012	224.779	10.0	1	-2.0	-2.0	15.2738	955.0	0.3	Certain	-1.3	-3.25	4.0	Yes	n/a	-1.94865987164968	n/a	n/a	n/a	ShowResult	Mixed
139.267	2.0	0.02	225.799	10.0	1	-2.0	-2.0	15.2738	955.0	0.3	Certain	-1.3	-3.25	4.0	Yes	n/a	-1.94865987164968	n/a	n/a	n/a	ISITrial	Mixed
141.29	4.0	0.023	227.822	10.0	1	-2.0	-2.0	15.2738	955.0	0.3	Certain	-1.3	-3.25	4.0	Yes	n/a	-1.94865987164968	n/a	n/a	n/a	TrialHappPreview	Mixed
145.319	4.012	0.029	231.851	10.0	1	-2.0	-2.0	15.2738	955.0	0.3	Certain	-1.3	-3.25	4.0	Yes	n/a	-1.94865987164968	n/a	n/a	540.0	TrialHappiness	Mixed
145.319	2.24	n/a	232.509	10.0	1	-2.0	-2.0	15.2738	955.0	0.3	Certain	-1.3	-3.25	4.0	Yes	n/a	-1.94865987164968	n/a	n/a	540.0	TrialHappinessSliderResponse	Mixed
149.331	8.0	4.012	235.863	10.0	1	-2.0	-2.0	15.2738	955.0	0.3	Certain	-1.3	-3.25	4.0	Yes	n/a	-1.94865987164968	n/a	n/a	n/a	ISIRate	Mixed
157.355	3.0	0.024	243.887	11.0	1	9.9	-0.88	16.5113	955.0	3.6	Outcome2	-1.75	9.9	0.0	No	2.0	11.6455266138165	1.275	158.63	n/a	GetAnswer	Gain
158.642	4.0	0.012	245.174	11.0	1	9.9	-0.88	16.5113	955.0	3.6	Outcome2	-1.75	9.9	0.0	No	n/a	11.6455266138165	n/a	n/a	n/a	ShowChoice	Gain
162.654	1.0	0.012	249.186	11.0	1	9.9	-0.88	16.5113	955.0	3.6	Outcome2	-1.75	9.9	0.0	No	n/a	11.6455266138165	n/a	n/a	n/a	ShowResult	Gain
163.674	3.324	0.02	250.206	11.0	1	9.9	-0.88	16.5113	955.0	3.6	Outcome2	-1.75	9.9	0.0	No	n/a	11.6455266138165	n/a	n/a	n/a	ISITrial	Gain
167.017	3.0	0.019	253.549	12.0	1	0.39	1.0	16.5601	955.0	0.2	Outcome1	0.39	2.5	2.61875	Yes	2.0	-2.10626651566629	1.177	168.194	n/a	GetAnswer	Mixed
168.22	4.0	0.026	254.752	12.0	1	0.39	1.0	16.5601	955.0	0.2	Outcome1	0.39	2.5	2.61875	Yes	n/a	-2.10626651566629	n/a	n/a	n/a	ShowChoice	Mixed
172.232	1.0	0.012	258.764	12.0	1	0.39	1.0	16.5601	955.0	0.2	Outcome1	0.39	2.5	2.61875	Yes	n/a	-2.10626651566629	n/a	n/a	n/a	ShowResult	Mixed
173.252	6.642	0.02	259.784	12.0	1	0.39	1.0	16.5601	955.0	0.2	Outcome1	0.39	2.5	2.61875	Yes	n/a	-2.10626651566629	n/a	n/a	n/a	ISITrial	Mixed
179.905	2.619	0.011	266.437	12.0	1	0.39	1.0	16.5601	955.0	0.2	Outcome1	0.39	2.5	2.61875	Yes	n/a	-2.10626651566629	n/a	n/a	n/a	TrialHappPreview	Mixed
182.547	4.012	0.023	269.079	12.0	1	0.39	1.0	16.5601	955.0	0.2	Outcome1	0.39	2.5	2.61875	Yes	2{-2}4{-4}2{-2}	-2.10626651566629	3.984	186.531	544.0	TrialHappiness	Mixed
182.547	2.867	n/a	270.196	12.0	1	0.39	1.0	16.5601	955.0	0.2	Outcome1	0.39	2.5	2.61875	Yes	n/a	-2.10626651566629	n/a	n/a	544.0	TrialHappinessSliderResponse	Mixed
186.559	2.475	4.012	273.091	12.0	1	0.39	1.0	16.5601	955.0	0.2	Outcome1	0.39	2.5	2.61875	Yes	n/a	-2.10626651566629	n/a	n/a	n/a	ISIRate	Mixed
189.049	3.0	0.015	275.581	13.0	1	-1.0	-1.0	16.4351	955.0	1.82	Certain	-7.82	4.7	0.0	No	4.0	12.5175537938845	1.46	190.509	n/a	GetAnswer	Gain
190.521	4.0	0.012	277.053	13.0	1	-1.0	-1.0	16.4351	955.0	1.82	Certain	-7.82	4.7	0.0	No	n/a	12.5175537938845	n/a	n/a	n/a	ShowChoice	Gain
194.533	1.0	0.012	281.065	13.0	1	-1.0	-1.0	16.4351	955.0	1.82	Certain	-7.82	4.7	0.0	No	n/a	12.5175537938845	n/a	n/a	n/a	ShowResult	Gain
195.552	3.48	0.019	282.084	13.0	1	-1.0	-1.0	16.4351	955.0	1.82	Certain	-7.82	4.7	0.0	No	n/a	12.5175537938845	n/a	n/a	n/a	ISITrial	Gain
199.063	3.0	0.031	285.595	14.0	1	-4.0	-4.0	15.9351	955.0	2.0	Certain	2.3	-10.68	0.0	No	4.0	12.9830124575311	1.475	200.538	n/a	GetAnswer	Mixed
200.551	4.0	0.013	287.083	14.0	1	-4.0	-4.0	15.9351	955.0	2.0	Certain	2.3	-10.68	0.0	No	n/a	12.9830124575311	n/a	n/a	n/a	ShowChoice	Mixed
204.563	1.0	0.012	291.095	14.0	1	-4.0	-4.0	15.9351	955.0	2.0	Certain	2.3	-10.68	0.0	No	n/a	12.9830124575311	n/a	n/a	n/a	ShowResult	Mixed
205.582	5.019	0.019	292.114	14.0	1	-4.0	-4.0	15.9351	955.0	2.0	Certain	2.3	-10.68	0.0	No	n/a	12.9830124575311	n/a	n/a	n/a	ISITrial	Mixed
210.631	3.0	0.03	297.163	15.0	1	11.3	-1.08	17.3476	955.0	2.48	Outcome2	-2.15	11.3	3.3485	Yes	2.0	13.4484711211778	1.484	212.115	n/a	GetAnswer	Loss
212.135	4.0	0.02	298.667	15.0	1	11.3	-1.08	17.3476	955.0	2.48	Outcome2	-2.15	11.3	3.3485	Yes	n/a	13.4484711211778	n/a	n/a	n/a	ShowChoice	Loss
216.147	1.0	0.012	302.679	15.0	1	11.3	-1.08	17.3476	955.0	2.48	Outcome2	-2.15	11.3	3.3485	Yes	n/a	13.4484711211778	n/a	n/a	n/a	ShowResult	Loss
217.167	7.614	0.02	303.699	15.0	1	11.3	-1.08	17.3476	955.0	2.48	Outcome2	-2.15	11.3	3.3485	Yes	n/a	13.4484711211778	n/a	n/a	n/a	ISITrial	Loss
224.807	3.348	0.026	311.339	15.0	1	11.3	-1.08	17.3476	955.0	2.48	Outcome2	-2.15	11.3	3.3485	Yes	n/a	13.4484711211778	n/a	n/a	n/a	TrialHappPreview	Loss
228.183	4.012	0.028	314.715	15.0	1	11.3	-1.08	17.3476	955.0	2.48	Outcome2	-2.15	11.3	3.3485	Yes	n/a	13.4484711211778	n/a	n/a	512.0	TrialHappiness	Loss
228.184	0.0	n/a	314.716	15.0	1	11.3	-1.08	17.3476	955.0	2.48	Outcome2	-2.15	11.3	3.3485	Yes	n/a	13.4484711211778	n/a	n/a	512.0	TrialHappinessSliderResponse	Loss
232.195	5.394	4.012	318.727	15.0	1	11.3	-1.08	17.3476	955.0	2.48	Outcome2	-2.15	11.3	3.3485	Yes	n/a	13.4484711211778	n/a	n/a	n/a	ISIRate	Loss
237.611	3.0	0.022	324.143	16.0	1	-5.0	-5.0	16.7226	955.0	1.0	Certain	1.7	-12.76	0.0	No	4.0	14.4575311438279	1.509	239.12	n/a	GetAnswer	Mixed
239.133	4.0	0.013	325.665	16.0	1	-5.0	-5.0	16.7226	955.0	1.0	Certain	1.7	-12.76	0.0	No	n/a	14.4575311438279	n/a	n/a	n/a	ShowChoice	Mixed
243.145	1.0	0.012	329.677	16.0	1	-5.0	-5.0	16.7226	955.0	1.0	Certain	1.7	-12.76	0.0	No	n/a	14.4575311438279	n/a	n/a	n/a	ShowResult	Mixed
244.164	3.008	0.019	330.696	16.0	1	-5.0	-5.0	16.7226	955.0	1.0	Certain	1.7	-12.76	0.0	No	n/a	14.4575311438279	n/a	n/a	n/a	ISITrial	Mixed
247.19	3.0	0.018	333.722	17.0	1	-7.0	-7.0	15.8476	955.0	2.0	Certain	-14.66	0.3	3.0415	Yes	4.0	14.959229898074698	1.263	248.453	n/a	GetAnswer	Mixed
248.477	4.0	0.024	335.009	17.0	1	-7.0	-7.0	15.8476	955.0	2.0	Certain	-14.66	0.3	3.0415	Yes	n/a	14.959229898074698	n/a	n/a	n/a	ShowChoice	Mixed
252.489	1.0	0.012	339.021	17.0	1	-7.0	-7.0	15.8476	955.0	2.0	Certain	-14.66	0.3	3.0415	Yes	n/a	14.959229898074698	n/a	n/a	n/a	ShowResult	Mixed
253.509	3.566	0.02	340.041	17.0	1	-7.0	-7.0	15.8476	955.0	2.0	Certain	-14.66	0.3	3.0415	Yes	n/a	14.959229898074698	n/a	n/a	n/a	ISITrial	Mixed
257.103	3.042	0.028	343.635	17.0	1	-7.0	-7.0	15.8476	955.0	2.0	Certain	-14.66	0.3	3.0415	Yes	n/a	14.959229898074698	n/a	n/a	n/a	TrialHappPreview	Mixed
260.162	4.029	0.017	346.694	17.0	1	-7.0	-7.0	15.8476	955.0	2.0	Certain	-14.66	0.3	3.0415	Yes	n/a	14.959229898074698	n/a	n/a	452.0	TrialHappiness	Mixed
260.163	1.713	n/a	347.66	17.0	1	-7.0	-7.0	15.8476	955.0	2.0	Certain	-14.66	0.3	3.0415	Yes	n/a	14.959229898074698	n/a	n/a	452.0	TrialHappinessSliderResponse	Mixed
264.191	4.166	4.029	350.723	17.0	1	-7.0	-7.0	15.8476	955.0	2.0	Certain	-14.66	0.3	3.0415	Yes	n/a	14.959229898074698	n/a	n/a	n/a	ISIRate	Mixed
268.387	3.0	0.03	354.919	18.0	1	9.1	1.0	16.9851	955.0	2.22	Outcome2	-7.38	9.1	0.0	No	2.0	16.480181200453	1.118	269.505	n/a	GetAnswer	Gain
269.524	4.0	0.019	356.056	18.0	1	9.1	1.0	16.9851	955.0	2.22	Outcome2	-7.38	9.1	0.0	No	n/a	16.480181200453	n/a	n/a	n/a	ShowChoice	Gain
273.552	1.0	0.028	360.084	18.0	1	9.1	1.0	16.9851	955.0	2.22	Outcome2	-7.38	9.1	0.0	No	n/a	16.480181200453	n/a	n/a	n/a	ShowResult	Gain
274.572	6.787	0.02	361.104	18.0	1	9.1	1.0	16.9851	955.0	2.22	Outcome2	-7.38	9.1	0.0	No	n/a	16.480181200453	n/a	n/a	n/a	ISITrial	Gain
281.376	3.0	0.017	367.908	19.0	1	0.0	0.0	16.9851	955.0	3.6	Certain	-9.15	7.9	0.0	No	4.0	17.0498301245753	1.676	283.052	n/a	GetAnswer	Gain
283.064	4.0	0.012	369.596	19.0	1	0.0	0.0	16.9851	955.0	3.6	Certain	-9.15	7.9	0.0	No	n/a	17.0498301245753	n/a	n/a	n/a	ShowChoice	Gain
287.076	1.0	0.012	373.608	19.0	1	0.0	0.0	16.9851	955.0	3.6	Certain	-9.15	7.9	0.0	No	n/a	17.0498301245753	n/a	n/a	n/a	ShowResult	Gain
288.096	2.0	0.02	374.628	19.0	1	0.0	0.0	16.9851	955.0	3.6	Certain	-9.15	7.9	0.0	No	n/a	17.0498301245753	n/a	n/a	n/a	ISITrial	Gain
290.119	3.0	0.023	376.651	20.0	1	12.3	-2.66	18.5226	955.0	5.0	Outcome1	12.3	-5.32	2.92125	Yes	2.0	17.619479048697603	1.246	291.365	n/a	GetAnswer	Loss
291.389	4.0	0.024	377.921	20.0	1	12.3	-2.66	18.5226	955.0	5.0	Outcome1	12.3	-5.32	2.92125	Yes	n/a	17.619479048697603	n/a	n/a	n/a	ShowChoice	Loss
295.401	1.0	0.012	381.933	20.0	1	12.3	-2.66	18.5226	955.0	5.0	Outcome1	12.3	-5.32	2.92125	Yes	n/a	17.619479048697603	n/a	n/a	n/a	ShowResult	Loss
296.421	8.0	0.02	382.953	20.0	1	12.3	-2.66	18.5226	955.0	5.0	Outcome1	12.3	-5.32	2.92125	Yes	n/a	17.619479048697603	n/a	n/a	n/a	ISITrial	Loss
304.445	2.921	0.024	390.977	20.0	1	12.3	-2.66	18.5226	955.0	5.0	Outcome1	12.3	-5.32	2.92125	Yes	n/a	17.619479048697603	n/a	n/a	n/a	TrialHappPreview	Loss
307.387	4.012	0.021	393.919	20.0	1	12.3	-2.66	18.5226	955.0	5.0	Outcome1	12.3	-5.32	2.92125	Yes	n/a	17.619479048697603	n/a	n/a	528.0	TrialHappiness	Loss
307.388	0.184	n/a	394.312	20.0	1	12.3	-2.66	18.5226	955.0	5.0	Outcome1	12.3	-5.32	2.92125	Yes	n/a	17.619479048697603	n/a	n/a	528.0	TrialHappinessSliderResponse	Loss
311.399	3.685	4.012	397.931	20.0	1	12.3	-2.66	18.5226	955.0	5.0	Outcome1	12.3	-5.32	2.92125	Yes	n/a	17.619479048697603	n/a	n/a	n/a	ISIRate	Loss
315.11	3.0	0.026	401.642	21.0	1	-9.0	-9.0	17.3976	955.0	0.66	Certain	-0.7	-17.6	0.0	No	4.0	16.8980747451869	2.531	317.641	n/a	GetAnswer	Mixed
317.668	4.0	0.027	404.2	21.0	1	-9.0	-9.0	17.3976	955.0	0.66	Certain	-0.7	-17.6	0.0	No	n/a	16.8980747451869	n/a	n/a	n/a	ShowChoice	Mixed
321.697	1.0	0.029	408.229	21.0	1	-9.0	-9.0	17.3976	955.0	0.66	Certain	-0.7	-17.6	0.0	No	n/a	16.8980747451869	n/a	n/a	n/a	ShowResult	Mixed
322.716	3.555	0.019	409.248	21.0	1	-9.0	-9.0	17.3976	955.0	0.66	Certain	-0.7	-17.6	0.0	No	n/a	16.8980747451869	n/a	n/a	n/a	ISITrial	Mixed
326.294	3.0	0.023	412.826	22.0	1	-7.0	-7.0	16.5226	955.0	1.2	Certain	1.9	-15.48	3.2195	Yes	4.0	17.3816534541336	1.725	328.019	n/a	GetAnswer	Mixed
328.032	4.0	0.013	414.564	22.0	1	-7.0	-7.0	16.5226	955.0	1.2	Certain	1.9	-15.48	3.2195	Yes	n/a	17.3816534541336	n/a	n/a	n/a	ShowChoice	Mixed
332.044	1.0	0.012	418.576	22.0	1	-7.0	-7.0	16.5226	955.0	1.2	Certain	1.9	-15.48	3.2195	Yes	n/a	17.3816534541336	n/a	n/a	n/a	ShowResult	Mixed
333.064	6.793	0.02	419.596	22.0	1	-7.0	-7.0	16.5226	955.0	1.2	Certain	1.9	-15.48	3.2195	Yes	n/a	17.3816534541336	n/a	n/a	n/a	ISITrial	Mixed
339.868	3.22	0.011	426.4	22.0	1	-7.0	-7.0	16.5226	955.0	1.2	Certain	1.9	-15.48	3.2195	Yes	n/a	17.3816534541336	n/a	n/a	n/a	TrialHappPreview	Mixed
343.111	4.012	0.023	429.643	22.0	1	-7.0	-7.0	16.5226	955.0	1.2	Certain	1.9	-15.48	3.2195	Yes	n/a	17.3816534541336	n/a	n/a	456.0	TrialHappiness	Mixed
343.111	0.254	n/a	430.184	22.0	1	-7.0	-7.0	16.5226	955.0	1.2	Certain	1.9	-15.48	3.2195	Yes	n/a	17.3816534541336	n/a	n/a	456.0	TrialHappinessSliderResponse	Mixed
347.123	4.878	4.012	433.655	22.0	1	-7.0	-7.0	16.5226	955.0	1.2	Certain	1.9	-15.48	3.2195	Yes	n/a	17.3816534541336	n/a	n/a	n/a	ISIRate	Mixed
352.021	3.0	0.02	438.553	23.0	1	12.9	-3.1	18.1351	955.0	2.0	Outcome2	-6.19	12.9	0.0	No	2.0	19.0883352208381	1.683	353.704	n/a	GetAnswer	Loss
353.726	4.0	0.022	440.258	23.0	1	12.9	-3.1	18.1351	955.0	2.0	Outcome2	-6.19	12.9	0.0	No	n/a	19.0883352208381	n/a	n/a	n/a	ShowChoice	Loss
357.738	1.0	0.012	444.27	23.0	1	12.9	-3.1	18.1351	955.0	2.0	Outcome2	-6.19	12.9	0.0	No	n/a	19.0883352208381	n/a	n/a	n/a	ShowResult	Loss
358.757	8.0	0.019	445.289	23.0	1	12.9	-3.1	18.1351	955.0	2.0	Outcome2	-6.19	12.9	0.0	No	n/a	19.0883352208381	n/a	n/a	n/a	ISITrial	Loss
366.781	3.0	0.024	453.313	24.0	1	7.74	3.87	19.1026	955.0	1.82	Outcome2	10.7	7.74	3.255	Yes	2.0	-2.9563986409966003	1.277	368.058	n/a	GetAnswer	Loss
368.085	4.0	0.027	454.617	24.0	1	7.74	3.87	19.1026	955.0	1.82	Outcome2	10.7	7.74	3.255	Yes	n/a	-2.9563986409966003	n/a	n/a	n/a	ShowChoice	Loss
372.097	1.0	0.012	458.629	24.0	1	7.74	3.87	19.1026	955.0	1.82	Outcome2	10.7	7.74	3.255	Yes	n/a	-2.9563986409966003	n/a	n/a	n/a	ShowResult	Loss
373.117	2.0	0.02	459.649	24.0	1	7.74	3.87	19.1026	955.0	1.82	Outcome2	10.7	7.74	3.255	Yes	n/a	-2.9563986409966003	n/a	n/a	n/a	ISITrial	Loss
375.14	3.255	0.023	461.672	24.0	1	7.74	3.87	19.1026	955.0	1.82	Outcome2	10.7	7.74	3.255	Yes	n/a	-2.9563986409966003	n/a	n/a	n/a	TrialHappPreview	Loss
378.416	4.012	0.021	464.948	24.0	1	7.74	3.87	19.1026	955.0	1.82	Outcome2	10.7	7.74	3.255	Yes	n/a	-2.9563986409966003	n/a	n/a	480.0	TrialHappiness	Loss
378.417	0.204	n/a	465.956	24.0	1	7.74	3.87	19.1026	955.0	1.82	Outcome2	10.7	7.74	3.255	Yes	n/a	-2.9563986409966003	n/a	n/a	480.0	TrialHappinessSliderResponse	Loss
382.428	5.02	4.012	468.96	24.0	1	7.74	3.87	19.1026	955.0	1.82	Outcome2	10.7	7.74	3.255	Yes	n/a	-2.9563986409966003	n/a	n/a	n/a	ISIRate	Loss
387.477	3.0	0.029	474.009	25.0	1	4.19	2.1	19.6264	955.0	2.22	Outcome2	7.1	4.19	0.0	No	2.0	-2.9060966402416004	0.993	388.47	n/a	GetAnswer	Gain
388.496	4.0	0.026	475.028	25.0	1	4.19	2.1	19.6264	955.0	2.22	Outcome2	7.1	4.19	0.0	No	n/a	-2.9060966402416004	n/a	n/a	n/a	ShowChoice	Gain
392.508	1.0	0.012	479.04	25.0	1	4.19	2.1	19.6264	955.0	2.22	Outcome2	7.1	4.19	0.0	No	n/a	-2.9060966402416004	n/a	n/a	n/a	ShowResult	Gain
393.528	3.749	0.02	480.06	25.0	1	4.19	2.1	19.6264	955.0	2.22	Outcome2	7.1	4.19	0.0	No	n/a	-2.9060966402416004	n/a	n/a	n/a	ISITrial	Gain
397.306	3.0	0.029	483.838	26.0	1	-1.1	-11.0	19.4889	955.0	0.4	Outcome1	-1.1	-21.45	0.0	No	2.0	20.3488108720272	2.505	399.811	n/a	GetAnswer	Mixed
399.83	4.0	0.019	486.362	26.0	1	-1.1	-11.0	19.4889	955.0	0.4	Outcome1	-1.1	-21.45	0.0	No	n/a	20.3488108720272	n/a	n/a	n/a	ShowChoice	Mixed
403.842	1.0	0.012	490.374	26.0	1	-1.1	-11.0	19.4889	955.0	0.4	Outcome1	-1.1	-21.45	0.0	No	n/a	20.3488108720272	n/a	n/a	n/a	ShowResult	Mixed
404.862	7.834	0.02	491.394	26.0	1	-1.1	-11.0	19.4889	955.0	0.4	Outcome1	-1.1	-21.45	0.0	No	n/a	20.3488108720272	n/a	n/a	n/a	ISITrial	Mixed
412.719	3.0	0.023	499.251	27.0	1	-0.1	1.0	19.4764	955.0	0.4	Outcome2	2.9	-0.1	2.54975	Yes	2.0	-2.9957531143827905	1.933	414.652	n/a	GetAnswer	Mixed
414.675	4.0	0.023	501.207	27.0	1	-0.1	1.0	19.4764	955.0	0.4	Outcome2	2.9	-0.1	2.54975	Yes	n/a	-2.9957531143827905	n/a	n/a	n/a	ShowChoice	Mixed
418.687	1.0	0.012	505.219	27.0	1	-0.1	1.0	19.4764	955.0	0.4	Outcome2	2.9	-0.1	2.54975	Yes	n/a	-2.9957531143827905	n/a	n/a	n/a	ShowResult	Mixed
419.707	4.225	0.02	506.239	27.0	1	-0.1	1.0	19.4764	955.0	0.4	Outcome2	2.9	-0.1	2.54975	Yes	n/a	-2.9957531143827905	n/a	n/a	n/a	ISITrial	Mixed
423.953	2.55	0.021	510.485	27.0	1	-0.1	1.0	19.4764	955.0	0.4	Outcome2	2.9	-0.1	2.54975	Yes	n/a	-2.9957531143827905	n/a	n/a	n/a	TrialHappPreview	Mixed
426.527	4.012	0.024	513.059	27.0	1	-0.1	1.0	19.4764	955.0	0.4	Outcome2	2.9	-0.1	2.54975	Yes	n/a	-2.9957531143827905	n/a	n/a	464.0	TrialHappiness	Mixed
426.528	0.25	n/a	513.369	27.0	1	-0.1	1.0	19.4764	955.0	0.4	Outcome2	2.9	-0.1	2.54975	Yes	n/a	-2.9957531143827905	n/a	n/a	464.0	TrialHappinessSliderResponse	Mixed
430.539	2.199	4.012	517.071	27.0	1	-0.1	1.0	19.4764	955.0	0.4	Outcome2	2.9	-0.1	2.54975	Yes	n/a	-2.9957531143827905	n/a	n/a	n/a	ISIRate	Mixed
523.953	0.0	n/a	610.485	n/a	1	n/a	n/a	n/a	n/a	n/a	n/a	n/a	n/a	n/a	n/a	n/a	n/a	n/a	n/a	512.0	BlockStartHappinessSliderResponse	n/a
-127.783	-0.001	0.024	519.294	n/a	2	n/a	n/a	n/a	n/a	n/a	n/a	n/a	n/a	n/a	n/a	{SPACE}	n/a	87.15	-40.633	n/a	Rest	n/a
-40.605	4.0	0.028	606.472	n/a	2	n/a	n/a	n/a	n/a	n/a	n/a	n/a	n/a	n/a	n/a	n/a	n/a	n/a	n/a	n/a	BlockHappyPreview	n/a
-36.593	0.0	0.012	610.484	n/a	2	n/a	n/a	n/a	n/a	n/a	n/a	n/a	n/a	n/a	n/a	n/a	n/a	n/a	n/a	512.0	BlockStartHappiness	n/a
-1.789	-0.001	0.013	645.288	n/a	2	n/a	n/a	n/a	n/a	n/a	n/a	n/a	n/a	n/a	n/a	5.0	n/a	1.765	-0.024	n/a	ScanWait	n/a
0.0	10.0	0.024	647.077	n/a	2	n/a	n/a	n/a	n/a	n/a	n/a	n/a	n/a	n/a	n/a	n/a	n/a	n/a	n/a	n/a	GetReady	n/a
10.03	3.0	0.03	657.107	28.0	2	-4.02	0.0	18.9739	70.0	0.82	Outcome1	-4.02	3.5	0.0	No	2.0	-7.51700680272109	1.546	11.576	n/a	GetAnswer	Mixed
11.601	4.0	0.025	658.678	28.0	2	-4.02	0.0	18.9739	70.0	0.82	Outcome1	-4.02	3.5	0.0	No	n/a	-7.51700680272109	n/a	n/a	n/a	ShowChoice	Mixed
15.613	1.0	0.012	662.69	28.0	2	-4.02	0.0	18.9739	70.0	0.82	Outcome1	-4.02	3.5	0.0	No	n/a	-7.51700680272109	n/a	n/a	n/a	ShowResult	Mixed
16.633	3.575	0.02	663.71	28.0	2	-4.02	0.0	18.9739	70.0	0.82	Outcome1	-4.02	3.5	0.0	No	n/a	-7.51700680272109	n/a	n/a	n/a	ISITrial	Mixed
20.227	3.0	0.019	667.304	29.0	2	1.58	0.0	19.1714	70.0	5.0	Outcome2	-0.26	1.58	3.529	Yes	2.0	1.83749055177627	1.236	21.463	n/a	GetAnswer	Gain
21.481	4.0	0.018	668.558	29.0	2	1.58	0.0	19.1714	70.0	5.0	Outcome2	-0.26	1.58	3.529	Yes	n/a	1.83749055177627	n/a	n/a	n/a	ShowChoice	Gain
25.493	1.0	0.012	672.57	29.0	2	1.58	0.0	19.1714	70.0	5.0	Outcome2	-0.26	1.58	3.529	Yes	n/a	1.83749055177627	n/a	n/a	n/a	ShowResult	Gain
26.513	3.955	0.02	673.59	29.0	2	1.58	0.0	19.1714	70.0	5.0	Outcome2	-0.26	1.58	3.529	Yes	n/a	1.83749055177627	n/a	n/a	n/a	ISITrial	Gain
30.491	3.529	0.023	677.568	29.0	2	1.58	0.0	19.1714	70.0	5.0	Outcome2	-0.26	1.58	3.529	Yes	n/a	1.83749055177627	n/a	n/a	n/a	TrialHappPreview	Gain
34.052	4.028	0.032	681.129	29.0	2	1.58	0.0	19.1714	70.0	5.0	Outcome2	-0.26	1.58	3.529	Yes	n/a	1.83749055177627	n/a	n/a	576.0	TrialHappiness	Gain
34.052	0.282	n/a	682.374	29.0	2	1.58	0.0	19.1714	70.0	5.0	Outcome2	-0.26	1.58	3.529	Yes	n/a	1.83749055177627	n/a	n/a	576.0	TrialHappinessSliderResponse	Gain
38.08	6.116	4.028	685.157	29.0	2	1.58	0.0	19.1714	70.0	5.0	Outcome2	-0.26	1.58	3.529	Yes	n/a	1.83749055177627	n/a	n/a	n/a	ISIRate	Gain
44.215	3.0	0.019	691.292	30.0	2	2.52	1.0	19.4864	70.0	4.2	Outcome2	0.38	2.52	0.0	No	2.0	2.13926681783825	1.225	45.44	n/a	GetAnswer	Gain
45.453	4.0	0.013	692.53	30.0	2	2.52	1.0	19.4864	70.0	4.2	Outcome2	0.38	2.52	0.0	No	n/a	2.13926681783825	n/a	n/a	n/a	ShowChoice	Gain
49.465	1.0	0.012	696.542	30.0	2	2.52	1.0	19.4864	70.0	4.2	Outcome2	0.38	2.52	0.0	No	n/a	2.13926681783825	n/a	n/a	n/a	ShowResult	Gain
50.484	4.453	0.019	697.561	30.0	2	2.52	1.0	19.4864	70.0	4.2	Outcome2	0.38	2.52	0.0	No	n/a	2.13926681783825	n/a	n/a	n/a	ISITrial	Gain
54.964	3.0	0.027	702.041	31.0	2	1.92	0.96	19.7264	70.0	4.2	Outcome1	1.92	12.1	2.50325	Yes	2.0	-10.1814058956916	1.47	56.434	n/a	GetAnswer	Loss
56.452	4.0	0.018	703.529	31.0	2	1.92	0.96	19.7264	70.0	4.2	Outcome1	1.92	12.1	2.50325	Yes	n/a	-10.1814058956916	n/a	n/a	n/a	ShowChoice	Loss
60.464	1.0	0.012	707.541	31.0	2	1.92	0.96	19.7264	70.0	4.2	Outcome1	1.92	12.1	2.50325	Yes	n/a	-10.1814058956916	n/a	n/a	n/a	ShowResult	Loss
61.484	4.786	0.02	708.561	31.0	2	1.92	0.96	19.7264	70.0	4.2	Outcome1	1.92	12.1	2.50325	Yes	n/a	-10.1814058956916	n/a	n/a	n/a	ISITrial	Loss
66.282	2.503	0.012	713.359	31.0	2	1.92	0.96	19.7264	70.0	4.2	Outcome1	1.92	12.1	2.50325	Yes	n/a	-10.1814058956916	n/a	n/a	n/a	TrialHappPreview	Loss
68.806	4.012	0.021	715.883	31.0	2	1.92	0.96	19.7264	70.0	4.2	Outcome1	1.92	12.1	2.50325	Yes	n/a	-10.1814058956916	n/a	n/a	392.0	TrialHappiness	Loss
68.806	1.227	n/a	716.368	31.0	2	1.92	0.96	19.7264	70.0	4.2	Outcome1	1.92	12.1	2.50325	Yes	n/a	-10.1814058956916	n/a	n/a	392.0	TrialHappinessSliderResponse	Loss
72.818	2.013	4.012	719.895	31.0	2	1.92	0.96	19.7264	70.0	4.2	Outcome1	1.92	12.1	2.50325	Yes	n/a	-10.1814058956916	n/a	n/a	n/a	ISIRate	Loss
74.857	3.0	0.026	721.934	32.0	2	-7.73	-4.0	18.7602	70.0	1.2	Outcome2	-0.1	-7.73	0.0	No	2.0	-7.62585034013605	1.906	76.763	n/a	GetAnswer	Mixed
76.78	4.0	0.017	723.857	32.0	2	-7.73	-4.0	18.7602	70.0	1.2	Outcome2	-0.1	-7.73	0.0	No	n/a	-7.62585034013605	n/a	n/a	n/a	ShowChoice	Mixed
80.792	1.0	0.012	727.869	32.0	2	-7.73	-4.0	18.7602	70.0	1.2	Outcome2	-0.1	-7.73	0.0	No	n/a	-7.62585034013605	n/a	n/a	n/a	ShowResult	Mixed
81.811	2.0	0.019	728.888	32.0	2	-7.73	-4.0	18.7602	70.0	1.2	Outcome2	-0.1	-7.73	0.0	No	n/a	-7.62585034013605	n/a	n/a	n/a	ISITrial	Mixed
83.834	3.0	0.023	730.911	33.0	2	-2.29	1.0	18.474	70.0	3.16	Outcome1	-2.29	5.7	0.0	No	2.0	-7.99092970521542	1.253	85.087	n/a	GetAnswer	Gain
85.105	4.0	0.018	732.182	33.0	2	-2.29	1.0	18.474	70.0	3.16	Outcome1	-2.29	5.7	0.0	No	n/a	-7.99092970521542	n/a	n/a	n/a	ShowChoice	Gain
89.117	1.0	0.012	736.194	33.0	2	-2.29	1.0	18.474	70.0	3.16	Outcome1	-2.29	5.7	0.0	No	n/a	-7.99092970521542	n/a	n/a	n/a	ShowResult	Gain
90.136	5.099	0.019	737.213	33.0	2	-2.29	1.0	18.474	70.0	3.16	Outcome1	-2.29	5.7	0.0	No	n/a	-7.99092970521542	n/a	n/a	n/a	ISITrial	Gain
95.268	3.0	0.033	742.345	34.0	2	-3.0	-3.0	18.099	70.0	0.2	Certain	0.5	-7.86	3.2315	Yes	4.0	-8.35600907029479	1.772	97.04	n/a	GetAnswer	Mixed
97.057	4.0	0.017	744.134	34.0	2	-3.0	-3.0	18.099	70.0	0.2	Certain	0.5	-7.86	3.2315	Yes	n/a	-8.35600907029479	n/a	n/a	n/a	ShowChoice	Mixed
101.069	1.0	0.012	748.146	34.0	2	-3.0	-3.0	18.099	70.0	0.2	Certain	0.5	-7.86	3.2315	Yes	n/a	-8.35600907029479	n/a	n/a	n/a	ShowResult	Mixed
102.089	4.784	0.02	749.166	34.0	2	-3.0	-3.0	18.099	70.0	0.2	Certain	0.5	-7.86	3.2315	Yes	n/a	-8.35600907029479	n/a	n/a	n/a	ISITrial	Mixed
106.886	3.232	0.013	753.963	34.0	2	-3.0	-3.0	18.099	70.0	0.2	Certain	0.5	-7.86	3.2315	Yes	n/a	-8.35600907029479	n/a	n/a	n/a	TrialHappPreview	Mixed
110.146	4.012	0.028	757.223	34.0	2	-3.0	-3.0	18.099	70.0	0.2	Certain	0.5	-7.86	3.2315	Yes	n/a	-8.35600907029479	n/a	n/a	376.0	TrialHappiness	Mixed
110.147	2.717	n/a	758.387	34.0	2	-3.0	-3.0	18.099	70.0	0.2	Certain	0.5	-7.86	3.2315	Yes	n/a	-8.35600907029479	n/a	n/a	376.0	TrialHappinessSliderResponse	Mixed
114.158	4.926	4.012	761.235	34.0	2	-3.0	-3.0	18.099	70.0	0.2	Certain	0.5	-7.86	3.2315	Yes	n/a	-8.35600907029479	n/a	n/a	n/a	ISIRate	Mixed
119.106	3.0	0.022	766.183	35.0	2	1.82	1.0	18.3265	70.0	2.48	Outcome1	1.82	0.31	0.0	No	2.0	1.51360544217687	1.259	120.365	n/a	GetAnswer	Gain
120.377	4.0	0.012	767.454	35.0	2	1.82	1.0	18.3265	70.0	2.48	Outcome1	1.82	0.31	0.0	No	n/a	1.51360544217687	n/a	n/a	n/a	ShowChoice	Gain
124.406	1.0	0.029	771.483	35.0	2	1.82	1.0	18.3265	70.0	2.48	Outcome1	1.82	0.31	0.0	No	n/a	1.51360544217687	n/a	n/a	n/a	ShowResult	Gain
125.425	2.098	0.019	772.502	35.0	2	1.82	1.0	18.3265	70.0	2.48	Outcome1	1.82	0.31	0.0	No	n/a	1.51360544217687	n/a	n/a	n/a	ISITrial	Gain
127.548	3.0	0.025	774.625	36.0	2	0.18	0.0	18.349	70.0	0.3	Outcome2	-1.36	0.18	3.33575	Yes	2.0	1.54251700680272	1.289	128.837	n/a	GetAnswer	Mixed
128.852	4.0	0.015	775.929	36.0	2	0.18	0.0	18.349	70.0	0.3	Outcome2	-1.36	0.18	3.33575	Yes	n/a	1.54251700680272	n/a	n/a	n/a	ShowChoice	Mixed
132.864	1.0	0.012	779.941	36.0	2	0.18	0.0	18.349	70.0	0.3	Outcome2	-1.36	0.18	3.33575	Yes	n/a	1.54251700680272	n/a	n/a	n/a	ShowResult	Mixed
133.884	5.156	0.02	780.961	36.0	2	0.18	0.0	18.349	70.0	0.3	Outcome2	-1.36	0.18	3.33575	Yes	n/a	1.54251700680272	n/a	n/a	n/a	ISITrial	Mixed
139.066	3.336	0.026	786.143	36.0	2	0.18	0.0	18.349	70.0	0.3	Outcome2	-1.36	0.18	3.33575	Yes	n/a	1.54251700680272	n/a	n/a	n/a	TrialHappPreview	Mixed
142.426	4.012	0.024	789.503	36.0	2	0.18	0.0	18.349	70.0	0.3	Outcome2	-1.36	0.18	3.33575	Yes	n/a	1.54251700680272	n/a	n/a	416.0	TrialHappiness	Mixed
142.427	1.523	n/a	789.994	36.0	2	0.18	0.0	18.349	70.0	0.3	Outcome2	-1.36	0.18	3.33575	Yes	n/a	1.54251700680272	n/a	n/a	416.0	TrialHappinessSliderResponse	Mixed
146.438	5.343	4.012	793.515	36.0	2	0.18	0.0	18.349	70.0	0.3	Outcome2	-1.36	0.18	3.33575	Yes	n/a	1.54251700680272	n/a	n/a	n/a	ISIRate	Mixed
151.804	3.0	0.023	798.881	37.0	2	-1.32	-0.66	18.184	70.0	1.68	Outcome1	-1.32	8.5	0.0	No	2.0	-9.82312925170068	1.522	153.326	n/a	GetAnswer	Gain
153.342	4.0	0.016	800.419	37.0	2	-1.32	-0.66	18.184	70.0	1.68	Outcome1	-1.32	8.5	0.0	No	n/a	-9.82312925170068	n/a	n/a	n/a	ShowChoice	Gain
157.354	1.0	0.012	804.431	37.0	2	-1.32	-0.66	18.184	70.0	1.68	Outcome1	-1.32	8.5	0.0	No	n/a	-9.82312925170068	n/a	n/a	n/a	ShowResult	Gain
158.374	3.598	0.02	805.451	37.0	2	-1.32	-0.66	18.184	70.0	1.68	Outcome1	-1.32	8.5	0.0	No	n/a	-9.82312925170068	n/a	n/a	n/a	ISITrial	Gain
162.001	3.0	0.029	809.078	38.0	2	2.88	1.44	18.544	70.0	2.22	Outcome1	2.88	13.1	0.0	No	2.0	-10.2154195011338	1.474	163.475	n/a	GetAnswer	Loss
163.489	4.0	0.014	810.566	38.0	2	2.88	1.44	18.544	70.0	2.22	Outcome1	2.88	13.1	0.0	No	n/a	-10.2154195011338	n/a	n/a	n/a	ShowChoice	Loss
167.501	1.0	0.012	814.578	38.0	2	2.88	1.44	18.544	70.0	2.22	Outcome1	2.88	13.1	0.0	No	n/a	-10.2154195011338	n/a	n/a	n/a	ShowResult	Loss
168.521	4.787	0.02	815.598	38.0	2	2.88	1.44	18.544	70.0	2.22	Outcome1	2.88	13.1	0.0	No	n/a	-10.2154195011338	n/a	n/a	n/a	ISITrial	Loss
173.335	3.0	0.027	820.412	39.0	2	-1.0	-1.0	18.419	70.0	1.2	Certain	3.9	-6.71	2.86425	Yes	4.0	-10.6077097505669	1.315	174.65	n/a	GetAnswer	Mixed
174.673	4.0	0.023	821.75	39.0	2	-1.0	-1.0	18.419	70.0	1.2	Certain	3.9	-6.71	2.86425	Yes	n/a	-10.6077097505669	n/a	n/a	n/a	ShowChoice	Mixed
178.685	1.0	0.012	825.762	39.0	2	-1.0	-1.0	18.419	70.0	1.2	Certain	3.9	-6.71	2.86425	Yes	n/a	-10.6077097505669	n/a	n/a	n/a	ShowResult	Mixed
179.704	2.348	0.019	826.781	39.0	2	-1.0	-1.0	18.419	70.0	1.2	Certain	3.9	-6.71	2.86425	Yes	n/a	-10.6077097505669	n/a	n/a	n/a	ISITrial	Mixed
182.078	2.864	0.026	829.155	39.0	2	-1.0	-1.0	18.419	70.0	1.2	Certain	3.9	-6.71	2.86425	Yes	n/a	-10.6077097505669	n/a	n/a	n/a	TrialHappPreview	Mixed
184.97	4.012	0.028	832.047	39.0	2	-1.0	-1.0	18.419	70.0	1.2	Certain	3.9	-6.71	2.86425	Yes	n/a	-10.6077097505669	n/a	n/a	408.0	TrialHappiness	Mixed
184.971	0.358	n/a	832.684	39.0	2	-1.0	-1.0	18.419	70.0	1.2	Certain	3.9	-6.71	2.86425	Yes	n/a	-10.6077097505669	n/a	n/a	408.0	TrialHappinessSliderResponse	Mixed
188.982	3.457	4.012	836.059	39.0	2	-1.0	-1.0	18.419	70.0	1.2	Certain	3.9	-6.71	2.86425	Yes	n/a	-10.6077097505669	n/a	n/a	n/a	ISIRate	Mixed
192.459	3.0	0.02	839.536	40.0	2	1.84	0.92	18.649	70.0	1.82	Outcome1	1.84	12.7	0.0	No	2.0	-10.863945578231302	1.685	194.144	n/a	GetAnswer	Loss
194.164	4.0	0.02	841.241	40.0	2	1.84	0.92	18.649	70.0	1.82	Outcome1	1.84	12.7	0.0	No	n/a	-10.863945578231302	n/a	n/a	n/a	ShowChoice	Loss
198.176	1.0	0.012	845.253	40.0	2	1.84	0.92	18.649	70.0	1.82	Outcome1	1.84	12.7	0.0	No	n/a	-10.863945578231302	n/a	n/a	n/a	ShowResult	Loss
199.196	3.158	0.02	846.273	40.0	2	1.84	0.92	18.649	70.0	1.82	Outcome1	1.84	12.7	0.0	No	n/a	-10.863945578231302	n/a	n/a	n/a	ISITrial	Loss
202.372	3.0	0.018	849.449	41.0	2	-3.0	-3.0	18.274	70.0	0.3	Certain	2.7	-8.55	4.0	Yes	4.0	-11.2471655328798	2.452	204.824	n/a	GetAnswer	Mixed
204.846	4.0	0.022	851.923	41.0	2	-3.0	-3.0	18.274	70.0	0.3	Certain	2.7	-8.55	4.0	Yes	n/a	-11.2471655328798	n/a	n/a	n/a	ShowChoice	Mixed
208.858	1.0	0.012	855.935	41.0	2	-3.0	-3.0	18.274	70.0	0.3	Certain	2.7	-8.55	4.0	Yes	n/a	-11.2471655328798	n/a	n/a	n/a	ShowResult	Mixed
209.878	4.506	0.02	856.955	41.0	2	-3.0	-3.0	18.274	70.0	0.3	Certain	2.7	-8.55	4.0	Yes	n/a	-11.2471655328798	n/a	n/a	n/a	ISITrial	Mixed
214.408	4.0	0.024	861.485	41.0	2	-3.0	-3.0	18.274	70.0	0.3	Certain	2.7	-8.55	4.0	Yes	n/a	-11.2471655328798	n/a	n/a	n/a	TrialHappPreview	Mixed
218.437	4.012	0.029	865.514	41.0	2	-3.0	-3.0	18.274	70.0	0.3	Certain	2.7	-8.55	4.0	Yes	n/a	-11.2471655328798	n/a	n/a	392.0	TrialHappiness	Mixed
218.438	0.89	n/a	865.971	41.0	2	-3.0	-3.0	18.274	70.0	0.3	Certain	2.7	-8.55	4.0	Yes	n/a	-11.2471655328798	n/a	n/a	392.0	TrialHappinessSliderResponse	Mixed
222.449	8.0	4.012	869.526	41.0	2	-3.0	-3.0	18.274	70.0	0.3	Certain	2.7	-8.55	4.0	Yes	n/a	-11.2471655328798	n/a	n/a	n/a	ISIRate	Mixed
230.473	3.0	0.024	877.55	42.0	2	-2.46	-1.23	17.9665	70.0	2.0	Outcome1	-2.46	8.9	0.0	No	2.0	-11.3582766439909	1.798	232.271	n/a	GetAnswer	Gain
232.295	4.0	0.024	879.372	42.0	2	-2.46	-1.23	17.9665	70.0	2.0	Outcome1	-2.46	8.9	0.0	No	n/a	-11.3582766439909	n/a	n/a	n/a	ShowChoice	Gain
236.307	1.0	0.012	883.384	42.0	2	-2.46	-1.23	17.9665	70.0	2.0	Outcome1	-2.46	8.9	0.0	No	n/a	-11.3582766439909	n/a	n/a	n/a	ShowResult	Gain
237.327	6.248	0.02	884.404	42.0	2	-2.46	-1.23	17.9665	70.0	2.0	Outcome1	-2.46	8.9	0.0	No	n/a	-11.3582766439909	n/a	n/a	n/a	ISITrial	Gain
243.596	3.0	0.021	890.673	43.0	2	1.88	1.0	18.2015	70.0	2.8	Outcome2	0.05	1.88	2.77575	Yes	2.0	1.82879818594104	1.997	245.593	n/a	GetAnswer	Gain
245.618	4.0	0.025	892.695	43.0	2	1.88	1.0	18.2015	70.0	2.8	Outcome2	0.05	1.88	2.77575	Yes	n/a	1.82879818594104	n/a	n/a	n/a	ShowChoice	Gain
249.63	1.0	0.012	896.707	43.0	2	1.88	1.0	18.2015	70.0	2.8	Outcome2	0.05	1.88	2.77575	Yes	n/a	1.82879818594104	n/a	n/a	n/a	ShowResult	Gain
250.65	4.596	0.02	897.727	43.0	2	1.88	1.0	18.2015	70.0	2.8	Outcome2	0.05	1.88	2.77575	Yes	n/a	1.82879818594104	n/a	n/a	n/a	ISITrial	Gain
255.264	2.776	0.018	902.341	43.0	2	1.88	1.0	18.2015	70.0	2.8	Outcome2	0.05	1.88	2.77575	Yes	n/a	1.82879818594104	n/a	n/a	n/a	TrialHappPreview	Gain
258.056	4.012	0.016	905.133	43.0	2	1.88	1.0	18.2015	70.0	2.8	Outcome2	0.05	1.88	2.77575	Yes	n/a	1.82879818594104	n/a	n/a	432.0	TrialHappiness	Gain
258.056	0.308	n/a	905.634	43.0	2	1.88	1.0	18.2015	70.0	2.8	Outcome2	0.05	1.88	2.77575	Yes	n/a	1.82879818594104	n/a	n/a	432.0	TrialHappinessSliderResponse	Gain
262.068	3.103	4.012	909.145	43.0	2	1.88	1.0	18.2015	70.0	2.8	Outcome2	0.05	1.88	2.77575	Yes	n/a	1.82879818594104	n/a	n/a	n/a	ISIRate	Gain
265.194	3.0	0.023	912.271	44.0	2	-5.0	-5.0	17.5765	70.0	0.66	Certain	1.3	-11.47	0.0	No	4.0	-12.7687074829932	1.317	266.511	n/a	GetAnswer	Mixed
266.531	4.0	0.02	913.608	44.0	2	-5.0	-5.0	17.5765	70.0	0.66	Certain	1.3	-11.47	0.0	No	n/a	-12.7687074829932	n/a	n/a	n/a	ShowChoice	Mixed
270.543	1.0	0.012	917.62	44.0	2	-5.0	-5.0	17.5765	70.0	0.66	Certain	1.3	-11.47	0.0	No	n/a	-12.7687074829932	n/a	n/a	n/a	ShowResult	Mixed
271.563	2.42	0.02	918.64	44.0	2	-5.0	-5.0	17.5765	70.0	0.66	Certain	1.3	-11.47	0.0	No	n/a	-12.7687074829932	n/a	n/a	n/a	ISITrial	Mixed
274.003	3.0	0.02	921.08	45.0	2	-5.08	1.0	16.9415	70.0	4.2	Outcome2	8.1	-5.08	0.0	No	2.0	-13.1791383219955	1.613	275.616	n/a	GetAnswer	Gain
275.642	4.0	0.026	922.719	45.0	2	-5.08	1.0	16.9415	70.0	4.2	Outcome2	8.1	-5.08	0.0	No	n/a	-13.1791383219955	n/a	n/a	n/a	ShowChoice	Gain
279.654	1.0	0.012	926.731	45.0	2	-5.08	1.0	16.9415	70.0	4.2	Outcome2	8.1	-5.08	0.0	No	n/a	-13.1791383219955	n/a	n/a	n/a	ShowResult	Gain
280.673	3.144	0.019	927.75	45.0	2	-5.08	1.0	16.9415	70.0	4.2	Outcome2	8.1	-5.08	0.0	No	n/a	-13.1791383219955	n/a	n/a	n/a	ISITrial	Gain
283.833	3.0	0.016	930.91	46.0	2	0.0	0.0	16.9415	70.0	4.2	Certain	6.1	-7.49	3.84125	Yes	4.0	-13.589569160997698	1.401	285.234	n/a	GetAnswer	Gain
285.254	4.0	0.02	932.331	46.0	2	0.0	0.0	16.9415	70.0	4.2	Certain	6.1	-7.49	3.84125	Yes	n/a	-13.589569160997698	n/a	n/a	n/a	ShowChoice	Gain
289.266	1.0	0.012	936.343	46.0	2	0.0	0.0	16.9415	70.0	4.2	Certain	6.1	-7.49	3.84125	Yes	n/a	-13.589569160997698	n/a	n/a	n/a	ShowResult	Gain
290.285	2.246	0.019	937.362	46.0	2	0.0	0.0	16.9415	70.0	4.2	Certain	6.1	-7.49	3.84125	Yes	n/a	-13.589569160997698	n/a	n/a	n/a	ISITrial	Gain
292.542	3.841	0.011	939.619	46.0	2	0.0	0.0	16.9415	70.0	4.2	Certain	6.1	-7.49	3.84125	Yes	n/a	-13.589569160997698	n/a	n/a	n/a	TrialHappPreview	Gain
296.404	4.012	0.021	943.481	46.0	2	0.0	0.0	16.9415	70.0	4.2	Certain	6.1	-7.49	3.84125	Yes	n/a	-13.589569160997698	n/a	n/a	312.0	TrialHappiness	Gain
296.404	1.978	n/a	943.951	46.0	2	0.0	0.0	16.9415	70.0	4.2	Certain	6.1	-7.49	3.84125	Yes	n/a	-13.589569160997698	n/a	n/a	312.0	TrialHappinessSliderResponse	Gain
300.416	7.365	4.012	947.493	46.0	2	0.0	0.0	16.9415	70.0	4.2	Certain	6.1	-7.49	3.84125	Yes	n/a	-13.589569160997698	n/a	n/a	n/a	ISIRate	Gain
307.804	3.0	0.023	954.881	47.0	2	1.34	0.67	17.109	70.0	2.48	Outcome1	1.34	13.3	0.0	No	2.0	-11.9591836734694	1.163	308.967	n/a	GetAnswer	Loss
308.991	4.0	0.024	956.068	47.0	2	1.34	0.67	17.109	70.0	2.48	Outcome1	1.34	13.3	0.0	No	n/a	-11.9591836734694	n/a	n/a	n/a	ShowChoice	Loss
313.003	1.0	0.012	960.08	47.0	2	1.34	0.67	17.109	70.0	2.48	Outcome1	1.34	13.3	0.0	No	n/a	-11.9591836734694	n/a	n/a	n/a	ShowResult	Loss
314.023	2.0	0.02	961.1	47.0	2	1.34	0.67	17.109	70.0	2.48	Outcome1	1.34	13.3	0.0	No	n/a	-11.9591836734694	n/a	n/a	n/a	ISITrial	Loss
316.046	3.0	0.023	963.123	48.0	2	-2.0	-2.0	16.859	70.0	1.0	Certain	3.7	-8.53	2.83175	Yes	4.0	-12.2335600907029	1.987	318.033	n/a	GetAnswer	Mixed
318.052	4.0	0.019	965.129	48.0	2	-2.0	-2.0	16.859	70.0	1.0	Certain	3.7	-8.53	2.83175	Yes	n/a	-12.2335600907029	n/a	n/a	n/a	ShowChoice	Mixed
322.064	1.0	0.012	969.141	48.0	2	-2.0	-2.0	16.859	70.0	1.0	Certain	3.7	-8.53	2.83175	Yes	n/a	-12.2335600907029	n/a	n/a	n/a	ShowResult	Mixed
323.084	3.692	0.02	970.161	48.0	2	-2.0	-2.0	16.859	70.0	1.0	Certain	3.7	-8.53	2.83175	Yes	n/a	-12.2335600907029	n/a	n/a	n/a	ISITrial	Mixed
326.795	2.832	0.019	973.872	48.0	2	-2.0	-2.0	16.859	70.0	1.0	Certain	3.7	-8.53	2.83175	Yes	n/a	-12.2335600907029	n/a	n/a	n/a	TrialHappPreview	Mixed
329.653	4.012	0.026	976.73	48.0	2	-2.0	-2.0	16.859	70.0	1.0	Certain	3.7	-8.53	2.83175	Yes	4{-4}	-12.2335600907029	1.06	330.713	344.0	TrialHappiness	Mixed
329.654	0.489	n/a	977.302	48.0	2	-2.0	-2.0	16.859	70.0	1.0	Certain	3.7	-8.53	2.83175	Yes	n/a	-12.2335600907029	n/a	n/a	344.0	TrialHappinessSliderResponse	Mixed
333.665	3.327	4.012	980.742	48.0	2	-2.0	-2.0	16.859	70.0	1.0	Certain	3.7	-8.53	2.83175	Yes	n/a	-12.2335600907029	n/a	n/a	n/a	ISIRate	Mixed
337.025	3.0	0.033	984.102	49.0	2	2.42	1.0	17.1615	70.0	3.16	Outcome2	0.61	2.42	0.0	No	2.0	1.8125472411186696	1.524	338.549	n/a	GetAnswer	Gain
338.563	4.0	0.014	985.64	49.0	2	2.42	1.0	17.1615	70.0	3.16	Outcome2	0.61	2.42	0.0	No	n/a	1.8125472411186696	n/a	n/a	n/a	ShowChoice	Gain
342.575	1.0	0.012	989.652	49.0	2	2.42	1.0	17.1615	70.0	3.16	Outcome2	0.61	2.42	0.0	No	n/a	1.8125472411186696	n/a	n/a	n/a	ShowResult	Gain
343.595	8.0	0.02	990.672	49.0	2	2.42	1.0	17.1615	70.0	3.16	Outcome2	0.61	2.42	0.0	No	n/a	1.8125472411186696	n/a	n/a	n/a	ISITrial	Gain
351.619	3.0	0.024	998.696	50.0	2	-3.0	-3.0	16.7865	70.0	0.52	Certain	-10.26	3.1	3.54725	Yes	4.0	-13.3628117913832	1.897	353.516	n/a	GetAnswer	Mixed
353.541	4.0	0.025	1000.618	50.0	2	-3.0	-3.0	16.7865	70.0	0.52	Certain	-10.26	3.1	3.54725	Yes	n/a	-13.3628117913832	n/a	n/a	n/a	ShowChoice	Mixed
357.553	1.0	0.012	1004.63	50.0	2	-3.0	-3.0	16.7865	70.0	0.52	Certain	-10.26	3.1	3.54725	Yes	n/a	-13.3628117913832	n/a	n/a	n/a	ShowResult	Mixed
358.573	7.537	0.02	1005.65	50.0	2	-3.0	-3.0	16.7865	70.0	0.52	Certain	-10.26	3.1	3.54725	Yes	n/a	-13.3628117913832	n/a	n/a	n/a	ISITrial	Mixed
366.129	3.547	0.019	1013.206	50.0	2	-3.0	-3.0	16.7865	70.0	0.52	Certain	-10.26	3.1	3.54725	Yes	n/a	-13.3628117913832	n/a	n/a	n/a	TrialHappPreview	Mixed
369.706	4.012	0.03	1016.783	50.0	2	-3.0	-3.0	16.7865	70.0	0.52	Certain	-10.26	3.1	3.54725	Yes	n/a	-13.3628117913832	n/a	n/a	328.0	TrialHappiness	Mixed
369.707	2.894	n/a	1017.609	50.0	2	-3.0	-3.0	16.7865	70.0	0.52	Certain	-10.26	3.1	3.54725	Yes	n/a	-13.3628117913832	n/a	n/a	328.0	TrialHappinessSliderResponse	Mixed
373.718	6.189	4.012	1020.795	50.0	2	-3.0	-3.0	16.7865	70.0	0.52	Certain	-10.26	3.1	3.54725	Yes	n/a	-13.3628117913832	n/a	n/a	n/a	ISIRate	Mixed
379.937	3.0	0.03	1027.014	51.0	2	-1.0	-1.0	16.6615	70.0	0.52	Certain	-2.02	-0.22	0.0	No	4.0	1.79931972789116	1.934	381.871	n/a	GetAnswer	Mixed
381.893	4.0	0.022	1028.97	51.0	2	-1.0	-1.0	16.6615	70.0	0.52	Certain	-2.02	-0.22	0.0	No	n/a	1.79931972789116	n/a	n/a	n/a	ShowChoice	Mixed
385.905	1.0	0.012	1032.982	51.0	2	-1.0	-1.0	16.6615	70.0	0.52	Certain	-2.02	-0.22	0.0	No	n/a	1.79931972789116	n/a	n/a	n/a	ShowResult	Mixed
386.925	5.508	0.02	1034.002	51.0	2	-1.0	-1.0	16.6615	70.0	0.52	Certain	-2.02	-0.22	0.0	No	n/a	1.79931972789116	n/a	n/a	n/a	ISITrial	Mixed
392.458	3.0	0.025	1039.535	52.0	2	2.78	2.0	17.009	70.0	2.22	Outcome1	2.78	0.96	0.0	No	2.0	1.82369614512472	2.012	394.47	n/a	GetAnswer	Loss
394.497	4.0	0.027	1041.574	52.0	2	2.78	2.0	17.009	70.0	2.22	Outcome1	2.78	0.96	0.0	No	n/a	1.82369614512472	n/a	n/a	n/a	ShowChoice	Loss
398.509	1.0	0.012	1045.586	52.0	2	2.78	2.0	17.009	70.0	2.22	Outcome1	2.78	0.96	0.0	No	n/a	1.82369614512472	n/a	n/a	n/a	ShowResult	Loss
399.529	5.913	0.02	1046.606	52.0	2	2.78	2.0	17.009	70.0	2.22	Outcome1	2.78	0.96	0.0	No	n/a	1.82369614512472	n/a	n/a	n/a	ISITrial	Loss
405.463	3.0	0.021	1052.54	53.0	2	-5.0	-5.0	16.384	70.0	0.82	Certain	-12.49	1.5	2.99675	Yes	4.0	-13.9863945578231	1.623	407.086	n/a	GetAnswer	Mixed
407.102	4.0	0.016	1054.179	53.0	2	-5.0	-5.0	16.384	70.0	0.82	Certain	-12.49	1.5	2.99675	Yes	n/a	-13.9863945578231	n/a	n/a	n/a	ShowChoice	Mixed
411.114	1.0	0.012	1058.191	53.0	2	-5.0	-5.0	16.384	70.0	0.82	Certain	-12.49	1.5	2.99675	Yes	n/a	-13.9863945578231	n/a	n/a	n/a	ShowResult	Mixed
412.133	3.66	0.019	1059.21	53.0	2	-5.0	-5.0	16.384	70.0	0.82	Certain	-12.49	1.5	2.99675	Yes	n/a	-13.9863945578231	n/a	n/a	n/a	ISITrial	Mixed
415.811	2.997	0.018	1062.888	53.0	2	-5.0	-5.0	16.384	70.0	0.82	Certain	-12.49	1.5	2.99675	Yes	n/a	-13.9863945578231	n/a	n/a	n/a	TrialHappPreview	Mixed
418.837	4.012	0.029	1065.914	53.0	2	-5.0	-5.0	16.384	70.0	0.82	Certain	-12.49	1.5	2.99675	Yes	4{-4}	-13.9863945578231	1.059	419.896	312.0	TrialHappiness	Mixed
418.837	0.557	n/a	1066.416	53.0	2	-5.0	-5.0	16.384	70.0	0.82	Certain	-12.49	1.5	2.99675	Yes	n/a	-13.9863945578231	n/a	n/a	312.0	TrialHappinessSliderResponse	Mixed
422.849	3.987	4.012	1069.926	53.0	2	-5.0	-5.0	16.384	70.0	0.82	Certain	-12.49	1.5	2.99675	Yes	n/a	-13.9863945578231	n/a	n/a	n/a	ISIRate	Mixed
426.861	3.0	0.025	1073.938	54.0	2	-7.0	-7.0	15.509	70.0	0.82	Certain	-14.51	-0.5	0.0	No	4.0	-14.0068027210884	1.971	428.832	n/a	GetAnswer	Mixed
428.85	4.0	0.018	1075.927	54.0	2	-7.0	-7.0	15.509	70.0	0.82	Certain	-14.51	-0.5	0.0	No	n/a	-14.0068027210884	n/a	n/a	n/a	ShowChoice	Mixed
432.862	1.0	0.012	1079.939	54.0	2	-7.0	-7.0	15.509	70.0	0.82	Certain	-14.51	-0.5	0.0	No	n/a	-14.0068027210884	n/a	n/a	n/a	ShowResult	Mixed
433.882	8.0	0.02	1080.959	54.0	2	-7.0	-7.0	15.509	70.0	0.82	Certain	-14.51	-0.5	0.0	No	n/a	-14.0068027210884	n/a	n/a	n/a	ISITrial	Mixed
488.429	1.063	n/a	1136.991	n/a	2	n/a	n/a	n/a	n/a	n/a	n/a	n/a	n/a	n/a	n/a	n/a	n/a	n/a	n/a	416.0	BlockStartHappinessSliderResponse	n/a
-54.496	-0.001	0.024	1088.983	n/a	3	n/a	n/a	n/a	n/a	n/a	n/a	n/a	n/a	n/a	n/a	{SPACE}	n/a	42.491	-12.005	n/a	Rest	n/a
-11.986	4.0	0.019	1131.493	n/a	3	n/a	n/a	n/a	n/a	n/a	n/a	n/a	n/a	n/a	n/a	n/a	n/a	n/a	n/a	n/a	BlockHappyPreview	n/a
-7.973	2.548	0.013	1135.506	n/a	3	n/a	n/a	n/a	n/a	n/a	n/a	n/a	n/a	n/a	n/a	4{-4}2{-2}	n/a	2.548	-5.425	416.0	BlockStartHappiness	n/a
-1.487	-0.001	0.023	1141.992	n/a	3	n/a	n/a	n/a	n/a	n/a	n/a	n/a	n/a	n/a	n/a	5.0	n/a	1.464	-0.023	n/a	ScanWait	n/a
0.0	10.0	0.023	1143.479	n/a	3	n/a	n/a	n/a	n/a	n/a	n/a	n/a	n/a	n/a	n/a	n/a	n/a	n/a	n/a	n/a	GetReady	n/a
10.014	3.0	0.014	1153.493	55.0	3	-3.0	-3.0	15.134	955.0	0.4	Certain	0.9	-8.26	2.53325	Yes	4.0	9.156285390713482	1.505	11.519	n/a	GetAnswer	Mixed
11.535	4.0	0.016	1155.014	55.0	3	-3.0	-3.0	15.134	955.0	0.4	Certain	0.9	-8.26	2.53325	Yes	n/a	9.156285390713482	n/a	n/a	n/a	ShowChoice	Mixed
15.547	1.0	0.012	1159.026	55.0	3	-3.0	-3.0	15.134	955.0	0.4	Certain	0.9	-8.26	2.53325	Yes	n/a	9.156285390713482	n/a	n/a	n/a	ShowResult	Mixed
16.567	7.709	0.02	1160.046	55.0	3	-3.0	-3.0	15.134	955.0	0.4	Certain	0.9	-8.26	2.53325	Yes	n/a	9.156285390713482	n/a	n/a	n/a	ISITrial	Mixed
24.29	2.533	0.014	1167.769	55.0	3	-3.0	-3.0	15.134	955.0	0.4	Certain	0.9	-8.26	2.53325	Yes	n/a	9.156285390713482	n/a	n/a	n/a	TrialHappPreview	Mixed
26.847	4.012	0.024	1170.326	55.0	3	-3.0	-3.0	15.134	955.0	0.4	Certain	0.9	-8.26	2.53325	Yes	4{-4}4{-4}	9.156285390713482	2.465	29.312	416.0	TrialHappiness	Mixed
26.848	1.114	n/a	1171.678	55.0	3	-3.0	-3.0	15.134	955.0	0.4	Certain	0.9	-8.26	2.53325	Yes	n/a	9.156285390713482	n/a	n/a	416.0	TrialHappinessSliderResponse	Mixed
30.859	2.133	4.012	1174.338	55.0	3	-3.0	-3.0	15.134	955.0	0.4	Certain	0.9	-8.26	2.53325	Yes	n/a	9.156285390713482	n/a	n/a	n/a	ISIRate	Mixed
33.016	3.0	0.024	1176.495	56.0	3	5.5	0.0	15.8215	955.0	2.8	Outcome1	5.5	-4.27	0.0	No	2.0	9.76670441676104	1.569	34.585	n/a	GetAnswer	Gain
34.604	4.0	0.019	1178.083	56.0	3	5.5	0.0	15.8215	955.0	2.8	Outcome1	5.5	-4.27	0.0	No	n/a	9.76670441676104	n/a	n/a	n/a	ShowChoice	Gain
38.616	1.0	0.012	1182.095	56.0	3	5.5	0.0	15.8215	955.0	2.8	Outcome1	5.5	-4.27	0.0	No	n/a	9.76670441676104	n/a	n/a	n/a	ShowResult	Gain
39.636	4.697	0.02	1183.115	56.0	3	5.5	0.0	15.8215	955.0	2.8	Outcome1	5.5	-4.27	0.0	No	n/a	9.76670441676104	n/a	n/a	n/a	ISITrial	Gain
44.35	3.0	0.017	1187.829	57.0	3	-2.0	-2.0	15.5715	955.0	0.2	Certain	-3.79	-1.5	0.0	No	4.0	-2.2890713476783704	2.066	46.416	n/a	GetAnswer	Mixed
46.439	4.0	0.023	1189.918	57.0	3	-2.0	-2.0	15.5715	955.0	0.2	Certain	-3.79	-1.5	0.0	No	n/a	-2.2890713476783704	n/a	n/a	n/a	ShowChoice	Mixed
50.451	1.0	0.012	1193.93	57.0	3	-2.0	-2.0	15.5715	955.0	0.2	Certain	-3.79	-1.5	0.0	No	n/a	-2.2890713476783704	n/a	n/a	n/a	ShowResult	Mixed
51.471	4.291	0.02	1194.95	57.0	3	-2.0	-2.0	15.5715	955.0	0.2	Certain	-3.79	-1.5	0.0	No	n/a	-2.2890713476783704	n/a	n/a	n/a	ISITrial	Mixed
55.784	3.0	0.022	1199.263	58.0	3	13.9	1.46	17.309	955.0	3.6	Outcome2	2.91	13.9	3.04575	Yes	2.0	10.9875424688562	1.33	57.114	n/a	GetAnswer	Loss
57.138	4.0	0.024	1200.617	58.0	3	13.9	1.46	17.309	955.0	3.6	Outcome2	2.91	13.9	3.04575	Yes	n/a	10.9875424688562	n/a	n/a	n/a	ShowChoice	Loss
61.15	1.0	0.012	1204.629	58.0	3	13.9	1.46	17.309	955.0	3.6	Outcome2	2.91	13.9	3.04575	Yes	n/a	10.9875424688562	n/a	n/a	n/a	ShowResult	Loss
62.17	2.037	0.02	1205.649	58.0	3	13.9	1.46	17.309	955.0	3.6	Outcome2	2.91	13.9	3.04575	Yes	n/a	10.9875424688562	n/a	n/a	n/a	ISITrial	Loss
64.226	3.046	0.019	1207.705	58.0	3	13.9	1.46	17.309	955.0	3.6	Outcome2	2.91	13.9	3.04575	Yes	n/a	10.9875424688562	n/a	n/a	n/a	TrialHappPreview	Loss
67.302	4.012	0.03	1210.781	58.0	3	13.9	1.46	17.309	955.0	3.6	Outcome2	2.91	13.9	3.04575	Yes	n/a	10.9875424688562	n/a	n/a	440.0	TrialHappiness	Loss
67.302	1.717	n/a	1210.894	58.0	3	13.9	1.46	17.309	955.0	3.6	Outcome2	2.91	13.9	3.04575	Yes	n/a	10.9875424688562	n/a	n/a	440.0	TrialHappinessSliderResponse	Loss
71.314	4.183	4.012	1214.793	58.0	3	13.9	1.46	17.309	955.0	3.6	Outcome2	2.91	13.9	3.04575	Yes	n/a	10.9875424688562	n/a	n/a	n/a	ISIRate	Loss
75.526	3.0	0.029	1219.005	59.0	3	9.61	4.8	18.5103	955.0	3.6	Outcome2	11.9	9.61	0.0	No	2.0	-2.29341260853152	1.084	76.61	n/a	GetAnswer	Loss
76.63	4.0	0.02	1220.109	59.0	3	9.61	4.8	18.5103	955.0	3.6	Outcome2	11.9	9.61	0.0	No	n/a	-2.29341260853152	n/a	n/a	n/a	ShowChoice	Loss
80.642	1.0	0.012	1224.121	59.0	3	9.61	4.8	18.5103	955.0	3.6	Outcome2	11.9	9.61	0.0	No	n/a	-2.29341260853152	n/a	n/a	n/a	ShowResult	Loss
81.661	5.064	0.019	1225.14	59.0	3	9.61	4.8	18.5103	955.0	3.6	Outcome2	11.9	9.61	0.0	No	n/a	-2.29341260853152	n/a	n/a	n/a	ISITrial	Loss
86.743	3.0	0.018	1230.222	60.0	3	-1.0	-1.0	18.3853	955.0	1.68	Certain	-7.27	4.5	3.5625	Yes	4.0	11.7734994337486	1.722	88.465	n/a	GetAnswer	Gain
88.482	4.0	0.016	1231.961	60.0	3	-1.0	-1.0	18.3853	955.0	1.68	Certain	-7.27	4.5	3.5625	Yes	n/a	11.7734994337486	n/a	n/a	n/a	ShowChoice	Gain
92.494	1.0	0.012	1235.973	60.0	3	-1.0	-1.0	18.3853	955.0	1.68	Certain	-7.27	4.5	3.5625	Yes	n/a	11.7734994337486	n/a	n/a	n/a	ShowResult	Gain
93.514	8.0	0.02	1236.993	60.0	3	-1.0	-1.0	18.3853	955.0	1.68	Certain	-7.27	4.5	3.5625	Yes	n/a	11.7734994337486	n/a	n/a	n/a	ISITrial	Gain
101.538	3.562	0.024	1245.017	60.0	3	-1.0	-1.0	18.3853	955.0	1.68	Certain	-7.27	4.5	3.5625	Yes	n/a	11.7734994337486	n/a	n/a	n/a	TrialHappPreview	Gain
105.115	4.012	0.015	1248.594	60.0	3	-1.0	-1.0	18.3853	955.0	1.68	Certain	-7.27	4.5	3.5625	Yes	n/a	11.7734994337486	n/a	n/a	408.0	TrialHappiness	Gain
105.116	0.368	n/a	1249.387	60.0	3	-1.0	-1.0	18.3853	955.0	1.68	Certain	-7.27	4.5	3.5625	Yes	n/a	11.7734994337486	n/a	n/a	408.0	TrialHappinessSliderResponse	Gain
109.127	6.25	4.012	1252.606	60.0	3	-1.0	-1.0	18.3853	955.0	1.68	Certain	-7.27	4.5	3.5625	Yes	n/a	11.7734994337486	n/a	n/a	n/a	ISIRate	Gain
115.396	3.0	0.019	1258.875	61.0	3	-1.0	-1.0	18.2603	955.0	2.48	Certain	5.3	-7.6	0.0	No	4.0	12.9003397508494	1.812	117.208	n/a	GetAnswer	Gain
117.235	4.0	0.027	1260.714	61.0	3	-1.0	-1.0	18.2603	955.0	2.48	Certain	5.3	-7.6	0.0	No	n/a	12.9003397508494	n/a	n/a	n/a	ShowChoice	Gain
121.247	1.0	0.012	1264.726	61.0	3	-1.0	-1.0	18.2603	955.0	2.48	Certain	5.3	-7.6	0.0	No	n/a	12.9003397508494	n/a	n/a	n/a	ShowResult	Gain
122.266	4.586	0.019	1265.745	61.0	3	-1.0	-1.0	18.2603	955.0	2.48	Certain	5.3	-7.6	0.0	No	n/a	12.9003397508494	n/a	n/a	n/a	ISITrial	Gain
126.88	3.0	0.028	1270.359	62.0	3	2.33	1.16	18.5515	955.0	2.0	Outcome1	2.33	4.9	3.74875	Yes	2.0	-2.5721026802567004	1.154	128.034	n/a	GetAnswer	Gain
128.05	4.0	0.016	1271.529	62.0	3	2.33	1.16	18.5515	955.0	2.0	Outcome1	2.33	4.9	3.74875	Yes	n/a	-2.5721026802567004	n/a	n/a	n/a	ShowChoice	Gain
132.062	1.0	0.012	1275.541	62.0	3	2.33	1.16	18.5515	955.0	2.0	Outcome1	2.33	4.9	3.74875	Yes	n/a	-2.5721026802567004	n/a	n/a	n/a	ShowResult	Gain
133.082	5.212	0.02	1276.561	62.0	3	2.33	1.16	18.5515	955.0	2.0	Outcome1	2.33	4.9	3.74875	Yes	n/a	-2.5721026802567004	n/a	n/a	n/a	ISITrial	Gain
138.314	3.749	0.02	1281.793	62.0	3	2.33	1.16	18.5515	955.0	2.0	Outcome1	2.33	4.9	3.74875	Yes	n/a	-2.5721026802567004	n/a	n/a	n/a	TrialHappPreview	Gain
142.092	4.012	0.029	1285.571	62.0	3	2.33	1.16	18.5515	955.0	2.0	Outcome1	2.33	4.9	3.74875	Yes	n/a	-2.5721026802567004	n/a	n/a	424.0	TrialHappiness	Gain
142.093	0.325	n/a	1286.039	62.0	3	2.33	1.16	18.5515	955.0	2.0	Outcome1	2.33	4.9	3.74875	Yes	n/a	-2.5721026802567004	n/a	n/a	424.0	TrialHappinessSliderResponse	Gain
146.104	6.995	4.012	1289.583	62.0	3	2.33	1.16	18.5515	955.0	2.0	Outcome1	2.33	4.9	3.74875	Yes	n/a	-2.5721026802567004	n/a	n/a	n/a	ISIRate	Gain
153.125	3.0	0.026	1296.604	63.0	3	10.9	-1.48	19.914	955.0	2.0	Outcome1	10.9	-2.97	0.0	No	2.0	13.8674971687429	1.787	154.912	n/a	GetAnswer	Loss
154.931	4.0	0.019	1298.41	63.0	3	10.9	-1.48	19.914	955.0	2.0	Outcome1	10.9	-2.97	0.0	No	n/a	13.8674971687429	n/a	n/a	n/a	ShowChoice	Loss
158.943	1.0	0.012	1302.422	63.0	3	10.9	-1.48	19.914	955.0	2.0	Outcome1	10.9	-2.97	0.0	No	n/a	13.8674971687429	n/a	n/a	n/a	ShowResult	Loss
159.963	5.595	0.02	1303.442	63.0	3	10.9	-1.48	19.914	955.0	2.0	Outcome1	10.9	-2.97	0.0	No	n/a	13.8674971687429	n/a	n/a	n/a	ISITrial	Loss
165.579	3.0	0.021	1309.058	64.0	3	6.09	3.04	20.6752	955.0	1.82	Outcome1	6.09	8.7	0.0	No	2.0	-2.60890902227256	1.161	166.74	n/a	GetAnswer	Gain
166.766	4.0	0.026	1310.245	64.0	3	6.09	3.04	20.6752	955.0	1.82	Outcome1	6.09	8.7	0.0	No	n/a	-2.60890902227256	n/a	n/a	n/a	ShowChoice	Gain
170.778	1.0	0.012	1314.257	64.0	3	6.09	3.04	20.6752	955.0	1.82	Outcome1	6.09	8.7	0.0	No	n/a	-2.60890902227256	n/a	n/a	n/a	ShowResult	Gain
171.798	5.47	0.02	1315.277	64.0	3	6.09	3.04	20.6752	955.0	1.82	Outcome1	6.09	8.7	0.0	No	n/a	-2.60890902227256	n/a	n/a	n/a	ISITrial	Gain
177.298	3.0	0.03	1320.777	65.0	3	-2.56	-1.0	20.3552	955.0	1.5	Outcome1	-2.56	0.1	2.99675	Yes	2.0	-2.6590222725556805	1.783	179.081	n/a	GetAnswer	Mixed
179.103	4.0	0.022	1322.582	65.0	3	-2.56	-1.0	20.3552	955.0	1.5	Outcome1	-2.56	0.1	2.99675	Yes	n/a	-2.6590222725556805	n/a	n/a	n/a	ShowChoice	Mixed
183.115	1.0	0.012	1326.594	65.0	3	-2.56	-1.0	20.3552	955.0	1.5	Outcome1	-2.56	0.1	2.99675	Yes	n/a	-2.6590222725556805	n/a	n/a	n/a	ShowResult	Mixed
184.135	3.344	0.02	1327.614	65.0	3	-2.56	-1.0	20.3552	955.0	1.5	Outcome1	-2.56	0.1	2.99675	Yes	n/a	-2.6590222725556805	n/a	n/a	n/a	ISITrial	Mixed
187.495	2.997	0.016	1330.974	65.0	3	-2.56	-1.0	20.3552	955.0	1.5	Outcome1	-2.56	0.1	2.99675	Yes	n/a	-2.6590222725556805	n/a	n/a	n/a	TrialHappPreview	Mixed
190.521	4.012	0.029	1334.0	65.0	3	-2.56	-1.0	20.3552	955.0	1.5	Outcome1	-2.56	0.1	2.99675	Yes	n/a	-2.6590222725556805	n/a	n/a	392.0	TrialHappiness	Mixed
190.521	1.983	n/a	1334.248	65.0	3	-2.56	-1.0	20.3552	955.0	1.5	Outcome1	-2.56	0.1	2.99675	Yes	n/a	-2.6590222725556805	n/a	n/a	392.0	TrialHappinessSliderResponse	Mixed
194.533	3.987	4.012	1338.012	65.0	3	-2.56	-1.0	20.3552	955.0	1.5	Outcome1	-2.56	0.1	2.99675	Yes	n/a	-2.6590222725556805	n/a	n/a	n/a	ISIRate	Mixed
198.545	3.0	0.025	1342.024	66.0	3	-4.0	-4.0	19.8552	955.0	2.0	Certain	-11.92	4.3	0.0	No	4.0	16.2151755379388	1.238	199.783	n/a	GetAnswer	Mixed
199.798	4.0	0.015	1343.277	66.0	3	-4.0	-4.0	19.8552	955.0	2.0	Certain	-11.92	4.3	0.0	No	n/a	16.2151755379388	n/a	n/a	n/a	ShowChoice	Mixed
203.81	1.0	0.012	1347.289	66.0	3	-4.0	-4.0	19.8552	955.0	2.0	Certain	-11.92	4.3	0.0	No	n/a	16.2151755379388	n/a	n/a	n/a	ShowResult	Mixed
204.83	3.959	0.02	1348.309	66.0	3	-4.0	-4.0	19.8552	955.0	2.0	Certain	-11.92	4.3	0.0	No	n/a	16.2151755379388	n/a	n/a	n/a	ISITrial	Mixed
208.809	3.0	0.02	1352.288	67.0	3	-4.0	-4.0	19.3552	955.0	1.5	Certain	4.1	-12.75	2.9185	Yes	4.0	16.8527746319366	1.268	210.077	n/a	GetAnswer	Mixed
210.096	4.0	0.019	1353.575	67.0	3	-4.0	-4.0	19.3552	955.0	1.5	Certain	4.1	-12.75	2.9185	Yes	n/a	16.8527746319366	n/a	n/a	n/a	ShowChoice	Mixed
214.108	1.0	0.012	1357.587	67.0	3	-4.0	-4.0	19.3552	955.0	1.5	Certain	4.1	-12.75	2.9185	Yes	n/a	16.8527746319366	n/a	n/a	n/a	ShowResult	Mixed
215.128	4.199	0.02	1358.607	67.0	3	-4.0	-4.0	19.3552	955.0	1.5	Certain	4.1	-12.75	2.9185	Yes	n/a	16.8527746319366	n/a	n/a	n/a	ISITrial	Mixed
219.34	2.918	0.013	1362.819	67.0	3	-4.0	-4.0	19.3552	955.0	1.5	Certain	4.1	-12.75	2.9185	Yes	n/a	16.8527746319366	n/a	n/a	n/a	TrialHappPreview	Mixed
222.282	4.012	0.024	1365.761	67.0	3	-4.0	-4.0	19.3552	955.0	1.5	Certain	4.1	-12.75	2.9185	Yes	n/a	16.8527746319366	n/a	n/a	344.0	TrialHappiness	Mixed
222.283	2.396	n/a	1366.048	67.0	3	-4.0	-4.0	19.3552	955.0	1.5	Certain	4.1	-12.75	2.9185	Yes	n/a	16.8527746319366	n/a	n/a	344.0	TrialHappinessSliderResponse	Mixed
226.294	3.674	4.012	1369.773	67.0	3	-4.0	-4.0	19.3552	955.0	1.5	Certain	4.1	-12.75	2.9185	Yes	n/a	16.8527746319366	n/a	n/a	n/a	ISIRate	Mixed
229.989	3.0	0.021	1373.468	68.0	3	-4.0	-4.0	18.8552	955.0	2.22	Certain	5.1	-13.21	0.0	No	4.0	18.3057757644394	1.172	231.161	n/a	GetAnswer	Gain
231.176	4.0	0.015	1374.655	68.0	3	-4.0	-4.0	18.8552	955.0	2.22	Certain	5.1	-13.21	0.0	No	n/a	18.3057757644394	n/a	n/a	n/a	ShowChoice	Gain
235.188	1.0	0.012	1378.667	68.0	3	-4.0	-4.0	18.8552	955.0	2.22	Certain	5.1	-13.21	0.0	No	n/a	18.3057757644394	n/a	n/a	n/a	ShowResult	Gain
236.207	2.185	0.019	1379.686	68.0	3	-4.0	-4.0	18.8552	955.0	2.22	Certain	5.1	-13.21	0.0	No	n/a	18.3057757644394	n/a	n/a	n/a	ISITrial	Gain
238.414	3.0	0.022	1381.893	69.0	3	-3.25	-3.25	18.449	955.0	1.68	Certain	12.5	-6.5	0.0	No	4.0	18.9977349943375	1.536	239.95	n/a	GetAnswer	Loss
239.969	4.0	0.018	1383.448	69.0	3	-3.25	-3.25	18.449	955.0	1.68	Certain	12.5	-6.5	0.0	No	n/a	18.9977349943375	n/a	n/a	n/a	ShowChoice	Loss
243.981	1.0	0.012	1387.46	69.0	3	-3.25	-3.25	18.449	955.0	1.68	Certain	12.5	-6.5	0.0	No	n/a	18.9977349943375	n/a	n/a	n/a	ShowResult	Loss
245.0	2.0	0.019	1388.479	69.0	3	-3.25	-3.25	18.449	955.0	1.68	Certain	12.5	-6.5	0.0	No	n/a	18.9977349943375	n/a	n/a	n/a	ISITrial	Loss
247.023	3.0	0.023	1390.502	70.0	3	8.44	4.22	19.504	955.0	3.16	Outcome2	11.7	8.44	3.65125	Yes	2.0	-3.2553793884484703	1.037	248.06	n/a	GetAnswer	Loss
248.076	4.0	0.016	1391.555	70.0	3	8.44	4.22	19.504	955.0	3.16	Outcome2	11.7	8.44	3.65125	Yes	n/a	-3.2553793884484703	n/a	n/a	n/a	ShowChoice	Loss
252.088	1.0	0.012	1395.567	70.0	3	8.44	4.22	19.504	955.0	3.16	Outcome2	11.7	8.44	3.65125	Yes	n/a	-3.2553793884484703	n/a	n/a	n/a	ShowResult	Loss
253.108	2.623	0.02	1396.587	70.0	3	8.44	4.22	19.504	955.0	3.16	Outcome2	11.7	8.44	3.65125	Yes	n/a	-3.2553793884484703	n/a	n/a	n/a	ISITrial	Loss
255.749	3.651	0.018	1399.228	70.0	3	8.44	4.22	19.504	955.0	3.16	Outcome2	11.7	8.44	3.65125	Yes	n/a	-3.2553793884484703	n/a	n/a	n/a	TrialHappPreview	Loss
259.427	4.012	0.027	1402.906	70.0	3	8.44	4.22	19.504	955.0	3.16	Outcome2	11.7	8.44	3.65125	Yes	n/a	-3.2553793884484703	n/a	n/a	312.0	TrialHappiness	Loss
259.427	0.567	n/a	1402.93	70.0	3	8.44	4.22	19.504	955.0	3.16	Outcome2	11.7	8.44	3.65125	Yes	n/a	-3.2553793884484703	n/a	n/a	312.0	TrialHappinessSliderResponse	Loss
263.439	6.605	4.012	1406.918	70.0	3	8.44	4.22	19.504	955.0	3.16	Outcome2	11.7	8.44	3.65125	Yes	n/a	-3.2553793884484703	n/a	n/a	n/a	ISIRate	Loss
270.075	3.0	0.031	1413.554	71.0	3	3.06	1.53	19.8865	955.0	1.68	Outcome1	3.06	6.5	0.0	No	2.0	-3.44290298225746	1.047	271.122	n/a	GetAnswer	Gain
271.145	4.0	0.023	1414.624	71.0	3	3.06	1.53	19.8865	955.0	1.68	Outcome1	3.06	6.5	0.0	No	n/a	-3.44290298225746	n/a	n/a	n/a	ShowChoice	Gain
275.157	1.0	0.012	1418.636	71.0	3	3.06	1.53	19.8865	955.0	1.68	Outcome1	3.06	6.5	0.0	No	n/a	-3.44290298225746	n/a	n/a	n/a	ShowResult	Gain
276.177	5.499	0.02	1419.656	71.0	3	3.06	1.53	19.8865	955.0	1.68	Outcome1	3.06	6.5	0.0	No	n/a	-3.44290298225746	n/a	n/a	n/a	ISITrial	Gain
281.694	3.0	0.018	1425.173	72.0	3	-1.0	-1.0	19.7615	955.0	2.8	Certain	9.5	-12.15	3.0805	Yes	4.0	21.6534541336353	1.162	282.856	n/a	GetAnswer	Gain
282.88	4.0	0.024	1426.359	72.0	3	-1.0	-1.0	19.7615	955.0	2.8	Certain	9.5	-12.15	3.0805	Yes	n/a	21.6534541336353	n/a	n/a	n/a	ShowChoice	Gain
286.892	1.0	0.012	1430.371	72.0	3	-1.0	-1.0	19.7615	955.0	2.8	Certain	9.5	-12.15	3.0805	Yes	n/a	21.6534541336353	n/a	n/a	n/a	ShowResult	Gain
287.912	5.672	0.02	1431.391	72.0	3	-1.0	-1.0	19.7615	955.0	2.8	Certain	9.5	-12.15	3.0805	Yes	n/a	21.6534541336353	n/a	n/a	n/a	ISITrial	Gain
293.596	3.08	0.012	1437.075	72.0	3	-1.0	-1.0	19.7615	955.0	2.8	Certain	9.5	-12.15	3.0805	Yes	n/a	21.6534541336353	n/a	n/a	n/a	TrialHappPreview	Gain
296.705	4.012	0.029	1440.184	72.0	3	-1.0	-1.0	19.7615	955.0	2.8	Certain	9.5	-12.15	3.0805	Yes	n/a	21.6534541336353	n/a	n/a	360.0	TrialHappiness	Gain
296.706	0.962	n/a	1441.036	72.0	3	-1.0	-1.0	19.7615	955.0	2.8	Certain	9.5	-12.15	3.0805	Yes	n/a	21.6534541336353	n/a	n/a	360.0	TrialHappinessSliderResponse	Gain
300.717	4.322	4.012	1444.196	72.0	3	-1.0	-1.0	19.7615	955.0	2.8	Certain	9.5	-12.15	3.0805	Yes	n/a	21.6534541336353	n/a	n/a	n/a	ISIRate	Gain
305.064	3.0	0.025	1448.543	73.0	3	-4.0	-4.0	19.2615	955.0	1.82	Certain	6.7	-14.87	0.0	No	4.0	21.5662514156285	1.115	306.179	n/a	GetAnswer	Gain
306.2	4.0	0.021	1449.679	73.0	3	-4.0	-4.0	19.2615	955.0	1.82	Certain	6.7	-14.87	0.0	No	n/a	21.5662514156285	n/a	n/a	n/a	ShowChoice	Gain
310.212	1.0	0.012	1453.691	73.0	3	-4.0	-4.0	19.2615	955.0	1.82	Certain	6.7	-14.87	0.0	No	n/a	21.5662514156285	n/a	n/a	n/a	ShowResult	Gain
311.232	4.616	0.02	1454.711	73.0	3	-4.0	-4.0	19.2615	955.0	1.82	Certain	6.7	-14.87	0.0	No	n/a	21.5662514156285	n/a	n/a	n/a	ISITrial	Gain
315.879	3.0	0.031	1459.358	74.0	3	7.07	3.54	20.1453	955.0	1.68	Outcome1	7.07	10.5	3.05625	Yes	2.0	-3.4256323140807905	1.166	317.045	n/a	GetAnswer	Loss
317.066	4.0	0.021	1460.545	74.0	3	7.07	3.54	20.1453	955.0	1.68	Outcome1	7.07	10.5	3.05625	Yes	n/a	-3.4256323140807905	n/a	n/a	n/a	ShowChoice	Loss
321.078	1.0	0.012	1464.557	74.0	3	7.07	3.54	20.1453	955.0	1.68	Outcome1	7.07	10.5	3.05625	Yes	n/a	-3.4256323140807905	n/a	n/a	n/a	ShowResult	Loss
322.098	3.909	0.02	1465.577	74.0	3	7.07	3.54	20.1453	955.0	1.68	Outcome1	7.07	10.5	3.05625	Yes	n/a	-3.4256323140807905	n/a	n/a	n/a	ISITrial	Loss
326.026	3.056	0.019	1469.505	74.0	3	7.07	3.54	20.1453	955.0	1.68	Outcome1	7.07	10.5	3.05625	Yes	n/a	-3.4256323140807905	n/a	n/a	n/a	TrialHappPreview	Loss
329.102	4.012	0.02	1472.581	74.0	3	7.07	3.54	20.1453	955.0	1.68	Outcome1	7.07	10.5	3.05625	Yes	n/a	-3.4256323140807905	n/a	n/a	328.0	TrialHappiness	Loss
329.103	0.53	n/a	1473.028	74.0	3	7.07	3.54	20.1453	955.0	1.68	Outcome1	7.07	10.5	3.05625	Yes	n/a	-3.4256323140807905	n/a	n/a	328.0	TrialHappinessSliderResponse	Loss
333.114	4.225	4.012	1476.593	74.0	3	7.07	3.54	20.1453	955.0	1.68	Outcome1	7.07	10.5	3.05625	Yes	n/a	-3.4256323140807905	n/a	n/a	n/a	ISIRate	Loss
337.36	3.0	0.021	1480.839	75.0	3	10.09	5.04	21.4065	955.0	3.16	Outcome1	10.09	13.7	0.0	No	2.0	-3.61164590411476	0.976	338.336	n/a	GetAnswer	Loss
338.363	4.0	0.027	1481.842	75.0	3	10.09	5.04	21.4065	955.0	3.16	Outcome1	10.09	13.7	0.0	No	n/a	-3.61164590411476	n/a	n/a	n/a	ShowChoice	Loss
342.375	1.0	0.012	1485.854	75.0	3	10.09	5.04	21.4065	955.0	3.16	Outcome1	10.09	13.7	0.0	No	n/a	-3.61164590411476	n/a	n/a	n/a	ShowResult	Loss
343.395	4.979	0.02	1486.874	75.0	3	10.09	5.04	21.4065	955.0	3.16	Outcome1	10.09	13.7	0.0	No	n/a	-3.61164590411476	n/a	n/a	n/a	ISITrial	Loss
348.393	3.0	0.019	1491.872	76.0	3	-4.0	-4.0	20.9065	955.0	5.0	Certain	8.3	-15.87	0.0	No	4.0	24.167610419026	1.547	349.94	n/a	GetAnswer	Gain
349.965	4.0	0.025	1493.444	76.0	3	-4.0	-4.0	20.9065	955.0	5.0	Certain	8.3	-15.87	0.0	No	n/a	24.167610419026	n/a	n/a	n/a	ShowChoice	Gain
353.977	1.0	0.012	1497.456	76.0	3	-4.0	-4.0	20.9065	955.0	5.0	Certain	8.3	-15.87	0.0	No	n/a	24.167610419026	n/a	n/a	n/a	ShowResult	Gain
354.996	3.931	0.019	1498.475	76.0	3	-4.0	-4.0	20.9065	955.0	5.0	Certain	8.3	-15.87	0.0	No	n/a	24.167610419026	n/a	n/a	n/a	ISITrial	Gain
358.958	3.0	0.031	1502.437	77.0	3	-6.0	-6.0	20.1565	955.0	3.6	Certain	5.9	-18.98	4.0	Yes	4.0	24.8776896942242	1.545	360.503	n/a	GetAnswer	Gain
360.53	4.0	0.027	1504.009	77.0	3	-6.0	-6.0	20.1565	955.0	3.6	Certain	5.9	-18.98	4.0	Yes	n/a	24.8776896942242	n/a	n/a	n/a	ShowChoice	Gain
364.542	1.0	0.012	1508.021	77.0	3	-6.0	-6.0	20.1565	955.0	3.6	Certain	5.9	-18.98	4.0	Yes	n/a	24.8776896942242	n/a	n/a	n/a	ShowResult	Gain
365.561	7.022	0.019	1509.04	77.0	3	-6.0	-6.0	20.1565	955.0	3.6	Certain	5.9	-18.98	4.0	Yes	n/a	24.8776896942242	n/a	n/a	n/a	ISITrial	Gain
372.599	4.0	0.016	1516.078	77.0	3	-6.0	-6.0	20.1565	955.0	3.6	Certain	5.9	-18.98	4.0	Yes	n/a	24.8776896942242	n/a	n/a	n/a	TrialHappPreview	Gain
376.628	4.012	0.029	1520.107	77.0	3	-6.0	-6.0	20.1565	955.0	3.6	Certain	5.9	-18.98	4.0	Yes	n/a	24.8776896942242	n/a	n/a	296.0	TrialHappiness	Gain
376.628	3.159	n/a	1520.716	77.0	3	-6.0	-6.0	20.1565	955.0	3.6	Certain	5.9	-18.98	4.0	Yes	n/a	24.8776896942242	n/a	n/a	296.0	TrialHappinessSliderResponse	Gain
380.64	8.0	4.012	1524.119	77.0	3	-6.0	-6.0	20.1565	955.0	3.6	Certain	5.9	-18.98	4.0	Yes	n/a	24.8776896942242	n/a	n/a	n/a	ISIRate	Gain
388.664	3.0	0.024	1532.143	78.0	3	-1.82	0.0	19.929	955.0	1.5	Outcome1	-1.82	2.1	0.0	No	2.0	-3.91902604756512	2.368	391.032	n/a	GetAnswer	Mixed
391.054	4.0	0.021	1534.533	78.0	3	-1.82	0.0	19.929	955.0	1.5	Outcome1	-1.82	2.1	0.0	No	n/a	-3.91902604756512	n/a	n/a	n/a	ShowChoice	Mixed
395.066	1.0	0.012	1538.545	78.0	3	-1.82	0.0	19.929	955.0	1.5	Outcome1	-1.82	2.1	0.0	No	n/a	-3.91902604756512	n/a	n/a	n/a	ShowResult	Mixed
396.086	2.078	0.02	1539.565	78.0	3	-1.82	0.0	19.929	955.0	1.5	Outcome1	-1.82	2.1	0.0	No	n/a	-3.91902604756512	n/a	n/a	n/a	ISITrial	Mixed
398.192	3.0	0.028	1541.671	79.0	3	-1.0	-1.0	19.804	955.0	4.2	Certain	-14.78	12.1	2.7295	Yes	4.0	26.8776896942242	1.653	399.845	n/a	GetAnswer	Loss
399.864	4.0	0.019	1543.343	79.0	3	-1.0	-1.0	19.804	955.0	4.2	Certain	-14.78	12.1	2.7295	Yes	n/a	26.8776896942242	n/a	n/a	n/a	ShowChoice	Loss
403.876	1.0	0.012	1547.355	79.0	3	-1.0	-1.0	19.804	955.0	4.2	Certain	-14.78	12.1	2.7295	Yes	n/a	26.8776896942242	n/a	n/a	n/a	ShowResult	Loss
404.896	3.829	0.02	1548.375	79.0	3	-1.0	-1.0	19.804	955.0	4.2	Certain	-14.78	12.1	2.7295	Yes	n/a	26.8776896942242	n/a	n/a	n/a	ISITrial	Loss
408.741	2.73	0.016	1552.22	79.0	3	-1.0	-1.0	19.804	955.0	4.2	Certain	-14.78	12.1	2.7295	Yes	n/a	26.8776896942242	n/a	n/a	n/a	TrialHappPreview	Loss
411.499	4.012	0.028	1554.978	79.0	3	-1.0	-1.0	19.804	955.0	4.2	Certain	-14.78	12.1	2.7295	Yes	n/a	26.8776896942242	n/a	n/a	352.0	TrialHappiness	Loss
411.499	0.457	n/a	1555.615	79.0	3	-1.0	-1.0	19.804	955.0	4.2	Certain	-14.78	12.1	2.7295	Yes	n/a	26.8776896942242	n/a	n/a	352.0	TrialHappinessSliderResponse	Loss
415.511	2.918	4.012	1558.99	79.0	3	-1.0	-1.0	19.804	955.0	4.2	Certain	-14.78	12.1	2.7295	Yes	n/a	26.8776896942242	n/a	n/a	n/a	ISIRate	Loss
418.453	3.0	0.024	1561.932	80.0	3	-11.0	-11.0	18.429	955.0	1.5	Certain	-24.57	2.1	0.0	No	4.0	26.6727066817667	1.95	420.403	n/a	GetAnswer	Mixed
420.425	4.0	0.022	1563.904	80.0	3	-11.0	-11.0	18.429	955.0	1.5	Certain	-24.57	2.1	0.0	No	n/a	26.6727066817667	n/a	n/a	n/a	ShowChoice	Mixed
424.438	1.0	0.013	1567.917	80.0	3	-11.0	-11.0	18.429	955.0	1.5	Certain	-24.57	2.1	0.0	No	n/a	26.6727066817667	n/a	n/a	n/a	ShowResult	Mixed
425.457	3.336	0.019	1568.936	80.0	3	-11.0	-11.0	18.429	955.0	1.5	Certain	-24.57	2.1	0.0	No	n/a	26.6727066817667	n/a	n/a	n/a	ISITrial	Mixed
428.817	3.0	0.024	1572.296	81.0	3	7.7	-6.0	19.3915	955.0	3.16	Outcome1	7.7	-19.66	3.92375	Yes	n/a	27.355605889014697	n/a	n/a	n/a	GetAnswer	Gain
431.843	4.0	0.026	1575.322	81.0	3	7.7	-6.0	19.3915	955.0	3.16	Outcome1	7.7	-19.66	3.92375	Yes	n/a	27.355605889014697	n/a	n/a	n/a	ShowChoice	Gain
435.855	1.0	0.012	1579.334	81.0	3	7.7	-6.0	19.3915	955.0	3.16	Outcome1	7.7	-19.66	3.92375	Yes	n/a	27.355605889014697	n/a	n/a	n/a	ShowResult	Gain
436.875	3.919	0.02	1580.354	81.0	3	7.7	-6.0	19.3915	955.0	3.16	Outcome1	7.7	-19.66	3.92375	Yes	n/a	27.355605889014697	n/a	n/a	n/a	ISITrial	Gain
440.82	3.924	0.026	1584.299	81.0	3	7.7	-6.0	19.3915	955.0	3.16	Outcome1	7.7	-19.66	3.92375	Yes	n/a	27.355605889014697	n/a	n/a	n/a	TrialHappPreview	Gain
444.765	4.012	0.021	1588.244	81.0	3	7.7	-6.0	19.3915	955.0	3.16	Outcome1	7.7	-19.66	3.92375	Yes	n/a	27.355605889014697	n/a	n/a	360.0	TrialHappiness	Gain
444.766	0.459	n/a	1588.712	81.0	3	7.7	-6.0	19.3915	955.0	3.16	Outcome1	7.7	-19.66	3.92375	Yes	n/a	27.355605889014697	n/a	n/a	360.0	TrialHappinessSliderResponse	Gain
448.777	7.695	4.012	1592.256	81.0	3	7.7	-6.0	19.3915	955.0	3.16	Outcome1	7.7	-19.66	3.92375	Yes	n/a	27.355605889014697	n/a	n/a	n/a	ISIRate	Gain
456.5	3.0	0.028	1599.979	n/a	3	n/a	n/a	n/a	n/a	n/a	n/a	n/a	n/a	n/a	n/a	n/a	n/a	n/a	n/a	n/a	CurrentEarnings	n/a
459.526	-0.001	0.026	1603.005	n/a	3	n/a	n/a	n/a	n/a	n/a	n/a	n/a	n/a	n/a	n/a	{SPACE}	n/a	10.251	469.777	n/a	Goodbye	n/a
