onset	duration	onset_delay	onset_unadjusted	trial_number	block	amount_change	certain_amount	current_amount	mood_target	multiplier	outcome	outcome1_amount	outcome2_amount	question_duration	rating	response	rpe	rt	rt_time	slider_response	trial_phase	trial_type
-38.816	-0.001	0.088	18.551	n/a	0	n/a	n/a	n/a	n/a	n/a	n/a	n/a	n/a	n/a	n/a	{SPACE}	n/a	1.492	-37.324	n/a	Welcome	n/a
-37.295	5.0	0.029	20.072	n/a	0	n/a	n/a	n/a	n/a	n/a	n/a	n/a	n/a	n/a	n/a	n/a	n/a	n/a	n/a	n/a	LifeHappyPreview	n/a
-32.263	3.467	0.032	25.104	n/a	0	n/a	n/a	n/a	n/a	n/a	n/a	n/a	n/a	n/a	n/a	n/a	n/a	n/a	n/a	880.0	LifeHappiness	n/a
-32.263	2.891	n/a	25.68	n/a	0	n/a	n/a	n/a	n/a	n/a	n/a	n/a	n/a	n/a	n/a	n/a	n/a	n/a	n/a	880.0	LifeHappinessSliderResponse	n/a
-14.159	4.0	0.014	43.208	n/a	0	n/a	n/a	n/a	n/a	n/a	n/a	n/a	n/a	n/a	n/a	n/a	n/a	n/a	n/a	n/a	BlockHappyPreview	n/a
-10.147	1.091	0.012	47.22	n/a	0	n/a	n/a	n/a	n/a	n/a	n/a	n/a	n/a	n/a	n/a	2{-2}	n/a	1.091	-9.056	840.0	BlockStartHappiness	n/a
-10.147	0.828	n/a	47.483	n/a	0	n/a	n/a	n/a	n/a	n/a	n/a	n/a	n/a	n/a	n/a	n/a	n/a	n/a	n/a	840.0	BlockStartHappinessSliderResponse	n/a
-3.511	-0.001	0.022	53.856	n/a	0	n/a	n/a	n/a	n/a	n/a	n/a	n/a	n/a	n/a	n/a	5.0	n/a	3.499	-0.012	n/a	ScanWait	n/a
0.0	10.0	0.012	57.367	n/a	1	n/a	n/a	n/a	n/a	n/a	n/a	n/a	n/a	n/a	n/a	n/a	n/a	n/a	n/a	n/a	GetReady	n/a
10.03	3.0	0.03	67.397	1.0	1	0.9	0.0	10.1125	955.0	0.4	Outcome1	0.9	-1.05	0.0	No	2.0	1.95356738391846	1.568	11.598	n/a	GetAnswer	Mixed
11.618	4.0	0.02	68.985	1.0	1	0.9	0.0	10.1125	955.0	0.4	Outcome1	0.9	-1.05	0.0	No	n/a	1.95356738391846	n/a	n/a	n/a	ShowChoice	Mixed
15.63	1.0	0.012	72.997	1.0	1	0.9	0.0	10.1125	955.0	0.4	Outcome1	0.9	-1.05	0.0	No	n/a	1.95356738391846	n/a	n/a	n/a	ShowResult	Mixed
16.649	2.431	0.019	74.016	1.0	1	0.9	0.0	10.1125	955.0	0.4	Outcome1	0.9	-1.05	0.0	No	n/a	1.95356738391846	n/a	n/a	n/a	ISITrial	Mixed
19.107	3.0	0.027	76.474	2.0	1	2.0	2.0	10.3625	955.0	0.52	Certain	3.1	1.02	0.0	No	4.0	2.08380520951302	0.888	19.995	n/a	GetAnswer	Mixed
20.01	4.0	0.015	77.377	2.0	1	2.0	2.0	10.3625	955.0	0.52	Certain	3.1	1.02	0.0	No	n/a	2.08380520951302	n/a	n/a	n/a	ShowChoice	Mixed
24.038	1.0	0.028	81.405	2.0	1	2.0	2.0	10.3625	955.0	0.52	Certain	3.1	1.02	0.0	No	n/a	2.08380520951302	n/a	n/a	n/a	ShowResult	Mixed
25.058	4.568	0.02	82.425	2.0	1	2.0	2.0	10.3625	955.0	0.52	Certain	3.1	1.02	0.0	No	n/a	2.08380520951302	n/a	n/a	n/a	ISITrial	Mixed
29.655	3.0	0.029	87.022	3.0	1	13.01	6.5	11.9887	955.0	2.8	Outcome1	13.01	13.5	2.868	Yes	2.0	-0.488391845979615	0.989	30.644	n/a	GetAnswer	Loss
30.658	4.0	0.014	88.025	3.0	1	13.01	6.5	11.9887	955.0	2.8	Outcome1	13.01	13.5	2.868	Yes	n/a	-0.488391845979615	n/a	n/a	n/a	ShowChoice	Loss
34.67	1.0	0.012	92.037	3.0	1	13.01	6.5	11.9887	955.0	2.8	Outcome1	13.01	13.5	2.868	Yes	n/a	-0.488391845979615	n/a	n/a	n/a	ShowResult	Loss
35.69	3.243	0.02	93.057	3.0	1	13.01	6.5	11.9887	955.0	2.8	Outcome1	13.01	13.5	2.868	Yes	n/a	-0.488391845979615	n/a	n/a	n/a	ISITrial	Loss
38.949	2.868	0.016	96.316	3.0	1	13.01	6.5	11.9887	955.0	2.8	Outcome1	13.01	13.5	2.868	Yes	n/a	-0.488391845979615	n/a	n/a	n/a	TrialHappPreview	Loss
41.841	4.012	0.024	99.208	3.0	1	13.01	6.5	11.9887	955.0	2.8	Outcome1	13.01	13.5	2.868	Yes	n/a	-0.488391845979615	n/a	n/a	904.0	TrialHappiness	Loss
41.842	1.847	n/a	99.892	3.0	1	13.01	6.5	11.9887	955.0	2.8	Outcome1	13.01	13.5	2.868	Yes	n/a	-0.488391845979615	n/a	n/a	904.0	TrialHappinessSliderResponse	Loss
45.853	3.472	4.012	103.22	3.0	1	13.01	6.5	11.9887	955.0	2.8	Outcome1	13.01	13.5	2.868	Yes	n/a	-0.488391845979615	n/a	n/a	n/a	ISIRate	Loss
49.347	3.0	0.022	106.714	4.0	1	4.7	1.72	12.5762	955.0	1.82	Outcome1	4.7	3.44	0.0	No	2.0	1.25707814269536	1.152	50.499	n/a	GetAnswer	Gain
50.517	4.0	0.018	107.884	4.0	1	4.7	1.72	12.5762	955.0	1.82	Outcome1	4.7	3.44	0.0	No	n/a	1.25707814269536	n/a	n/a	n/a	ShowChoice	Gain
54.529	1.0	0.012	111.896	4.0	1	4.7	1.72	12.5762	955.0	1.82	Outcome1	4.7	3.44	0.0	No	n/a	1.25707814269536	n/a	n/a	n/a	ShowResult	Gain
55.549	2.011	0.02	112.916	4.0	1	4.7	1.72	12.5762	955.0	1.82	Outcome1	4.7	3.44	0.0	No	n/a	1.25707814269536	n/a	n/a	n/a	ISITrial	Gain
57.588	3.0	0.028	114.955	5.0	1	10.9	4.8	13.9387	955.0	2.0	Outcome2	9.59	10.9	2.5825	Yes	2.0	1.31483578708947	0.915	58.503	n/a	GetAnswer	Loss
58.525	4.0	0.022	115.892	5.0	1	10.9	4.8	13.9387	955.0	2.0	Outcome2	9.59	10.9	2.5825	Yes	n/a	1.31483578708947	n/a	n/a	n/a	ShowChoice	Loss
62.537	1.0	0.012	119.904	5.0	1	10.9	4.8	13.9387	955.0	2.0	Outcome2	9.59	10.9	2.5825	Yes	n/a	1.31483578708947	n/a	n/a	n/a	ShowResult	Loss
63.556	5.129	0.019	120.923	5.0	1	10.9	4.8	13.9387	955.0	2.0	Outcome2	9.59	10.9	2.5825	Yes	n/a	1.31483578708947	n/a	n/a	n/a	ISITrial	Loss
68.705	2.582	0.02	126.072	5.0	1	10.9	4.8	13.9387	955.0	2.0	Outcome2	9.59	10.9	2.5825	Yes	n/a	1.31483578708947	n/a	n/a	n/a	TrialHappPreview	Loss
71.313	4.012	0.026	128.68	5.0	1	10.9	4.8	13.9387	955.0	2.0	Outcome2	9.59	10.9	2.5825	Yes	n/a	1.31483578708947	n/a	n/a	904.0	TrialHappiness	Loss
71.313	2.51	n/a	129.904	5.0	1	10.9	4.8	13.9387	955.0	2.0	Outcome2	9.59	10.9	2.5825	Yes	n/a	1.31483578708947	n/a	n/a	904.0	TrialHappinessSliderResponse	Loss
75.325	2.33	4.012	132.692	5.0	1	10.9	4.8	13.9387	955.0	2.0	Outcome2	9.59	10.9	2.5825	Yes	n/a	1.31483578708947	n/a	n/a	n/a	ISIRate	Loss
77.682	3.0	0.027	135.049	6.0	1	9.7	4.16	15.1512	955.0	3.16	Outcome1	9.7	8.33	0.0	No	2.0	1.3725934314835802	0.892	78.574	n/a	GetAnswer	Gain
78.601	4.0	0.027	135.968	6.0	1	9.7	4.16	15.1512	955.0	3.16	Outcome1	9.7	8.33	0.0	No	n/a	1.3725934314835802	n/a	n/a	n/a	ShowChoice	Gain
82.613	1.0	0.012	139.98	6.0	1	9.7	4.16	15.1512	955.0	3.16	Outcome1	9.7	8.33	0.0	No	n/a	1.3725934314835802	n/a	n/a	n/a	ShowResult	Gain
83.633	6.232	0.02	141.0	6.0	1	9.7	4.16	15.1512	955.0	3.16	Outcome1	9.7	8.33	0.0	No	n/a	1.3725934314835802	n/a	n/a	n/a	ISITrial	Gain
89.885	3.0	0.02	147.252	7.0	1	4.65	2.33	15.7324	955.0	2.0	Outcome1	4.65	4.9	0.0	No	2.0	-0.2539637599094	0.836	90.721	n/a	GetAnswer	Gain
90.737	4.0	0.016	148.104	7.0	1	4.65	2.33	15.7324	955.0	2.0	Outcome1	4.65	4.9	0.0	No	n/a	-0.2539637599094	n/a	n/a	n/a	ShowChoice	Gain
94.749	1.0	0.012	152.116	7.0	1	4.65	2.33	15.7324	955.0	2.0	Outcome1	4.65	4.9	0.0	No	n/a	-0.2539637599094	n/a	n/a	n/a	ShowResult	Gain
95.769	2.305	0.02	153.136	7.0	1	4.65	2.33	15.7324	955.0	2.0	Outcome1	4.65	4.9	0.0	No	n/a	-0.2539637599094	n/a	n/a	n/a	ISITrial	Gain
98.093	3.0	0.019	155.46	8.0	1	1.7	1.0	15.9449	955.0	1.0	Outcome1	1.7	0.21	3.1125	Yes	2.0	1.4881087202718002	0.872	98.965	n/a	GetAnswer	Mixed
98.979	4.0	0.014	156.346	8.0	1	1.7	1.0	15.9449	955.0	1.0	Outcome1	1.7	0.21	3.1125	Yes	n/a	1.4881087202718002	n/a	n/a	n/a	ShowChoice	Mixed
102.991	1.0	0.012	160.358	8.0	1	1.7	1.0	15.9449	955.0	1.0	Outcome1	1.7	0.21	3.1125	Yes	n/a	1.4881087202718002	n/a	n/a	n/a	ShowResult	Mixed
104.01	3.506	0.019	161.377	8.0	1	1.7	1.0	15.9449	955.0	1.0	Outcome1	1.7	0.21	3.1125	Yes	n/a	1.4881087202718002	n/a	n/a	n/a	ISITrial	Mixed
107.538	3.112	0.022	164.905	8.0	1	1.7	1.0	15.9449	955.0	1.0	Outcome1	1.7	0.21	3.1125	Yes	n/a	1.4881087202718002	n/a	n/a	n/a	TrialHappPreview	Mixed
110.664	4.012	0.014	168.031	8.0	1	1.7	1.0	15.9449	955.0	1.0	Outcome1	1.7	0.21	3.1125	Yes	n/a	1.4881087202718002	n/a	n/a	936.0	TrialHappiness	Mixed
110.664	1.18	n/a	168.228	8.0	1	1.7	1.0	15.9449	955.0	1.0	Outcome1	1.7	0.21	3.1125	Yes	n/a	1.4881087202718002	n/a	n/a	936.0	TrialHappinessSliderResponse	Mixed
114.676	4.45	4.012	172.043	8.0	1	1.7	1.0	15.9449	955.0	1.0	Outcome1	1.7	0.21	3.1125	Yes	n/a	1.4881087202718002	n/a	n/a	n/a	ISIRate	Mixed
119.156	3.0	0.03	176.523	9.0	1	-0.83	-1.0	15.8411	955.0	0.66	Outcome1	-0.83	-0.7	0.0	No	2.0	-0.133729709324273	1.554	120.71	n/a	GetAnswer	Mixed
120.727	4.0	0.017	178.094	9.0	1	-0.83	-1.0	15.8411	955.0	0.66	Outcome1	-0.83	-0.7	0.0	No	n/a	-0.133729709324273	n/a	n/a	n/a	ShowChoice	Mixed
124.739	1.0	0.012	182.106	9.0	1	-0.83	-1.0	15.8411	955.0	0.66	Outcome1	-0.83	-0.7	0.0	No	n/a	-0.133729709324273	n/a	n/a	n/a	ShowResult	Mixed
125.759	2.0	0.02	183.126	9.0	1	-0.83	-1.0	15.8411	955.0	0.66	Outcome1	-0.83	-0.7	0.0	No	n/a	-0.133729709324273	n/a	n/a	n/a	ISITrial	Mixed
127.781	3.0	0.022	185.148	10.0	1	10.36	5.18	17.1361	955.0	1.68	Outcome2	10.5	10.36	4.0	Yes	2.0	-0.1355228388070969	1.071	128.852	n/a	GetAnswer	Loss
128.868	4.0	0.016	186.235	10.0	1	10.36	5.18	17.1361	955.0	1.68	Outcome2	10.5	10.36	4.0	Yes	n/a	-0.1355228388070969	n/a	n/a	n/a	ShowChoice	Loss
132.88	1.0	0.012	190.247	10.0	1	10.36	5.18	17.1361	955.0	1.68	Outcome2	10.5	10.36	4.0	Yes	n/a	-0.1355228388070969	n/a	n/a	n/a	ShowResult	Loss
133.9	2.0	0.02	191.267	10.0	1	10.36	5.18	17.1361	955.0	1.68	Outcome2	10.5	10.36	4.0	Yes	n/a	-0.1355228388070969	n/a	n/a	n/a	ISITrial	Loss
135.922	4.0	0.022	193.289	10.0	1	10.36	5.18	17.1361	955.0	1.68	Outcome2	10.5	10.36	4.0	Yes	n/a	-0.1355228388070969	n/a	n/a	n/a	TrialHappPreview	Loss
139.951	4.012	0.029	197.318	10.0	1	10.36	5.18	17.1361	955.0	1.68	Outcome2	10.5	10.36	4.0	Yes	n/a	-0.1355228388070969	n/a	n/a	936.0	TrialHappiness	Loss
139.952	2.516	n/a	197.367	10.0	1	10.36	5.18	17.1361	955.0	1.68	Outcome2	10.5	10.36	4.0	Yes	n/a	-0.1355228388070969	n/a	n/a	936.0	TrialHappinessSliderResponse	Loss
143.963	8.0	4.012	201.33	10.0	1	10.36	5.18	17.1361	955.0	1.68	Outcome2	10.5	10.36	4.0	Yes	n/a	-0.1355228388070969	n/a	n/a	n/a	ISIRate	Loss
151.987	3.0	0.024	209.354	11.0	1	0.36	0.0	17.1811	955.0	0.2	Outcome1	0.36	0.5	0.0	No	2.0	-0.137315968289921	1.122	153.109	n/a	GetAnswer	Mixed
153.124	4.0	0.015	210.491	11.0	1	0.36	0.0	17.1811	955.0	0.2	Outcome1	0.36	0.5	0.0	No	n/a	-0.137315968289921	n/a	n/a	n/a	ShowChoice	Mixed
157.136	1.0	0.012	214.503	11.0	1	0.36	0.0	17.1811	955.0	0.2	Outcome1	0.36	0.5	0.0	No	n/a	-0.137315968289921	n/a	n/a	n/a	ShowResult	Mixed
158.155	3.324	0.019	215.522	11.0	1	0.36	0.0	17.1811	955.0	0.2	Outcome1	0.36	0.5	0.0	No	n/a	-0.137315968289921	n/a	n/a	n/a	ISITrial	Mixed
161.499	3.0	0.02	218.866	12.0	1	-1.3	-2.0	17.0186	955.0	0.3	Outcome2	-2.37	-1.3	2.61875	Yes	2.0	1.06681766704417	1.364	162.863	n/a	GetAnswer	Mixed
162.886	4.0	0.023	220.253	12.0	1	-1.3	-2.0	17.0186	955.0	0.3	Outcome2	-2.37	-1.3	2.61875	Yes	n/a	1.06681766704417	n/a	n/a	n/a	ShowChoice	Mixed
166.898	1.0	0.012	224.265	12.0	1	-1.3	-2.0	17.0186	955.0	0.3	Outcome2	-2.37	-1.3	2.61875	Yes	n/a	1.06681766704417	n/a	n/a	n/a	ShowResult	Mixed
167.918	6.642	0.02	225.285	12.0	1	-1.3	-2.0	17.0186	955.0	0.3	Outcome2	-2.37	-1.3	2.61875	Yes	n/a	1.06681766704417	n/a	n/a	n/a	ISITrial	Mixed
174.588	2.619	0.028	231.955	12.0	1	-1.3	-2.0	17.0186	955.0	0.3	Outcome2	-2.37	-1.3	2.61875	Yes	n/a	1.06681766704417	n/a	n/a	n/a	TrialHappPreview	Mixed
177.229	4.012	0.022	234.596	12.0	1	-1.3	-2.0	17.0186	955.0	0.3	Outcome2	-2.37	-1.3	2.61875	Yes	n/a	1.06681766704417	n/a	n/a	928.0	TrialHappiness	Mixed
177.23	1.01	n/a	234.98	12.0	1	-1.3	-2.0	17.0186	955.0	0.3	Outcome2	-2.37	-1.3	2.61875	Yes	n/a	1.06681766704417	n/a	n/a	928.0	TrialHappinessSliderResponse	Mixed
181.241	2.475	4.012	238.608	12.0	1	-1.3	-2.0	17.0186	955.0	0.3	Outcome2	-2.37	-1.3	2.61875	Yes	n/a	1.06681766704417	n/a	n/a	n/a	ISIRate	Mixed
183.732	3.0	0.016	241.099	13.0	1	6.34	6.34	17.8111	955.0	3.6	Certain	12.68	13.9	0.0	No	4.0	1.2242355605889	0.858	184.59	n/a	GetAnswer	Loss
184.601	4.0	0.011	241.968	13.0	1	6.34	6.34	17.8111	955.0	3.6	Certain	12.68	13.9	0.0	No	n/a	1.2242355605889	n/a	n/a	n/a	ShowChoice	Loss
188.613	1.0	0.012	245.98	13.0	1	6.34	6.34	17.8111	955.0	3.6	Certain	12.68	13.9	0.0	No	n/a	1.2242355605889	n/a	n/a	n/a	ShowResult	Loss
189.633	3.48	0.02	247.0	13.0	1	6.34	6.34	17.8111	955.0	3.6	Certain	12.68	13.9	0.0	No	n/a	1.2242355605889	n/a	n/a	n/a	ISITrial	Loss
193.143	3.0	0.03	250.51	14.0	1	6.5	2.62	18.6236	955.0	1.68	Outcome2	5.25	6.5	0.0	No	2.0	1.25481313703284	1.031	194.174	n/a	GetAnswer	Gain
194.196	4.0	0.022	251.563	14.0	1	6.5	2.62	18.6236	955.0	1.68	Outcome2	5.25	6.5	0.0	No	n/a	1.25481313703284	n/a	n/a	n/a	ShowChoice	Gain
198.208	1.0	0.012	255.575	14.0	1	6.5	2.62	18.6236	955.0	1.68	Outcome2	5.25	6.5	0.0	No	n/a	1.25481313703284	n/a	n/a	n/a	ShowResult	Gain
199.228	5.019	0.02	256.595	14.0	1	6.5	2.62	18.6236	955.0	1.68	Outcome2	5.25	6.5	0.0	No	n/a	1.25481313703284	n/a	n/a	n/a	ISITrial	Gain
204.276	3.0	0.029	261.643	15.0	1	2.3	1.0	18.9111	955.0	2.0	Outcome2	1.01	2.3	3.3485	Yes	2.0	1.28539071347678	1.053	205.329	n/a	GetAnswer	Mixed
205.346	4.0	0.017	262.713	15.0	1	2.3	1.0	18.9111	955.0	2.0	Outcome2	1.01	2.3	3.3485	Yes	n/a	1.28539071347678	n/a	n/a	n/a	ShowChoice	Mixed
209.358	1.0	0.012	266.725	15.0	1	2.3	1.0	18.9111	955.0	2.0	Outcome2	1.01	2.3	3.3485	Yes	n/a	1.28539071347678	n/a	n/a	n/a	ShowResult	Mixed
210.378	7.614	0.02	267.745	15.0	1	2.3	1.0	18.9111	955.0	2.0	Outcome2	1.01	2.3	3.3485	Yes	n/a	1.28539071347678	n/a	n/a	n/a	ISITrial	Mixed
218.018	3.348	0.026	275.385	15.0	1	2.3	1.0	18.9111	955.0	2.0	Outcome2	1.01	2.3	3.3485	Yes	n/a	1.28539071347678	n/a	n/a	n/a	TrialHappPreview	Mixed
221.394	4.012	0.028	278.761	15.0	1	2.3	1.0	18.9111	955.0	2.0	Outcome2	1.01	2.3	3.3485	Yes	n/a	1.28539071347678	n/a	n/a	952.0	TrialHappiness	Mixed
221.395	1.749	n/a	279.059	15.0	1	2.3	1.0	18.9111	955.0	2.0	Outcome2	1.01	2.3	3.3485	Yes	n/a	1.28539071347678	n/a	n/a	952.0	TrialHappinessSliderResponse	Mixed
225.406	5.394	4.012	282.773	15.0	1	2.3	1.0	18.9111	955.0	2.0	Outcome2	1.01	2.3	3.3485	Yes	n/a	1.28539071347678	n/a	n/a	n/a	ISIRate	Mixed
230.822	3.0	0.022	288.189	16.0	1	2.7	2.0	19.2486	955.0	0.3	Outcome1	2.7	1.79	0.0	No	2.0	0.908267270668177	1.453	232.275	n/a	GetAnswer	Mixed
232.294	4.0	0.019	289.661	16.0	1	2.7	2.0	19.2486	955.0	0.3	Outcome1	2.7	1.79	0.0	No	n/a	0.908267270668177	n/a	n/a	n/a	ShowChoice	Mixed
236.305	1.0	0.011	293.672	16.0	1	2.7	2.0	19.2486	955.0	0.3	Outcome1	2.7	1.79	0.0	No	n/a	0.908267270668177	n/a	n/a	n/a	ShowResult	Mixed
237.325	3.008	0.02	294.692	16.0	1	2.7	2.0	19.2486	955.0	0.3	Outcome1	2.7	1.79	0.0	No	n/a	0.908267270668177	n/a	n/a	n/a	ISITrial	Mixed
240.351	3.0	0.018	297.718	17.0	1	12.7	5.9	20.8361	955.0	1.82	Outcome2	11.79	12.7	3.0415	Yes	2.0	0.911664779161948	1.117	241.468	n/a	GetAnswer	Loss
241.488	4.0	0.02	298.855	17.0	1	12.7	5.9	20.8361	955.0	1.82	Outcome2	11.79	12.7	3.0415	Yes	n/a	0.911664779161948	n/a	n/a	n/a	ShowChoice	Loss
245.5	1.0	0.012	302.867	17.0	1	12.7	5.9	20.8361	955.0	1.82	Outcome2	11.79	12.7	3.0415	Yes	n/a	0.911664779161948	n/a	n/a	n/a	ShowResult	Loss
246.519	3.566	0.019	303.886	17.0	1	12.7	5.9	20.8361	955.0	1.82	Outcome2	11.79	12.7	3.0415	Yes	n/a	0.911664779161948	n/a	n/a	n/a	ISITrial	Loss
250.097	3.042	0.012	307.464	17.0	1	12.7	5.9	20.8361	955.0	1.82	Outcome2	11.79	12.7	3.0415	Yes	n/a	0.911664779161948	n/a	n/a	n/a	TrialHappPreview	Loss
253.156	4.012	0.017	310.523	17.0	1	12.7	5.9	20.8361	955.0	1.82	Outcome2	11.79	12.7	3.0415	Yes	n/a	0.911664779161948	n/a	n/a	944.0	TrialHappiness	Loss
253.156	1.585	n/a	310.833	17.0	1	12.7	5.9	20.8361	955.0	1.82	Outcome2	11.79	12.7	3.0415	Yes	n/a	0.911664779161948	n/a	n/a	944.0	TrialHappinessSliderResponse	Loss
257.168	4.166	4.012	314.535	17.0	1	12.7	5.9	20.8361	955.0	1.82	Outcome2	11.79	12.7	3.0415	Yes	n/a	0.911664779161948	n/a	n/a	n/a	ISIRate	Loss
261.364	3.0	0.03	318.731	18.0	1	6.1	2.52	21.5986	955.0	4.2	Outcome1	6.1	5.05	0.0	No	2.0	1.05096262740657	0.947	262.311	n/a	GetAnswer	Gain
262.333	4.0	0.022	319.7	18.0	1	6.1	2.52	21.5986	955.0	4.2	Outcome1	6.1	5.05	0.0	No	n/a	1.05096262740657	n/a	n/a	n/a	ShowChoice	Gain
266.345	1.0	0.012	323.712	18.0	1	6.1	2.52	21.5986	955.0	4.2	Outcome1	6.1	5.05	0.0	No	n/a	1.05096262740657	n/a	n/a	n/a	ShowResult	Gain
267.365	6.787	0.02	324.732	18.0	1	6.1	2.52	21.5986	955.0	4.2	Outcome1	6.1	5.05	0.0	No	n/a	1.05096262740657	n/a	n/a	n/a	ISITrial	Gain
274.169	3.0	0.017	331.536	19.0	1	3.38	1.69	22.0211	955.0	0.82	Outcome2	3.5	3.38	0.0	No	2.0	-0.117685919214798	0.844	275.013	n/a	GetAnswer	Mixed
275.038	4.0	0.025	332.405	19.0	1	3.38	1.69	22.0211	955.0	0.82	Outcome2	3.5	3.38	0.0	No	n/a	-0.117685919214798	n/a	n/a	n/a	ShowChoice	Mixed
279.05	1.0	0.012	336.417	19.0	1	3.38	1.69	22.0211	955.0	0.82	Outcome2	3.5	3.38	0.0	No	n/a	-0.117685919214798	n/a	n/a	n/a	ShowResult	Mixed
280.07	2.0	0.02	337.437	19.0	1	3.38	1.69	22.0211	955.0	0.82	Outcome2	3.5	3.38	0.0	No	n/a	-0.117685919214798	n/a	n/a	n/a	ISITrial	Mixed
282.092	3.0	0.022	339.459	20.0	1	9.9	4.41	23.2586	955.0	3.6	Outcome1	9.9	8.82	2.92125	Yes	2.0	1.07587768969422	1.028	283.12	n/a	GetAnswer	Gain
283.145	4.0	0.025	340.512	20.0	1	9.9	4.41	23.2586	955.0	3.6	Outcome1	9.9	8.82	2.92125	Yes	n/a	1.07587768969422	n/a	n/a	n/a	ShowChoice	Gain
287.157	1.0	0.012	344.524	20.0	1	9.9	4.41	23.2586	955.0	3.6	Outcome1	9.9	8.82	2.92125	Yes	n/a	1.07587768969422	n/a	n/a	n/a	ShowResult	Gain
288.177	8.0	0.02	345.544	20.0	1	9.9	4.41	23.2586	955.0	3.6	Outcome1	9.9	8.82	2.92125	Yes	n/a	1.07587768969422	n/a	n/a	n/a	ISITrial	Gain
296.201	2.921	0.024	353.568	20.0	1	9.9	4.41	23.2586	955.0	3.6	Outcome1	9.9	8.82	2.92125	Yes	n/a	1.07587768969422	n/a	n/a	n/a	TrialHappPreview	Gain
299.143	4.012	0.021	356.51	20.0	1	9.9	4.41	23.2586	955.0	3.6	Outcome1	9.9	8.82	2.92125	Yes	n/a	1.07587768969422	n/a	n/a	932.0	TrialHappiness	Gain
299.144	2.002	n/a	357.035	20.0	1	9.9	4.41	23.2586	955.0	3.6	Outcome1	9.9	8.82	2.92125	Yes	n/a	1.07587768969422	n/a	n/a	932.0	TrialHappinessSliderResponse	Gain
303.155	3.685	4.012	360.522	20.0	1	9.9	4.41	23.2586	955.0	3.6	Outcome1	9.9	8.82	2.92125	Yes	n/a	1.07587768969422	n/a	n/a	n/a	ISIRate	Gain
306.866	3.0	0.026	364.233	21.0	1	5.3	2.0	23.9211	955.0	2.48	Outcome2	4.01	5.3	0.0	No	2.0	1.29218573046433	1.188	308.054	n/a	GetAnswer	Gain
308.07	4.0	0.016	365.437	21.0	1	5.3	2.0	23.9211	955.0	2.48	Outcome2	4.01	5.3	0.0	No	n/a	1.29218573046433	n/a	n/a	n/a	ShowChoice	Gain
312.082	1.0	0.012	369.449	21.0	1	5.3	2.0	23.9211	955.0	2.48	Outcome2	4.01	5.3	0.0	No	n/a	1.29218573046433	n/a	n/a	n/a	ShowResult	Gain
313.118	3.555	0.036	370.485	21.0	1	5.3	2.0	23.9211	955.0	2.48	Outcome2	4.01	5.3	0.0	No	n/a	1.29218573046433	n/a	n/a	n/a	ISITrial	Gain
316.696	3.0	0.023	374.063	22.0	1	12.5	5.59	25.4836	955.0	1.68	Outcome1	12.5	11.18	3.2195	Yes	2.0	1.31823329558324	0.884	317.58	n/a	GetAnswer	Loss
317.598	4.0	0.018	374.965	22.0	1	12.5	5.59	25.4836	955.0	1.68	Outcome1	12.5	11.18	3.2195	Yes	n/a	1.31823329558324	n/a	n/a	n/a	ShowChoice	Loss
321.61	1.0	0.012	378.977	22.0	1	12.5	5.59	25.4836	955.0	1.68	Outcome1	12.5	11.18	3.2195	Yes	n/a	1.31823329558324	n/a	n/a	n/a	ShowResult	Loss
322.63	6.793	0.02	379.997	22.0	1	12.5	5.59	25.4836	955.0	1.68	Outcome1	12.5	11.18	3.2195	Yes	n/a	1.31823329558324	n/a	n/a	n/a	ISITrial	Loss
329.434	3.22	0.011	386.801	22.0	1	12.5	5.59	25.4836	955.0	1.68	Outcome1	12.5	11.18	3.2195	Yes	n/a	1.31823329558324	n/a	n/a	n/a	TrialHappPreview	Loss
332.677	4.012	0.023	390.044	22.0	1	12.5	5.59	25.4836	955.0	1.68	Outcome1	12.5	11.18	3.2195	Yes	n/a	1.31823329558324	n/a	n/a	912.0	TrialHappiness	Loss
332.677	1.964	n/a	390.359	22.0	1	12.5	5.59	25.4836	955.0	1.68	Outcome1	12.5	11.18	3.2195	Yes	n/a	1.31823329558324	n/a	n/a	912.0	TrialHappinessSliderResponse	Loss
336.689	4.878	4.012	394.056	22.0	1	12.5	5.59	25.4836	955.0	1.68	Outcome1	12.5	11.18	3.2195	Yes	n/a	1.31823329558324	n/a	n/a	n/a	ISIRate	Loss
341.587	3.0	0.02	398.954	23.0	1	12.3	5.31	27.0211	955.0	5.0	Outcome1	12.3	10.62	0.0	No	2.0	1.68403171007928	0.847	342.434	n/a	GetAnswer	Loss
342.456	4.0	0.022	399.823	23.0	1	12.3	5.31	27.0211	955.0	5.0	Outcome1	12.3	10.62	0.0	No	n/a	1.68403171007928	n/a	n/a	n/a	ShowChoice	Loss
346.468	1.0	0.012	403.835	23.0	1	12.3	5.31	27.0211	955.0	5.0	Outcome1	12.3	10.62	0.0	No	n/a	1.68403171007928	n/a	n/a	n/a	ShowResult	Loss
347.488	8.0	0.02	404.855	23.0	1	12.3	5.31	27.0211	955.0	5.0	Outcome1	12.3	10.62	0.0	No	n/a	1.68403171007928	n/a	n/a	n/a	ISITrial	Loss
355.512	3.0	0.024	412.879	24.0	1	9.3	3.78	28.1836	955.0	2.48	Outcome2	7.57	9.3	3.255	Yes	2.0	1.7327293318233303	1.058	356.57	n/a	GetAnswer	Gain
356.581	4.0	0.011	413.948	24.0	1	9.3	3.78	28.1836	955.0	2.48	Outcome2	7.57	9.3	3.255	Yes	n/a	1.7327293318233303	n/a	n/a	n/a	ShowChoice	Gain
360.593	1.0	0.012	417.96	24.0	1	9.3	3.78	28.1836	955.0	2.48	Outcome2	7.57	9.3	3.255	Yes	n/a	1.7327293318233303	n/a	n/a	n/a	ShowResult	Gain
361.613	2.0	0.02	418.98	24.0	1	9.3	3.78	28.1836	955.0	2.48	Outcome2	7.57	9.3	3.255	Yes	n/a	1.7327293318233303	n/a	n/a	n/a	ISITrial	Gain
363.636	3.255	0.023	421.003	24.0	1	9.3	3.78	28.1836	955.0	2.48	Outcome2	7.57	9.3	3.255	Yes	n/a	1.7327293318233303	n/a	n/a	n/a	TrialHappPreview	Gain
366.912	4.012	0.021	424.279	24.0	1	9.3	3.78	28.1836	955.0	2.48	Outcome2	7.57	9.3	3.255	Yes	2{-2}	1.7327293318233303	1.811	368.723	912.0	TrialHappiness	Gain
366.913	0.982	n/a	425.109	24.0	1	9.3	3.78	28.1836	955.0	2.48	Outcome2	7.57	9.3	3.255	Yes	n/a	1.7327293318233303	n/a	n/a	912.0	TrialHappinessSliderResponse	Gain
370.924	5.02	4.012	428.291	24.0	1	9.3	3.78	28.1836	955.0	2.48	Outcome2	7.57	9.3	3.255	Yes	n/a	1.7327293318233303	n/a	n/a	n/a	ISIRate	Gain
375.973	3.0	0.029	433.34	25.0	1	8.04	4.02	29.1886	955.0	5.0	Outcome2	8.3	8.04	0.0	No	2.0	-0.262080030200076	1.025	376.998	n/a	GetAnswer	Gain
377.009	4.0	0.011	434.376	25.0	1	8.04	4.02	29.1886	955.0	5.0	Outcome2	8.3	8.04	0.0	No	n/a	-0.262080030200076	n/a	n/a	n/a	ShowChoice	Gain
381.021	1.0	0.012	438.388	25.0	1	8.04	4.02	29.1886	955.0	5.0	Outcome2	8.3	8.04	0.0	No	n/a	-0.262080030200076	n/a	n/a	n/a	ShowResult	Gain
382.041	3.749	0.02	439.408	25.0	1	8.04	4.02	29.1886	955.0	5.0	Outcome2	8.3	8.04	0.0	No	n/a	-0.262080030200076	n/a	n/a	n/a	ISITrial	Gain
385.819	3.0	0.029	443.186	26.0	1	6.7	2.44	30.0261	955.0	1.82	Outcome1	6.7	4.87	0.0	No	2.0	1.83012457531144	1.32	387.139	n/a	GetAnswer	Gain
387.156	4.0	0.017	444.523	26.0	1	6.7	2.44	30.0261	955.0	1.82	Outcome1	6.7	4.87	0.0	No	n/a	1.83012457531144	n/a	n/a	n/a	ShowChoice	Gain
391.168	1.0	0.012	448.535	26.0	1	6.7	2.44	30.0261	955.0	1.82	Outcome1	6.7	4.87	0.0	No	n/a	1.83012457531144	n/a	n/a	n/a	ShowResult	Gain
392.188	7.834	0.02	449.555	26.0	1	6.7	2.44	30.0261	955.0	1.82	Outcome1	6.7	4.87	0.0	No	n/a	1.83012457531144	n/a	n/a	n/a	ISITrial	Gain
400.044	3.0	0.022	457.411	27.0	1	-1.5	-2.0	29.8386	955.0	0.2	Outcome1	-1.5	-3.38	2.54975	Yes	2.0	1.87882219705549	1.957	402.001	n/a	GetAnswer	Mixed
402.017	4.0	0.016	459.384	27.0	1	-1.5	-2.0	29.8386	955.0	0.2	Outcome1	-1.5	-3.38	2.54975	Yes	n/a	1.87882219705549	n/a	n/a	n/a	ShowChoice	Mixed
406.029	1.0	0.012	463.396	27.0	1	-1.5	-2.0	29.8386	955.0	0.2	Outcome1	-1.5	-3.38	2.54975	Yes	n/a	1.87882219705549	n/a	n/a	n/a	ShowResult	Mixed
407.049	4.225	0.02	464.416	27.0	1	-1.5	-2.0	29.8386	955.0	0.2	Outcome1	-1.5	-3.38	2.54975	Yes	n/a	1.87882219705549	n/a	n/a	n/a	ISITrial	Mixed
411.295	2.55	0.021	468.662	27.0	1	-1.5	-2.0	29.8386	955.0	0.2	Outcome1	-1.5	-3.38	2.54975	Yes	n/a	1.87882219705549	n/a	n/a	n/a	TrialHappPreview	Mixed
413.869	4.012	0.024	471.236	27.0	1	-1.5	-2.0	29.8386	955.0	0.2	Outcome1	-1.5	-3.38	2.54975	Yes	2{-2}2{-2}	1.87882219705549	1.829	415.698	912.0	TrialHappiness	Mixed
413.87	1.49	n/a	471.576	27.0	1	-1.5	-2.0	29.8386	955.0	0.2	Outcome1	-1.5	-3.38	2.54975	Yes	n/a	1.87882219705549	n/a	n/a	912.0	TrialHappinessSliderResponse	Mixed
417.881	2.199	4.012	475.248	27.0	1	-1.5	-2.0	29.8386	955.0	0.2	Outcome1	-1.5	-3.38	2.54975	Yes	n/a	1.87882219705549	n/a	n/a	n/a	ISIRate	Mixed
453.923	1.652	n/a	511.769	n/a	1	n/a	n/a	n/a	n/a	n/a	n/a	n/a	n/a	n/a	n/a	n/a	n/a	n/a	n/a	912.0	BlockStartHappinessSliderResponse	n/a
-44.015	-0.001	0.024	477.471	n/a	2	n/a	n/a	n/a	n/a	n/a	n/a	n/a	n/a	n/a	n/a	{SPACE}	n/a	29.791	-14.224	n/a	Rest	n/a
-14.209	4.0	0.015	507.277	n/a	2	n/a	n/a	n/a	n/a	n/a	n/a	n/a	n/a	n/a	n/a	n/a	n/a	n/a	n/a	n/a	BlockHappyPreview	n/a
-10.197	2.131	0.012	511.289	n/a	2	n/a	n/a	n/a	n/a	n/a	n/a	n/a	n/a	n/a	n/a	n/a	n/a	n/a	n/a	912.0	BlockStartHappiness	n/a
-4.062	-0.001	0.019	517.424	n/a	2	n/a	n/a	n/a	n/a	n/a	n/a	n/a	n/a	n/a	n/a	5.0	n/a	4.042	-0.02	n/a	ScanWait	n/a
0.0	10.0	0.02	521.486	n/a	2	n/a	n/a	n/a	n/a	n/a	n/a	n/a	n/a	n/a	n/a	n/a	n/a	n/a	n/a	n/a	GetReady	n/a
10.013	3.0	0.013	531.499	28.0	2	-5.0	-5.0	29.2136	70.0	0.82	Certain	-12.82	1.5	0.0	No	4.0	-14.3197278911565	2.241	12.254	n/a	GetAnswer	Mixed
12.27	4.0	0.016	533.756	28.0	2	-5.0	-5.0	29.2136	70.0	0.82	Certain	-12.82	1.5	0.0	No	n/a	-14.3197278911565	n/a	n/a	n/a	ShowChoice	Mixed
16.282	1.0	0.012	537.768	28.0	2	-5.0	-5.0	29.2136	70.0	0.82	Certain	-12.82	1.5	0.0	No	n/a	-14.3197278911565	n/a	n/a	n/a	ShowResult	Mixed
17.302	3.575	0.02	538.788	28.0	2	-5.0	-5.0	29.2136	70.0	0.82	Certain	-12.82	1.5	0.0	No	n/a	-14.3197278911565	n/a	n/a	n/a	ISITrial	Mixed
20.896	3.0	0.019	542.382	29.0	2	2.58	1.0	29.5361	70.0	5.0	Outcome1	2.58	-0.92	3.529	Yes	2.0	3.5003779289493595	1.544	22.44	n/a	GetAnswer	Gain
22.451	4.0	0.011	543.937	29.0	2	2.58	1.0	29.5361	70.0	5.0	Outcome1	2.58	-0.92	3.529	Yes	n/a	3.5003779289493595	n/a	n/a	n/a	ShowChoice	Gain
26.463	1.0	0.012	547.949	29.0	2	2.58	1.0	29.5361	70.0	5.0	Outcome1	2.58	-0.92	3.529	Yes	n/a	3.5003779289493595	n/a	n/a	n/a	ShowResult	Gain
27.482	3.955	0.019	548.968	29.0	2	2.58	1.0	29.5361	70.0	5.0	Outcome1	2.58	-0.92	3.529	Yes	n/a	3.5003779289493595	n/a	n/a	n/a	ISITrial	Gain
31.461	3.529	0.024	552.947	29.0	2	2.58	1.0	29.5361	70.0	5.0	Outcome1	2.58	-0.92	3.529	Yes	n/a	3.5003779289493595	n/a	n/a	n/a	TrialHappPreview	Gain
35.005	4.012	0.015	556.491	29.0	2	2.58	1.0	29.5361	70.0	5.0	Outcome1	2.58	-0.92	3.529	Yes	n/a	3.5003779289493595	n/a	n/a	872.0	TrialHappiness	Gain
35.005	0.891	n/a	556.825	29.0	2	2.58	1.0	29.5361	70.0	5.0	Outcome1	2.58	-0.92	3.529	Yes	n/a	3.5003779289493595	n/a	n/a	872.0	TrialHappinessSliderResponse	Gain
39.017	6.116	4.012	560.503	29.0	2	2.58	1.0	29.5361	70.0	5.0	Outcome1	2.58	-0.92	3.529	Yes	n/a	3.5003779289493595	n/a	n/a	n/a	ISIRate	Gain
45.152	3.0	0.019	566.638	30.0	2	-4.05	-2.02	29.0299	70.0	2.8	Outcome2	11.5	-4.05	0.0	No	2.0	-15.548752834467098	1.707	46.859	n/a	GetAnswer	Loss
46.874	4.0	0.015	568.36	30.0	2	-4.05	-2.02	29.0299	70.0	2.8	Outcome2	11.5	-4.05	0.0	No	n/a	-15.548752834467098	n/a	n/a	n/a	ShowChoice	Loss
50.885	1.0	0.011	572.371	30.0	2	-4.05	-2.02	29.0299	70.0	2.8	Outcome2	11.5	-4.05	0.0	No	n/a	-15.548752834467098	n/a	n/a	n/a	ShowResult	Loss
51.905	4.453	0.02	573.391	30.0	2	-4.05	-2.02	29.0299	70.0	2.8	Outcome2	11.5	-4.05	0.0	No	n/a	-15.548752834467098	n/a	n/a	n/a	ISITrial	Loss
56.385	3.0	0.027	577.871	31.0	2	-8.76	0.0	27.9349	70.0	3.16	Outcome1	-8.76	7.7	2.50325	Yes	2.0	-16.4580498866213	1.52	57.905	n/a	GetAnswer	Gain
57.923	4.0	0.018	579.409	31.0	2	-8.76	0.0	27.9349	70.0	3.16	Outcome1	-8.76	7.7	2.50325	Yes	n/a	-16.4580498866213	n/a	n/a	n/a	ShowChoice	Gain
61.935	1.0	0.012	583.421	31.0	2	-8.76	0.0	27.9349	70.0	3.16	Outcome1	-8.76	7.7	2.50325	Yes	n/a	-16.4580498866213	n/a	n/a	n/a	ShowResult	Gain
62.955	4.786	0.02	584.441	31.0	2	-8.76	0.0	27.9349	70.0	3.16	Outcome1	-8.76	7.7	2.50325	Yes	n/a	-16.4580498866213	n/a	n/a	n/a	ISITrial	Gain
67.753	2.503	0.012	589.239	31.0	2	-8.76	0.0	27.9349	70.0	3.16	Outcome1	-8.76	7.7	2.50325	Yes	n/a	-16.4580498866213	n/a	n/a	n/a	TrialHappPreview	Gain
70.277	4.012	0.021	591.763	31.0	2	-8.76	0.0	27.9349	70.0	3.16	Outcome1	-8.76	7.7	2.50325	Yes	2{-2}	-16.4580498866213	1.309	71.586	912.0	TrialHappiness	Gain
70.277	0.976	n/a	592.096	31.0	2	-8.76	0.0	27.9349	70.0	3.16	Outcome1	-8.76	7.7	2.50325	Yes	n/a	-16.4580498866213	n/a	n/a	912.0	TrialHappinessSliderResponse	Gain
74.289	2.013	4.012	595.775	31.0	2	-8.76	0.0	27.9349	70.0	3.16	Outcome1	-8.76	7.7	2.50325	Yes	n/a	-16.4580498866213	n/a	n/a	n/a	ISIRate	Gain
76.328	3.0	0.026	597.814	32.0	2	-5.15	-2.58	27.2911	70.0	2.0	Outcome2	12.9	-5.15	0.0	No	2.0	-18.047619047619	1.793	78.121	n/a	GetAnswer	Loss
78.134	4.0	0.013	599.62	32.0	2	-5.15	-2.58	27.2911	70.0	2.0	Outcome2	12.9	-5.15	0.0	No	n/a	-18.047619047619	n/a	n/a	n/a	ShowChoice	Loss
82.146	1.0	0.012	603.632	32.0	2	-5.15	-2.58	27.2911	70.0	2.0	Outcome2	12.9	-5.15	0.0	No	n/a	-18.047619047619	n/a	n/a	n/a	ShowResult	Loss
83.165	2.0	0.019	604.651	32.0	2	-5.15	-2.58	27.2911	70.0	2.0	Outcome2	12.9	-5.15	0.0	No	n/a	-18.047619047619	n/a	n/a	n/a	ISITrial	Loss
85.188	3.0	0.023	606.674	33.0	2	-0.22	-2.0	27.2636	70.0	0.52	Outcome1	-0.22	-4.03	0.0	No	2.0	3.81103552532124	1.604	86.792	n/a	GetAnswer	Mixed
86.809	4.0	0.017	608.295	33.0	2	-0.22	-2.0	27.2636	70.0	0.52	Outcome1	-0.22	-4.03	0.0	No	n/a	3.81103552532124	n/a	n/a	n/a	ShowChoice	Mixed
90.821	1.0	0.012	612.307	33.0	2	-0.22	-2.0	27.2636	70.0	0.52	Outcome1	-0.22	-4.03	0.0	No	n/a	3.81103552532124	n/a	n/a	n/a	ShowResult	Mixed
91.841	5.099	0.02	613.327	33.0	2	-0.22	-2.0	27.2636	70.0	0.52	Outcome1	-0.22	-4.03	0.0	No	n/a	3.81103552532124	n/a	n/a	n/a	ISITrial	Mixed
96.956	3.0	0.016	618.442	34.0	2	-14.86	-5.0	25.4061	70.0	2.22	Outcome1	-14.86	5.1	3.2315	Yes	2.0	-19.9569160997732	1.313	98.269	n/a	GetAnswer	Gain
98.294	4.0	0.025	619.78	34.0	2	-14.86	-5.0	25.4061	70.0	2.22	Outcome1	-14.86	5.1	3.2315	Yes	n/a	-19.9569160997732	n/a	n/a	n/a	ShowChoice	Gain
102.306	1.0	0.012	623.792	34.0	2	-14.86	-5.0	25.4061	70.0	2.22	Outcome1	-14.86	5.1	3.2315	Yes	n/a	-19.9569160997732	n/a	n/a	n/a	ShowResult	Gain
103.325	4.784	0.019	624.811	34.0	2	-14.86	-5.0	25.4061	70.0	2.22	Outcome1	-14.86	5.1	3.2315	Yes	n/a	-19.9569160997732	n/a	n/a	n/a	ISITrial	Gain
108.123	3.232	0.014	629.609	34.0	2	-14.86	-5.0	25.4061	70.0	2.22	Outcome1	-14.86	5.1	3.2315	Yes	n/a	-19.9569160997732	n/a	n/a	n/a	TrialHappPreview	Gain
111.383	4.012	0.028	632.869	34.0	2	-14.86	-5.0	25.4061	70.0	2.22	Outcome1	-14.86	5.1	3.2315	Yes	n/a	-19.9569160997732	n/a	n/a	896.0	TrialHappiness	Gain
111.384	0.941	n/a	633.539	34.0	2	-14.86	-5.0	25.4061	70.0	2.22	Outcome1	-14.86	5.1	3.2315	Yes	n/a	-19.9569160997732	n/a	n/a	896.0	TrialHappinessSliderResponse	Gain
115.395	4.926	4.012	636.881	34.0	2	-14.86	-5.0	25.4061	70.0	2.22	Outcome1	-14.86	5.1	3.2315	Yes	n/a	-19.9569160997732	n/a	n/a	n/a	ISIRate	Gain
120.343	3.0	0.022	641.829	35.0	2	0.48	-1.0	25.4661	70.0	1.2	Outcome2	-3.43	0.48	0.0	No	2.0	3.90513983371126	1.297	121.64	n/a	GetAnswer	Mixed
121.664	4.0	0.024	643.15	35.0	2	0.48	-1.0	25.4661	70.0	1.2	Outcome2	-3.43	0.48	0.0	No	n/a	3.90513983371126	n/a	n/a	n/a	ShowChoice	Mixed
125.676	1.0	0.012	647.162	35.0	2	0.48	-1.0	25.4661	70.0	1.2	Outcome2	-3.43	0.48	0.0	No	n/a	3.90513983371126	n/a	n/a	n/a	ShowResult	Mixed
126.695	2.098	0.019	648.181	35.0	2	0.48	-1.0	25.4661	70.0	1.2	Outcome2	-3.43	0.48	0.0	No	n/a	3.90513983371126	n/a	n/a	n/a	ISITrial	Mixed
128.818	3.0	0.025	650.304	36.0	2	-3.0	-3.0	25.0911	70.0	2.48	Certain	-14.28	7.3	3.33575	Yes	4.0	-21.575963718820898	2.263	131.081	n/a	GetAnswer	Gain
131.092	4.0	0.011	652.578	36.0	2	-3.0	-3.0	25.0911	70.0	2.48	Certain	-14.28	7.3	3.33575	Yes	n/a	-21.575963718820898	n/a	n/a	n/a	ShowChoice	Gain
135.104	1.0	0.012	656.59	36.0	2	-3.0	-3.0	25.0911	70.0	2.48	Certain	-14.28	7.3	3.33575	Yes	n/a	-21.575963718820898	n/a	n/a	n/a	ShowResult	Gain
136.123	5.156	0.019	657.609	36.0	2	-3.0	-3.0	25.0911	70.0	2.48	Certain	-14.28	7.3	3.33575	Yes	n/a	-21.575963718820898	n/a	n/a	n/a	ISITrial	Gain
141.289	3.336	0.01	662.775	36.0	2	-3.0	-3.0	25.0911	70.0	2.48	Certain	-14.28	7.3	3.33575	Yes	n/a	-21.575963718820898	n/a	n/a	n/a	TrialHappPreview	Gain
144.649	4.012	0.024	666.135	36.0	2	-3.0	-3.0	25.0911	70.0	2.48	Certain	-14.28	7.3	3.33575	Yes	n/a	-21.575963718820898	n/a	n/a	864.0	TrialHappiness	Gain
144.65	2.553	n/a	667.133	36.0	2	-3.0	-3.0	25.0911	70.0	2.48	Certain	-14.28	7.3	3.33575	Yes	n/a	-21.575963718820898	n/a	n/a	864.0	TrialHappinessSliderResponse	Gain
148.661	5.343	4.012	670.147	36.0	2	-3.0	-3.0	25.0911	70.0	2.48	Certain	-14.28	7.3	3.33575	Yes	n/a	-21.575963718820898	n/a	n/a	n/a	ISIRate	Gain
154.027	3.0	0.023	675.513	37.0	2	2.92	1.0	25.4561	70.0	3.16	Outcome2	-1.01	2.92	0.0	No	2.0	3.9312169312169294	2.149	156.176	n/a	GetAnswer	Loss
156.2	4.0	0.024	677.686	37.0	2	2.92	1.0	25.4561	70.0	3.16	Outcome2	-1.01	2.92	0.0	No	n/a	3.9312169312169294	n/a	n/a	n/a	ShowChoice	Loss
160.212	1.0	0.012	681.698	37.0	2	2.92	1.0	25.4561	70.0	3.16	Outcome2	-1.01	2.92	0.0	No	n/a	3.9312169312169294	n/a	n/a	n/a	ShowResult	Loss
161.232	3.598	0.02	682.718	37.0	2	2.92	1.0	25.4561	70.0	3.16	Outcome2	-1.01	2.92	0.0	No	n/a	3.9312169312169294	n/a	n/a	n/a	ISITrial	Loss
164.859	3.0	0.029	686.345	38.0	2	-18.97	-7.0	23.0848	70.0	1.2	Outcome1	-18.97	3.9	0.0	No	2.0	-22.8684807256236	2.526	167.385	n/a	GetAnswer	Mixed
167.4	4.0	0.015	688.886	38.0	2	-18.97	-7.0	23.0848	70.0	1.2	Outcome1	-18.97	3.9	0.0	No	n/a	-22.8684807256236	n/a	n/a	n/a	ShowChoice	Mixed
171.412	1.0	0.012	692.898	38.0	2	-18.97	-7.0	23.0848	70.0	1.2	Outcome1	-18.97	3.9	0.0	No	n/a	-22.8684807256236	n/a	n/a	n/a	ShowResult	Mixed
172.432	4.787	0.02	693.918	38.0	2	-18.97	-7.0	23.0848	70.0	1.2	Outcome1	-18.97	3.9	0.0	No	n/a	-22.8684807256236	n/a	n/a	n/a	ISITrial	Mixed
177.246	3.0	0.027	698.732	39.0	2	-15.87	-4.0	21.101	70.0	3.6	Outcome2	7.9	-15.87	2.86425	Yes	2.0	-23.7687074829932	1.443	178.689	n/a	GetAnswer	Gain
178.717	4.0	0.028	700.203	39.0	2	-15.87	-4.0	21.101	70.0	3.6	Outcome2	7.9	-15.87	2.86425	Yes	n/a	-23.7687074829932	n/a	n/a	n/a	ShowChoice	Gain
182.729	1.0	0.012	704.215	39.0	2	-15.87	-4.0	21.101	70.0	3.6	Outcome2	7.9	-15.87	2.86425	Yes	n/a	-23.7687074829932	n/a	n/a	n/a	ShowResult	Gain
183.749	2.348	0.02	705.235	39.0	2	-15.87	-4.0	21.101	70.0	3.6	Outcome2	7.9	-15.87	2.86425	Yes	n/a	-23.7687074829932	n/a	n/a	n/a	ISITrial	Gain
186.123	2.864	0.026	707.609	39.0	2	-15.87	-4.0	21.101	70.0	3.6	Outcome2	7.9	-15.87	2.86425	Yes	n/a	-23.7687074829932	n/a	n/a	n/a	TrialHappPreview	Gain
189.015	4.012	0.028	710.501	39.0	2	-15.87	-4.0	21.101	70.0	3.6	Outcome2	7.9	-15.87	2.86425	Yes	n/a	-23.7687074829932	n/a	n/a	912.0	TrialHappiness	Gain
189.015	0.985	n/a	710.891	39.0	2	-15.87	-4.0	21.101	70.0	3.6	Outcome2	7.9	-15.87	2.86425	Yes	n/a	-23.7687074829932	n/a	n/a	912.0	TrialHappinessSliderResponse	Gain
193.027	3.457	4.012	714.513	39.0	2	-15.87	-4.0	21.101	70.0	3.6	Outcome2	7.9	-15.87	2.86425	Yes	n/a	-23.7687074829932	n/a	n/a	n/a	ISIRate	Gain
196.504	3.0	0.02	717.99	40.0	2	-19.19	-6.0	18.7022	70.0	5.0	Outcome1	-19.19	6.3	0.0	No	2.0	-25.485260770975103	1.606	198.11	n/a	GetAnswer	Gain
198.125	4.0	0.015	719.611	40.0	2	-19.19	-6.0	18.7022	70.0	5.0	Outcome1	-19.19	6.3	0.0	No	n/a	-25.485260770975103	n/a	n/a	n/a	ShowChoice	Gain
202.137	1.0	0.012	723.623	40.0	2	-19.19	-6.0	18.7022	70.0	5.0	Outcome1	-19.19	6.3	0.0	No	n/a	-25.485260770975103	n/a	n/a	n/a	ShowResult	Gain
203.157	3.158	0.02	724.643	40.0	2	-19.19	-6.0	18.7022	70.0	5.0	Outcome1	-19.19	6.3	0.0	No	n/a	-25.485260770975103	n/a	n/a	n/a	ISITrial	Gain
206.333	3.0	0.018	727.819	41.0	2	-13.0	-13.0	17.0772	70.0	1.5	Certain	0.1	-26.34	4.0	Yes	4.0	-26.4399092970522	2.091	208.424	n/a	GetAnswer	Mixed
208.439	4.0	0.015	729.925	41.0	2	-13.0	-13.0	17.0772	70.0	1.5	Certain	0.1	-26.34	4.0	Yes	n/a	-26.4399092970522	n/a	n/a	n/a	ShowChoice	Mixed
212.451	1.0	0.012	733.937	41.0	2	-13.0	-13.0	17.0772	70.0	1.5	Certain	0.1	-26.34	4.0	Yes	n/a	-26.4399092970522	n/a	n/a	n/a	ShowResult	Mixed
213.471	4.506	0.02	734.957	41.0	2	-13.0	-13.0	17.0772	70.0	1.5	Certain	0.1	-26.34	4.0	Yes	n/a	-26.4399092970522	n/a	n/a	n/a	ISITrial	Mixed
218.001	4.0	0.024	739.487	41.0	2	-13.0	-13.0	17.0772	70.0	1.5	Certain	0.1	-26.34	4.0	Yes	n/a	-26.4399092970522	n/a	n/a	n/a	TrialHappPreview	Mixed
222.03	4.012	0.029	743.516	41.0	2	-13.0	-13.0	17.0772	70.0	1.5	Certain	0.1	-26.34	4.0	Yes	n/a	-26.4399092970522	n/a	n/a	888.0	TrialHappiness	Mixed
222.031	1.689	n/a	743.857	41.0	2	-13.0	-13.0	17.0772	70.0	1.5	Certain	0.1	-26.34	4.0	Yes	n/a	-26.4399092970522	n/a	n/a	888.0	TrialHappinessSliderResponse	Mixed
226.042	8.0	4.012	747.528	41.0	2	-13.0	-13.0	17.0772	70.0	1.5	Certain	0.1	-26.34	4.0	Yes	n/a	-26.4399092970522	n/a	n/a	n/a	ISIRate	Mixed
234.066	3.0	0.024	755.552	42.0	2	0.92	-1.0	17.1922	70.0	1.0	Outcome1	0.92	-3.49	0.0	No	2.0	4.41288737717309	1.237	235.303	n/a	GetAnswer	Mixed
235.32	4.0	0.017	756.806	42.0	2	0.92	-1.0	17.1922	70.0	1.0	Outcome1	0.92	-3.49	0.0	No	n/a	4.41288737717309	n/a	n/a	n/a	ShowChoice	Mixed
239.332	1.0	0.012	760.818	42.0	2	0.92	-1.0	17.1922	70.0	1.0	Outcome1	0.92	-3.49	0.0	No	n/a	4.41288737717309	n/a	n/a	n/a	ShowResult	Mixed
240.351	6.248	0.019	761.837	42.0	2	0.92	-1.0	17.1922	70.0	1.0	Outcome1	0.92	-3.49	0.0	No	n/a	4.41288737717309	n/a	n/a	n/a	ISITrial	Mixed
246.62	3.0	0.021	768.106	43.0	2	-2.0	-2.0	16.9422	70.0	0.3	Certain	-4.31	0.18	2.77575	Yes	4.0	4.4901738473167	1.558	248.178	n/a	GetAnswer	Mixed
248.191	4.0	0.013	769.677	43.0	2	-2.0	-2.0	16.9422	70.0	0.3	Certain	-4.31	0.18	2.77575	Yes	n/a	4.4901738473167	n/a	n/a	n/a	ShowChoice	Mixed
252.203	1.0	0.012	773.689	43.0	2	-2.0	-2.0	16.9422	70.0	0.3	Certain	-4.31	0.18	2.77575	Yes	n/a	4.4901738473167	n/a	n/a	n/a	ShowResult	Mixed
253.223	4.596	0.02	774.709	43.0	2	-2.0	-2.0	16.9422	70.0	0.3	Certain	-4.31	0.18	2.77575	Yes	n/a	4.4901738473167	n/a	n/a	n/a	ISITrial	Mixed
257.837	2.776	0.018	779.323	43.0	2	-2.0	-2.0	16.9422	70.0	0.3	Certain	-4.31	0.18	2.77575	Yes	n/a	4.4901738473167	n/a	n/a	n/a	TrialHappPreview	Mixed
260.629	4.012	0.016	782.115	43.0	2	-2.0	-2.0	16.9422	70.0	0.3	Certain	-4.31	0.18	2.77575	Yes	n/a	4.4901738473167	n/a	n/a	848.0	TrialHappiness	Mixed
260.629	0.845	n/a	783.197	43.0	2	-2.0	-2.0	16.9422	70.0	0.3	Certain	-4.31	0.18	2.77575	Yes	n/a	4.4901738473167	n/a	n/a	848.0	TrialHappinessSliderResponse	Mixed
264.641	3.103	4.012	786.127	43.0	2	-2.0	-2.0	16.9422	70.0	0.3	Certain	-4.31	0.18	2.77575	Yes	n/a	4.4901738473167	n/a	n/a	n/a	ISIRate	Mixed
267.767	3.0	0.023	789.253	44.0	2	-21.06	-7.0	14.3097	70.0	2.22	Outcome2	7.1	-21.06	0.0	No	2.0	-28.1609977324263	1.096	268.863	n/a	GetAnswer	Gain
268.887	4.0	0.024	790.373	44.0	2	-21.06	-7.0	14.3097	70.0	2.22	Outcome2	7.1	-21.06	0.0	No	n/a	-28.1609977324263	n/a	n/a	n/a	ShowChoice	Gain
272.899	1.0	0.012	794.385	44.0	2	-21.06	-7.0	14.3097	70.0	2.22	Outcome2	7.1	-21.06	0.0	No	n/a	-28.1609977324263	n/a	n/a	n/a	ShowResult	Gain
273.918	2.42	0.019	795.404	44.0	2	-21.06	-7.0	14.3097	70.0	2.22	Outcome2	7.1	-21.06	0.0	No	n/a	-28.1609977324263	n/a	n/a	n/a	ISITrial	Gain
276.359	3.0	0.021	797.845	45.0	2	1.42	-1.0	14.4872	70.0	3.16	Outcome1	1.42	-3.06	0.0	No	2.0	4.47845804988662	1.241	277.6	n/a	GetAnswer	Gain
277.613	4.0	0.013	799.099	45.0	2	1.42	-1.0	14.4872	70.0	3.16	Outcome1	1.42	-3.06	0.0	No	n/a	4.47845804988662	n/a	n/a	n/a	ShowChoice	Gain
281.625	1.0	0.012	803.111	45.0	2	1.42	-1.0	14.4872	70.0	3.16	Outcome1	1.42	-3.06	0.0	No	n/a	4.47845804988662	n/a	n/a	n/a	ShowResult	Gain
282.644	3.144	0.019	804.13	45.0	2	1.42	-1.0	14.4872	70.0	3.16	Outcome1	1.42	-3.06	0.0	No	n/a	4.47845804988662	n/a	n/a	n/a	ISITrial	Gain
285.804	3.0	0.016	807.29	46.0	2	-2.0	-2.0	14.2372	70.0	0.52	Certain	0.28	-4.27	3.84125	Yes	4.0	4.55196523053666	1.546	287.35	n/a	GetAnswer	Mixed
287.375	4.0	0.025	808.861	46.0	2	-2.0	-2.0	14.2372	70.0	0.52	Certain	0.28	-4.27	3.84125	Yes	n/a	4.55196523053666	n/a	n/a	n/a	ShowChoice	Mixed
291.387	1.0	0.012	812.873	46.0	2	-2.0	-2.0	14.2372	70.0	0.52	Certain	0.28	-4.27	3.84125	Yes	n/a	4.55196523053666	n/a	n/a	n/a	ShowResult	Mixed
292.407	2.246	0.02	813.893	46.0	2	-2.0	-2.0	14.2372	70.0	0.52	Certain	0.28	-4.27	3.84125	Yes	n/a	4.55196523053666	n/a	n/a	n/a	ISITrial	Mixed
294.68	3.841	0.027	816.166	46.0	2	-2.0	-2.0	14.2372	70.0	0.52	Certain	0.28	-4.27	3.84125	Yes	n/a	4.55196523053666	n/a	n/a	n/a	TrialHappPreview	Mixed
298.542	4.012	0.021	820.028	46.0	2	-2.0	-2.0	14.2372	70.0	0.52	Certain	0.28	-4.27	3.84125	Yes	n/a	4.55196523053666	n/a	n/a	872.0	TrialHappiness	Mixed
298.542	1.424	n/a	820.532	46.0	2	-2.0	-2.0	14.2372	70.0	0.52	Certain	0.28	-4.27	3.84125	Yes	n/a	4.55196523053666	n/a	n/a	872.0	TrialHappinessSliderResponse	Mixed
302.554	7.365	4.012	824.04	46.0	2	-2.0	-2.0	14.2372	70.0	0.52	Certain	0.28	-4.27	3.84125	Yes	n/a	4.55196523053666	n/a	n/a	n/a	ISIRate	Mixed
309.942	3.0	0.023	831.428	47.0	2	-1.0	-1.0	14.1122	70.0	0.4	Certain	0.72	-4.0	0.0	No	4.0	4.7229780801209404	1.719	311.661	n/a	GetAnswer	Mixed
311.681	4.0	0.02	833.167	47.0	2	-1.0	-1.0	14.1122	70.0	0.4	Certain	0.72	-4.0	0.0	No	n/a	4.7229780801209404	n/a	n/a	n/a	ShowChoice	Mixed
315.693	1.0	0.012	837.179	47.0	2	-1.0	-1.0	14.1122	70.0	0.4	Certain	0.72	-4.0	0.0	No	n/a	4.7229780801209404	n/a	n/a	n/a	ShowResult	Mixed
316.713	2.0	0.02	838.199	47.0	2	-1.0	-1.0	14.1122	70.0	0.4	Certain	0.72	-4.0	0.0	No	n/a	4.7229780801209404	n/a	n/a	n/a	ISITrial	Mixed
318.735	3.0	0.022	840.221	48.0	2	-24.62	-8.0	11.0347	70.0	2.8	Outcome1	-24.62	7.5	2.83175	Yes	2.0	-32.124716553288	1.592	320.327	n/a	GetAnswer	Gain
320.34	4.0	0.013	841.826	48.0	2	-24.62	-8.0	11.0347	70.0	2.8	Outcome1	-24.62	7.5	2.83175	Yes	n/a	-32.124716553288	n/a	n/a	n/a	ShowChoice	Gain
324.352	1.0	0.012	845.838	48.0	2	-24.62	-8.0	11.0347	70.0	2.8	Outcome1	-24.62	7.5	2.83175	Yes	n/a	-32.124716553288	n/a	n/a	n/a	ShowResult	Gain
325.372	3.692	0.02	846.858	48.0	2	-24.62	-8.0	11.0347	70.0	2.8	Outcome1	-24.62	7.5	2.83175	Yes	n/a	-32.124716553288	n/a	n/a	n/a	ISITrial	Gain
329.083	2.832	0.019	850.569	48.0	2	-24.62	-8.0	11.0347	70.0	2.8	Outcome1	-24.62	7.5	2.83175	Yes	n/a	-32.124716553288	n/a	n/a	n/a	TrialHappPreview	Gain
331.942	4.012	0.027	853.428	48.0	2	-24.62	-8.0	11.0347	70.0	2.8	Outcome1	-24.62	7.5	2.83175	Yes	n/a	-32.124716553288	n/a	n/a	904.0	TrialHappiness	Gain
331.942	1.364	n/a	854.911	48.0	2	-24.62	-8.0	11.0347	70.0	2.8	Outcome1	-24.62	7.5	2.83175	Yes	n/a	-32.124716553288	n/a	n/a	904.0	TrialHappinessSliderResponse	Gain
335.954	3.327	4.012	857.44	48.0	2	-24.62	-8.0	11.0347	70.0	2.8	Outcome1	-24.62	7.5	2.83175	Yes	n/a	-32.124716553288	n/a	n/a	n/a	ISIRate	Gain
339.297	3.0	0.016	860.783	49.0	2	-5.0	-5.0	10.4097	70.0	3.6	Certain	-21.68	11.9	0.0	No	4.0	-33.578231292517	1.827	341.124	n/a	GetAnswer	Loss
341.136	4.0	0.012	862.622	49.0	2	-5.0	-5.0	10.4097	70.0	3.6	Certain	-21.68	11.9	0.0	No	n/a	-33.578231292517	n/a	n/a	n/a	ShowChoice	Loss
345.148	1.0	0.012	866.634	49.0	2	-5.0	-5.0	10.4097	70.0	3.6	Certain	-21.68	11.9	0.0	No	n/a	-33.578231292517	n/a	n/a	n/a	ShowResult	Loss
346.167	8.0	0.019	867.653	49.0	2	-5.0	-5.0	10.4097	70.0	3.6	Certain	-21.68	11.9	0.0	No	n/a	-33.578231292517	n/a	n/a	n/a	ISITrial	Loss
354.191	3.0	0.024	875.677	50.0	2	-34.62	-17.0	6.0822	70.0	1.2	Outcome2	-0.1	-34.62	3.54725	Yes	2.0	-34.5238095238095	2.054	356.245	n/a	GetAnswer	Mixed
356.264	4.0	0.019	877.75	50.0	2	-34.62	-17.0	6.0822	70.0	1.2	Outcome2	-0.1	-34.62	3.54725	Yes	n/a	-34.5238095238095	n/a	n/a	n/a	ShowChoice	Mixed
360.276	1.0	0.012	881.762	50.0	2	-34.62	-17.0	6.0822	70.0	1.2	Outcome2	-0.1	-34.62	3.54725	Yes	n/a	-34.5238095238095	n/a	n/a	n/a	ShowResult	Mixed
361.296	7.537	0.02	882.782	50.0	2	-34.62	-17.0	6.0822	70.0	1.2	Outcome2	-0.1	-34.62	3.54725	Yes	n/a	-34.5238095238095	n/a	n/a	n/a	ISITrial	Mixed
368.852	3.547	0.019	890.338	50.0	2	-34.62	-17.0	6.0822	70.0	1.2	Outcome2	-0.1	-34.62	3.54725	Yes	n/a	-34.5238095238095	n/a	n/a	n/a	TrialHappPreview	Mixed
372.412	4.012	0.013	893.898	50.0	2	-34.62	-17.0	6.0822	70.0	1.2	Outcome2	-0.1	-34.62	3.54725	Yes	2{-2}	-34.5238095238095	1.71	374.122	904.0	TrialHappiness	Mixed
372.413	0.964	n/a	894.645	50.0	2	-34.62	-17.0	6.0822	70.0	1.2	Outcome2	-0.1	-34.62	3.54725	Yes	n/a	-34.5238095238095	n/a	n/a	904.0	TrialHappinessSliderResponse	Mixed
376.424	6.189	4.012	897.91	50.0	2	-34.62	-17.0	6.0822	70.0	1.2	Outcome2	-0.1	-34.62	3.54725	Yes	n/a	-34.5238095238095	n/a	n/a	n/a	ISIRate	Mixed
382.643	3.0	0.03	904.129	51.0	2	-32.17	-14.0	2.061	70.0	0.66	Outcome1	-32.17	3.3	0.0	No	2.0	-35.469387755102	2.175	384.818	n/a	GetAnswer	Mixed
384.833	4.0	0.015	906.319	51.0	2	-32.17	-14.0	2.061	70.0	0.66	Outcome1	-32.17	3.3	0.0	No	n/a	-35.469387755102	n/a	n/a	n/a	ShowChoice	Mixed
388.845	1.0	0.012	910.331	51.0	2	-32.17	-14.0	2.061	70.0	0.66	Outcome1	-32.17	3.3	0.0	No	n/a	-35.469387755102	n/a	n/a	n/a	ShowResult	Mixed
389.865	5.508	0.02	911.351	51.0	2	-32.17	-14.0	2.061	70.0	0.66	Outcome1	-32.17	3.3	0.0	No	n/a	-35.469387755102	n/a	n/a	n/a	ISITrial	Mixed
395.398	3.0	0.025	916.884	52.0	2	-18.0	-18.0	-0.1889999999999999	70.0	0.82	Certain	-0.5	-36.92	0.0	No	4.0	-36.4149659863946	2.228	397.626	n/a	GetAnswer	Mixed
397.638	4.0	0.012	919.124	52.0	2	-18.0	-18.0	-0.1889999999999999	70.0	0.82	Certain	-0.5	-36.92	0.0	No	n/a	-36.4149659863946	n/a	n/a	n/a	ShowChoice	Mixed
401.65	1.0	0.012	923.136	52.0	2	-18.0	-18.0	-0.1889999999999999	70.0	0.82	Certain	-0.5	-36.92	0.0	No	n/a	-36.4149659863946	n/a	n/a	n/a	ShowResult	Mixed
402.669	5.913	0.019	924.155	52.0	2	-18.0	-18.0	-0.1889999999999999	70.0	0.82	Certain	-0.5	-36.92	0.0	No	n/a	-36.4149659863946	n/a	n/a	n/a	ISITrial	Mixed
408.604	3.0	0.022	930.09	53.0	2	-7.0	-7.0	-1.064	70.0	2.48	Certain	11.3	-26.06	2.99675	Yes	4.0	-37.3605442176871	2.417	411.021	n/a	GetAnswer	Loss
411.044	4.0	0.023	932.53	53.0	2	-7.0	-7.0	-1.064	70.0	2.48	Certain	11.3	-26.06	2.99675	Yes	n/a	-37.3605442176871	n/a	n/a	n/a	ShowChoice	Loss
415.056	1.0	0.012	936.542	53.0	2	-7.0	-7.0	-1.064	70.0	2.48	Certain	11.3	-26.06	2.99675	Yes	n/a	-37.3605442176871	n/a	n/a	n/a	ShowResult	Loss
416.076	3.66	0.02	937.562	53.0	2	-7.0	-7.0	-1.064	70.0	2.48	Certain	11.3	-26.06	2.99675	Yes	n/a	-37.3605442176871	n/a	n/a	n/a	ISITrial	Loss
419.754	2.997	0.018	941.24	53.0	2	-7.0	-7.0	-1.064	70.0	2.48	Certain	11.3	-26.06	2.99675	Yes	n/a	-37.3605442176871	n/a	n/a	n/a	TrialHappPreview	Loss
422.779	4.012	0.028	944.265	53.0	2	-7.0	-7.0	-1.064	70.0	2.48	Certain	11.3	-26.06	2.99675	Yes	n/a	-37.3605442176871	n/a	n/a	864.0	TrialHappiness	Loss
422.78	1.379	n/a	944.766	53.0	2	-7.0	-7.0	-1.064	70.0	2.48	Certain	11.3	-26.06	2.99675	Yes	n/a	-37.3605442176871	n/a	n/a	864.0	TrialHappinessSliderResponse	Loss
426.791	3.987	4.012	948.277	53.0	2	-7.0	-7.0	-1.064	70.0	2.48	Certain	11.3	-26.06	2.99675	Yes	n/a	-37.3605442176871	n/a	n/a	n/a	ISIRate	Loss
430.803	3.0	0.025	952.289	54.0	2	-24.53	-5.0	-4.1302	70.0	2.22	Outcome1	-24.53	13.1	0.0	No	2.0	-37.6258503401361	1.615	432.418	n/a	GetAnswer	Loss
432.442	4.0	0.024	953.928	54.0	2	-24.53	-5.0	-4.1302	70.0	2.22	Outcome1	-24.53	13.1	0.0	No	n/a	-37.6258503401361	n/a	n/a	n/a	ShowChoice	Loss
436.454	1.0	0.012	957.94	54.0	2	-24.53	-5.0	-4.1302	70.0	2.22	Outcome1	-24.53	13.1	0.0	No	n/a	-37.6258503401361	n/a	n/a	n/a	ShowResult	Loss
437.473	8.0	0.019	958.959	54.0	2	-24.53	-5.0	-4.1302	70.0	2.22	Outcome1	-24.53	13.1	0.0	No	n/a	-37.6258503401361	n/a	n/a	n/a	ISITrial	Loss
480.887	1.34	n/a	1003.029	n/a	2	n/a	n/a	n/a	n/a	n/a	n/a	n/a	n/a	n/a	n/a	n/a	n/a	n/a	n/a	904.0	BlockStartHappinessSliderResponse	n/a
-43.798	-0.001	0.024	966.983	n/a	3	n/a	n/a	n/a	n/a	n/a	n/a	n/a	n/a	n/a	n/a	{SPACE}	n/a	31.354	-12.444	n/a	Rest	n/a
-12.421	4.0	0.023	998.36	n/a	3	n/a	n/a	n/a	n/a	n/a	n/a	n/a	n/a	n/a	n/a	n/a	n/a	n/a	n/a	n/a	BlockHappyPreview	n/a
-8.409	1.996	0.012	1002.372	n/a	3	n/a	n/a	n/a	n/a	n/a	n/a	n/a	n/a	n/a	n/a	2{-2}2{-2}	n/a	1.996	-6.413	904.0	BlockStartHappiness	n/a
-2.307	-0.001	0.026	1008.474	n/a	3	n/a	n/a	n/a	n/a	n/a	n/a	n/a	n/a	n/a	n/a	5.0	n/a	2.29	-0.017	n/a	ScanWait	n/a
0.0	10.0	0.017	1010.781	n/a	3	n/a	n/a	n/a	n/a	n/a	n/a	n/a	n/a	n/a	n/a	n/a	n/a	n/a	n/a	n/a	GetReady	n/a
10.013	3.0	0.013	1020.794	55.0	3	10.89	5.44	-2.769	955.0	2.22	Outcome2	11.1	10.89	2.53325	Yes	2.0	-0.206964892412231	1.428	11.441	n/a	GetAnswer	Loss
11.467	4.0	0.026	1022.248	55.0	3	10.89	5.44	-2.769	955.0	2.22	Outcome2	11.1	10.89	2.53325	Yes	n/a	-0.206964892412231	n/a	n/a	n/a	ShowChoice	Loss
15.479	1.0	0.012	1026.26	55.0	3	10.89	5.44	-2.769	955.0	2.22	Outcome2	11.1	10.89	2.53325	Yes	n/a	-0.206964892412231	n/a	n/a	n/a	ShowResult	Loss
16.499	7.709	0.02	1027.28	55.0	3	10.89	5.44	-2.769	955.0	2.22	Outcome2	11.1	10.89	2.53325	Yes	n/a	-0.206964892412231	n/a	n/a	n/a	ISITrial	Loss
24.222	2.533	0.014	1035.003	55.0	3	10.89	5.44	-2.769	955.0	2.22	Outcome2	11.1	10.89	2.53325	Yes	n/a	-0.206964892412231	n/a	n/a	n/a	TrialHappPreview	Loss
26.78	4.012	0.025	1037.561	55.0	3	10.89	5.44	-2.769	955.0	2.22	Outcome2	11.1	10.89	2.53325	Yes	n/a	-0.206964892412231	n/a	n/a	952.0	TrialHappiness	Loss
26.78	1.176	n/a	1037.762	55.0	3	10.89	5.44	-2.769	955.0	2.22	Outcome2	11.1	10.89	2.53325	Yes	n/a	-0.206964892412231	n/a	n/a	952.0	TrialHappinessSliderResponse	Loss
30.792	2.133	4.012	1041.573	55.0	3	10.89	5.44	-2.769	955.0	2.22	Outcome2	11.1	10.89	2.53325	Yes	n/a	-0.206964892412231	n/a	n/a	n/a	ISIRate	Loss
32.948	3.0	0.023	1043.729	56.0	3	4.28	2.14	-2.234	955.0	2.0	Outcome1	4.28	4.3	0.0	No	n/a	-0.0169875424688562	n/a	n/a	n/a	GetAnswer	Mixed
35.974	4.0	0.026	1046.755	56.0	3	4.28	2.14	-2.234	955.0	2.0	Outcome1	4.28	4.3	0.0	No	n/a	-0.0169875424688562	n/a	n/a	n/a	ShowChoice	Mixed
39.986	1.0	0.012	1050.767	56.0	3	4.28	2.14	-2.234	955.0	2.0	Outcome1	4.28	4.3	0.0	No	n/a	-0.0169875424688562	n/a	n/a	n/a	ShowResult	Mixed
41.006	4.697	0.02	1051.787	56.0	3	4.28	2.14	-2.234	955.0	2.0	Outcome1	4.28	4.3	0.0	No	n/a	-0.0169875424688562	n/a	n/a	n/a	ISITrial	Mixed
45.72	3.0	0.017	1056.501	57.0	3	10.1	5.0	-0.9715	955.0	4.2	Outcome2	9.99	10.1	0.0	No	2.0	0.1121177802944509	0.744	46.464	n/a	GetAnswer	Gain
46.489	4.0	0.025	1057.27	57.0	3	10.1	5.0	-0.9715	955.0	4.2	Outcome2	9.99	10.1	0.0	No	n/a	0.1121177802944509	n/a	n/a	n/a	ShowChoice	Gain
50.501	1.0	0.012	1061.282	57.0	3	10.1	5.0	-0.9715	955.0	4.2	Outcome2	9.99	10.1	0.0	No	n/a	0.1121177802944509	n/a	n/a	n/a	ShowResult	Gain
51.52	4.291	0.019	1062.301	57.0	3	10.1	5.0	-0.9715	955.0	4.2	Outcome2	9.99	10.1	0.0	No	n/a	0.1121177802944509	n/a	n/a	n/a	ISITrial	Gain
55.833	3.0	0.022	1066.614	58.0	3	4.48	2.24	-0.4115	955.0	1.68	Outcome2	4.5	4.48	3.04575	Yes	2.0	-0.0175537938844847	1.381	57.214	n/a	GetAnswer	Gain
57.237	4.0	0.023	1068.018	58.0	3	4.48	2.24	-0.4115	955.0	1.68	Outcome2	4.5	4.48	3.04575	Yes	n/a	-0.0175537938844847	n/a	n/a	n/a	ShowChoice	Gain
61.249	1.0	0.012	1072.03	58.0	3	4.48	2.24	-0.4115	955.0	1.68	Outcome2	4.5	4.48	3.04575	Yes	n/a	-0.0175537938844847	n/a	n/a	n/a	ShowResult	Gain
62.269	2.037	0.02	1073.05	58.0	3	4.48	2.24	-0.4115	955.0	1.68	Outcome2	4.5	4.48	3.04575	Yes	n/a	-0.0175537938844847	n/a	n/a	n/a	ISITrial	Gain
64.325	3.046	0.019	1075.106	58.0	3	4.48	2.24	-0.4115	955.0	1.68	Outcome2	4.5	4.48	3.04575	Yes	n/a	-0.0175537938844847	n/a	n/a	n/a	TrialHappPreview	Gain
67.384	4.012	0.013	1078.165	58.0	3	4.48	2.24	-0.4115	955.0	1.68	Outcome2	4.5	4.48	3.04575	Yes	2{-2}	-0.0175537938844847	1.159	68.543	864.0	TrialHappiness	Gain
67.385	0.87	n/a	1078.455	58.0	3	4.48	2.24	-0.4115	955.0	1.68	Outcome2	4.5	4.48	3.04575	Yes	n/a	-0.0175537938844847	n/a	n/a	864.0	TrialHappinessSliderResponse	Gain
71.396	4.183	4.012	1082.177	58.0	3	4.48	2.24	-0.4115	955.0	1.68	Outcome2	4.5	4.48	3.04575	Yes	n/a	-0.0175537938844847	n/a	n/a	n/a	ISIRate	Gain
75.609	3.0	0.03	1086.39	59.0	3	8.1	3.24	0.601	955.0	4.2	Outcome1	8.1	6.49	0.0	No	2.0	1.6138165345413402	0.974	76.583	n/a	GetAnswer	Gain
76.595	4.0	0.012	1087.376	59.0	3	8.1	3.24	0.601	955.0	4.2	Outcome1	8.1	6.49	0.0	No	n/a	1.6138165345413402	n/a	n/a	n/a	ShowChoice	Gain
80.607	1.0	0.012	1091.388	59.0	3	8.1	3.24	0.601	955.0	4.2	Outcome1	8.1	6.49	0.0	No	n/a	1.6138165345413402	n/a	n/a	n/a	ShowResult	Gain
81.627	5.064	0.02	1092.408	59.0	3	8.1	3.24	0.601	955.0	4.2	Outcome1	8.1	6.49	0.0	No	n/a	1.6138165345413402	n/a	n/a	n/a	ISITrial	Gain
86.709	3.0	0.018	1097.49	60.0	3	6.9	2.59	1.4635	955.0	2.0	Outcome2	5.18	6.9	3.5625	Yes	2.0	1.71687429218573	0.946	87.655	n/a	GetAnswer	Gain
87.678	4.0	0.023	1098.459	60.0	3	6.9	2.59	1.4635	955.0	2.0	Outcome2	5.18	6.9	3.5625	Yes	n/a	1.71687429218573	n/a	n/a	n/a	ShowChoice	Gain
91.69	1.0	0.012	1102.471	60.0	3	6.9	2.59	1.4635	955.0	2.0	Outcome2	5.18	6.9	3.5625	Yes	n/a	1.71687429218573	n/a	n/a	n/a	ShowResult	Gain
92.71	8.0	0.02	1103.491	60.0	3	6.9	2.59	1.4635	955.0	2.0	Outcome2	5.18	6.9	3.5625	Yes	n/a	1.71687429218573	n/a	n/a	n/a	ISITrial	Gain
100.734	3.562	0.024	1111.515	60.0	3	6.9	2.59	1.4635	955.0	2.0	Outcome2	5.18	6.9	3.5625	Yes	n/a	1.71687429218573	n/a	n/a	n/a	TrialHappPreview	Gain
104.311	4.012	0.015	1115.092	60.0	3	6.9	2.59	1.4635	955.0	2.0	Outcome2	5.18	6.9	3.5625	Yes	n/a	1.71687429218573	n/a	n/a	952.0	TrialHappiness	Gain
104.312	1.07	n/a	1115.533	60.0	3	6.9	2.59	1.4635	955.0	2.0	Outcome2	5.18	6.9	3.5625	Yes	n/a	1.71687429218573	n/a	n/a	952.0	TrialHappinessSliderResponse	Gain
108.323	6.25	4.012	1119.104	60.0	3	6.9	2.59	1.4635	955.0	2.0	Outcome2	5.18	6.9	3.5625	Yes	n/a	1.71687429218573	n/a	n/a	n/a	ISIRate	Gain
114.592	3.0	0.019	1125.373	61.0	3	9.1	4.39	2.6010000000000004	955.0	2.22	Outcome1	9.1	8.78	0.0	No	2.0	0.325028312570781	0.792	115.384	n/a	GetAnswer	Gain
115.411	4.0	0.027	1126.192	61.0	3	9.1	4.39	2.6010000000000004	955.0	2.22	Outcome1	9.1	8.78	0.0	No	n/a	0.325028312570781	n/a	n/a	n/a	ShowChoice	Gain
119.423	1.0	0.012	1130.204	61.0	3	9.1	4.39	2.6010000000000004	955.0	2.22	Outcome1	9.1	8.78	0.0	No	n/a	0.325028312570781	n/a	n/a	n/a	ShowResult	Gain
120.443	4.586	0.02	1131.224	61.0	3	9.1	4.39	2.6010000000000004	955.0	2.22	Outcome1	9.1	8.78	0.0	No	n/a	0.325028312570781	n/a	n/a	n/a	ISITrial	Gain
125.057	3.0	0.028	1135.838	62.0	3	9.46	4.73	3.7835	955.0	2.8	Outcome1	9.46	9.5	3.74875	Yes	2.0	-0.0352963382408456	1.057	126.114	n/a	GetAnswer	Gain
126.126	4.0	0.012	1136.907	62.0	3	9.46	4.73	3.7835	955.0	2.8	Outcome1	9.46	9.5	3.74875	Yes	n/a	-0.0352963382408456	n/a	n/a	n/a	ShowChoice	Gain
130.138	1.0	0.012	1140.919	62.0	3	9.46	4.73	3.7835	955.0	2.8	Outcome1	9.46	9.5	3.74875	Yes	n/a	-0.0352963382408456	n/a	n/a	n/a	ShowResult	Gain
131.158	5.212	0.02	1141.939	62.0	3	9.46	4.73	3.7835	955.0	2.8	Outcome1	9.46	9.5	3.74875	Yes	n/a	-0.0352963382408456	n/a	n/a	n/a	ISITrial	Gain
136.39	3.749	0.02	1147.171	62.0	3	9.46	4.73	3.7835	955.0	2.8	Outcome1	9.46	9.5	3.74875	Yes	n/a	-0.0352963382408456	n/a	n/a	n/a	TrialHappPreview	Gain
140.168	4.012	0.029	1150.949	62.0	3	9.46	4.73	3.7835	955.0	2.8	Outcome1	9.46	9.5	3.74875	Yes	n/a	-0.0352963382408456	n/a	n/a	952.0	TrialHappiness	Gain
140.17	1.345	n/a	1151.634	62.0	3	9.46	4.73	3.7835	955.0	2.8	Outcome1	9.46	9.5	3.74875	Yes	n/a	-0.0352963382408456	n/a	n/a	952.0	TrialHappinessSliderResponse	Gain
144.18	6.995	4.012	1154.961	62.0	3	9.46	4.73	3.7835	955.0	2.8	Outcome1	9.46	9.5	3.74875	Yes	n/a	-0.0352963382408456	n/a	n/a	n/a	ISIRate	Gain
151.201	3.0	0.026	1161.982	63.0	3	8.7	4.18	4.871	955.0	1.82	Outcome2	8.37	8.7	0.0	No	2.0	0.3318233295583239	0.439	151.64	n/a	GetAnswer	Gain
151.653	4.0	0.013	1162.434	63.0	3	8.7	4.18	4.871	955.0	1.82	Outcome2	8.37	8.7	0.0	No	n/a	0.3318233295583239	n/a	n/a	n/a	ShowChoice	Gain
155.665	1.0	0.012	1166.446	63.0	3	8.7	4.18	4.871	955.0	1.82	Outcome2	8.37	8.7	0.0	No	n/a	0.3318233295583239	n/a	n/a	n/a	ShowResult	Gain
156.684	5.595	0.019	1167.465	63.0	3	8.7	4.18	4.871	955.0	1.82	Outcome2	8.37	8.7	0.0	No	n/a	0.3318233295583239	n/a	n/a	n/a	ISITrial	Gain
162.301	3.0	0.022	1173.082	64.0	3	13.3	6.48	6.5335	955.0	2.48	Outcome1	13.3	12.96	0.0	No	2.0	0.335220838052095	0.677	162.978	n/a	GetAnswer	Loss
163.003	4.0	0.025	1173.784	64.0	3	13.3	6.48	6.5335	955.0	2.48	Outcome1	13.3	12.96	0.0	No	n/a	0.335220838052095	n/a	n/a	n/a	ShowChoice	Loss
167.015	1.0	0.012	1177.796	64.0	3	13.3	6.48	6.5335	955.0	2.48	Outcome1	13.3	12.96	0.0	No	n/a	0.335220838052095	n/a	n/a	n/a	ShowResult	Loss
168.035	5.47	0.02	1178.816	64.0	3	13.3	6.48	6.5335	955.0	2.48	Outcome1	13.3	12.96	0.0	No	n/a	0.335220838052095	n/a	n/a	n/a	ISITrial	Loss
173.535	3.0	0.03	1184.316	65.0	3	1.3	1.0	6.696000000000001	955.0	0.66	Outcome2	0.96	1.3	2.99675	Yes	2.0	0.338618346545866	0.793	174.328	n/a	GetAnswer	Mixed
174.354	4.0	0.026	1185.135	65.0	3	1.3	1.0	6.696000000000001	955.0	0.66	Outcome2	0.96	1.3	2.99675	Yes	n/a	0.338618346545866	n/a	n/a	n/a	ShowChoice	Mixed
178.366	1.0	0.012	1189.147	65.0	3	1.3	1.0	6.696000000000001	955.0	0.66	Outcome2	0.96	1.3	2.99675	Yes	n/a	0.338618346545866	n/a	n/a	n/a	ShowResult	Mixed
179.386	3.344	0.02	1190.167	65.0	3	1.3	1.0	6.696000000000001	955.0	0.66	Outcome2	0.96	1.3	2.99675	Yes	n/a	0.338618346545866	n/a	n/a	n/a	ISITrial	Mixed
182.746	2.997	0.016	1193.527	65.0	3	1.3	1.0	6.696000000000001	955.0	0.66	Outcome2	0.96	1.3	2.99675	Yes	n/a	0.338618346545866	n/a	n/a	n/a	TrialHappPreview	Mixed
185.771	4.012	0.028	1196.552	65.0	3	1.3	1.0	6.696000000000001	955.0	0.66	Outcome2	0.96	1.3	2.99675	Yes	n/a	0.338618346545866	n/a	n/a	952.0	TrialHappiness	Mixed
185.772	1.082	n/a	1197.516	65.0	3	1.3	1.0	6.696000000000001	955.0	0.66	Outcome2	0.96	1.3	2.99675	Yes	n/a	0.338618346545866	n/a	n/a	952.0	TrialHappinessSliderResponse	Mixed
189.783	3.987	4.012	1200.564	65.0	3	1.3	1.0	6.696000000000001	955.0	0.66	Outcome2	0.96	1.3	2.99675	Yes	n/a	0.338618346545866	n/a	n/a	n/a	ISIRate	Mixed
193.795	3.0	0.025	1204.576	66.0	3	10.66	5.33	8.0285	955.0	1.82	Outcome2	10.7	10.66	0.0	No	2.0	-0.0364288410721027	0.96	194.755	n/a	GetAnswer	Loss
194.782	4.0	0.027	1205.563	66.0	3	10.66	5.33	8.0285	955.0	1.82	Outcome2	10.7	10.66	0.0	No	n/a	-0.0364288410721027	n/a	n/a	n/a	ShowChoice	Loss
198.793	1.0	0.011	1209.574	66.0	3	10.66	5.33	8.0285	955.0	1.82	Outcome2	10.7	10.66	0.0	No	n/a	-0.0364288410721027	n/a	n/a	n/a	ShowResult	Loss
199.813	3.959	0.02	1210.594	66.0	3	10.66	5.33	8.0285	955.0	1.82	Outcome2	10.7	10.66	0.0	No	n/a	-0.0364288410721027	n/a	n/a	n/a	ISITrial	Loss
203.792	3.0	0.02	1214.573	67.0	3	8.9	4.28	9.141	955.0	2.0	Outcome2	8.55	8.9	2.9185	Yes	2.0	0.345413363533409	1.042	204.834	n/a	GetAnswer	Gain
204.845	4.0	0.011	1215.626	67.0	3	8.9	4.28	9.141	955.0	2.0	Outcome2	8.55	8.9	2.9185	Yes	n/a	0.345413363533409	n/a	n/a	n/a	ShowChoice	Gain
208.857	1.0	0.012	1219.638	67.0	3	8.9	4.28	9.141	955.0	2.0	Outcome2	8.55	8.9	2.9185	Yes	n/a	0.345413363533409	n/a	n/a	n/a	ShowResult	Gain
209.877	4.199	0.02	1220.658	67.0	3	8.9	4.28	9.141	955.0	2.0	Outcome2	8.55	8.9	2.9185	Yes	n/a	0.345413363533409	n/a	n/a	n/a	ISITrial	Gain
214.089	2.918	0.013	1224.87	67.0	3	8.9	4.28	9.141	955.0	2.0	Outcome2	8.55	8.9	2.9185	Yes	n/a	0.345413363533409	n/a	n/a	n/a	TrialHappPreview	Gain
217.031	4.012	0.024	1227.812	67.0	3	8.9	4.28	9.141	955.0	2.0	Outcome2	8.55	8.9	2.9185	Yes	n/a	0.345413363533409	n/a	n/a	952.0	TrialHappiness	Gain
217.032	1.616	n/a	1228.46	67.0	3	8.9	4.28	9.141	955.0	2.0	Outcome2	8.55	8.9	2.9185	Yes	n/a	0.345413363533409	n/a	n/a	952.0	TrialHappinessSliderResponse	Gain
221.043	3.674	4.012	1231.824	67.0	3	8.9	4.28	9.141	955.0	2.0	Outcome2	8.55	8.9	2.9185	Yes	n/a	0.345413363533409	n/a	n/a	n/a	ISIRate	Gain
224.738	3.0	0.021	1235.519	68.0	3	0.3	0.0	9.1785	955.0	2.0	Outcome2	-0.05	0.3	0.0	No	2.0	0.34881087202718	2.806	227.544	n/a	GetAnswer	Mixed
227.563	4.0	0.019	1238.344	68.0	3	0.3	0.0	9.1785	955.0	2.0	Outcome2	-0.05	0.3	0.0	No	n/a	0.34881087202718	n/a	n/a	n/a	ShowChoice	Mixed
231.575	1.0	0.012	1242.356	68.0	3	0.3	0.0	9.1785	955.0	2.0	Outcome2	-0.05	0.3	0.0	No	n/a	0.34881087202718	n/a	n/a	n/a	ShowResult	Mixed
232.594	2.185	0.019	1243.375	68.0	3	0.3	0.0	9.1785	955.0	2.0	Outcome2	-0.05	0.3	0.0	No	n/a	0.34881087202718	n/a	n/a	n/a	ISITrial	Mixed
234.801	3.0	0.022	1245.582	69.0	3	5.9	2.78	9.916	955.0	3.6	Outcome2	5.55	5.9	0.0	No	2.0	0.352208380520951	1.117	235.918	n/a	GetAnswer	Gain
235.938	4.0	0.02	1246.719	69.0	3	5.9	2.78	9.916	955.0	3.6	Outcome2	5.55	5.9	0.0	No	n/a	0.352208380520951	n/a	n/a	n/a	ShowChoice	Gain
239.95	1.0	0.012	1250.731	69.0	3	5.9	2.78	9.916	955.0	3.6	Outcome2	5.55	5.9	0.0	No	n/a	0.352208380520951	n/a	n/a	n/a	ShowResult	Gain
240.969	2.0	0.019	1251.75	69.0	3	5.9	2.78	9.916	955.0	3.6	Outcome2	5.55	5.9	0.0	No	n/a	0.352208380520951	n/a	n/a	n/a	ISITrial	Gain
242.992	3.0	0.023	1253.773	70.0	3	2.46	2.0	10.2235	955.0	0.2	Outcome1	2.46	2.5	3.65125	Yes	2.0	-0.0375613439033598	1.248	244.24	n/a	GetAnswer	Mixed
244.263	4.0	0.023	1255.044	70.0	3	2.46	2.0	10.2235	955.0	0.2	Outcome1	2.46	2.5	3.65125	Yes	n/a	-0.0375613439033598	n/a	n/a	n/a	ShowChoice	Mixed
248.275	1.0	0.012	1259.056	70.0	3	2.46	2.0	10.2235	955.0	0.2	Outcome1	2.46	2.5	3.65125	Yes	n/a	-0.0375613439033598	n/a	n/a	n/a	ShowResult	Mixed
249.294	2.623	0.019	1260.075	70.0	3	2.46	2.0	10.2235	955.0	0.2	Outcome1	2.46	2.5	3.65125	Yes	n/a	-0.0375613439033598	n/a	n/a	n/a	ISITrial	Mixed
251.936	3.651	0.019	1262.717	70.0	3	2.46	2.0	10.2235	955.0	0.2	Outcome1	2.46	2.5	3.65125	Yes	n/a	-0.0375613439033598	n/a	n/a	n/a	TrialHappPreview	Mixed
255.63	4.012	0.043	1266.411	70.0	3	2.46	2.0	10.2235	955.0	0.2	Outcome1	2.46	2.5	3.65125	Yes	n/a	-0.0375613439033598	n/a	n/a	880.0	TrialHappiness	Mixed
255.631	2.084	n/a	1266.608	70.0	3	2.46	2.0	10.2235	955.0	0.2	Outcome1	2.46	2.5	3.65125	Yes	n/a	-0.0375613439033598	n/a	n/a	880.0	TrialHappinessSliderResponse	Mixed
259.642	6.605	4.012	1270.423	70.0	3	2.46	2.0	10.2235	955.0	0.2	Outcome1	2.46	2.5	3.65125	Yes	n/a	-0.0375613439033598	n/a	n/a	n/a	ISIRate	Mixed
266.278	3.0	0.031	1277.059	71.0	3	-2.0	-2.0	9.9735	955.0	0.4	Certain	-2.68	-1.1	0.0	No	4.0	1.58210645526614	2.438	268.716	n/a	GetAnswer	Mixed
268.736	4.0	0.02	1279.517	71.0	3	-2.0	-2.0	9.9735	955.0	0.4	Certain	-2.68	-1.1	0.0	No	n/a	1.58210645526614	n/a	n/a	n/a	ShowChoice	Mixed
272.748	1.0	0.012	1283.529	71.0	3	-2.0	-2.0	9.9735	955.0	0.4	Certain	-2.68	-1.1	0.0	No	n/a	1.58210645526614	n/a	n/a	n/a	ShowResult	Mixed
273.767	5.499	0.019	1284.548	71.0	3	-2.0	-2.0	9.9735	955.0	0.4	Certain	-2.68	-1.1	0.0	No	n/a	1.58210645526614	n/a	n/a	n/a	ISITrial	Mixed
279.284	3.0	0.018	1290.065	72.0	3	5.5	1.92	10.661	955.0	2.8	Outcome1	5.5	3.83	3.0805	Yes	2.0	1.66704416761042	1.534	280.818	n/a	GetAnswer	Gain
280.839	4.0	0.021	1291.62	72.0	3	5.5	1.92	10.661	955.0	2.8	Outcome1	5.5	3.83	3.0805	Yes	n/a	1.66704416761042	n/a	n/a	n/a	ShowChoice	Gain
284.851	1.0	0.012	1295.632	72.0	3	5.5	1.92	10.661	955.0	2.8	Outcome1	5.5	3.83	3.0805	Yes	n/a	1.66704416761042	n/a	n/a	n/a	ShowResult	Gain
285.87	5.672	0.019	1296.651	72.0	3	5.5	1.92	10.661	955.0	2.8	Outcome1	5.5	3.83	3.0805	Yes	n/a	1.66704416761042	n/a	n/a	n/a	ISITrial	Gain
291.554	3.08	0.012	1302.335	72.0	3	5.5	1.92	10.661	955.0	2.8	Outcome1	5.5	3.83	3.0805	Yes	n/a	1.66704416761042	n/a	n/a	n/a	TrialHappPreview	Gain
294.663	4.012	0.029	1305.444	72.0	3	5.5	1.92	10.661	955.0	2.8	Outcome1	5.5	3.83	3.0805	Yes	n/a	1.66704416761042	n/a	n/a	896.0	TrialHappiness	Gain
294.664	1.445	n/a	1306.23	72.0	3	5.5	1.92	10.661	955.0	2.8	Outcome1	5.5	3.83	3.0805	Yes	n/a	1.66704416761042	n/a	n/a	896.0	TrialHappinessSliderResponse	Gain
298.675	4.322	4.012	1309.456	72.0	3	5.5	1.92	10.661	955.0	2.8	Outcome1	5.5	3.83	3.0805	Yes	n/a	1.66704416761042	n/a	n/a	n/a	ISIRate	Gain
303.021	3.0	0.024	1313.802	73.0	3	11.82	5.91	12.1385	955.0	4.2	Outcome2	12.1	11.82	0.0	No	2.0	-0.2792563231408079	1.025	304.046	n/a	GetAnswer	Loss
304.058	4.0	0.012	1314.839	73.0	3	11.82	5.91	12.1385	955.0	4.2	Outcome2	12.1	11.82	0.0	No	n/a	-0.2792563231408079	n/a	n/a	n/a	ShowChoice	Loss
308.07	1.0	0.012	1318.851	73.0	3	11.82	5.91	12.1385	955.0	4.2	Outcome2	12.1	11.82	0.0	No	n/a	-0.2792563231408079	n/a	n/a	n/a	ShowResult	Loss
309.09	4.616	0.02	1319.871	73.0	3	11.82	5.91	12.1385	955.0	4.2	Outcome2	12.1	11.82	0.0	No	n/a	-0.2792563231408079	n/a	n/a	n/a	ISITrial	Loss
313.737	3.0	0.031	1324.518	74.0	3	13.7	6.08	13.851	955.0	3.16	Outcome1	13.7	12.15	3.05625	Yes	2.0	1.54699886749717	0.881	314.618	n/a	GetAnswer	Loss
314.639	4.0	0.021	1325.42	74.0	3	13.7	6.08	13.851	955.0	3.16	Outcome1	13.7	12.15	3.05625	Yes	n/a	1.54699886749717	n/a	n/a	n/a	ShowChoice	Loss
318.651	1.0	0.012	1329.432	74.0	3	13.7	6.08	13.851	955.0	3.16	Outcome1	13.7	12.15	3.05625	Yes	n/a	1.54699886749717	n/a	n/a	n/a	ShowResult	Loss
319.671	3.909	0.02	1330.452	74.0	3	13.7	6.08	13.851	955.0	3.16	Outcome1	13.7	12.15	3.05625	Yes	n/a	1.54699886749717	n/a	n/a	n/a	ISITrial	Loss
323.6	3.056	0.02	1334.381	74.0	3	13.7	6.08	13.851	955.0	3.16	Outcome1	13.7	12.15	3.05625	Yes	n/a	1.54699886749717	n/a	n/a	n/a	TrialHappPreview	Loss
326.675	4.012	0.019	1337.456	74.0	3	13.7	6.08	13.851	955.0	3.16	Outcome1	13.7	12.15	3.05625	Yes	n/a	1.54699886749717	n/a	n/a	848.0	TrialHappiness	Loss
326.676	0.842	n/a	1338.125	74.0	3	13.7	6.08	13.851	955.0	3.16	Outcome1	13.7	12.15	3.05625	Yes	n/a	1.54699886749717	n/a	n/a	848.0	TrialHappinessSliderResponse	Loss
330.687	4.225	4.012	1341.468	74.0	3	13.7	6.08	13.851	955.0	3.16	Outcome1	13.7	12.15	3.05625	Yes	n/a	1.54699886749717	n/a	n/a	n/a	ISIRate	Loss
334.933	3.0	0.021	1345.714	75.0	3	3.61	1.8	14.3022	955.0	1.5	Outcome1	3.61	4.1	0.0	No	2.0	-0.4851830879577199	1.579	336.512	n/a	GetAnswer	Mixed
336.538	4.0	0.026	1347.319	75.0	3	3.61	1.8	14.3022	955.0	1.5	Outcome1	3.61	4.1	0.0	No	n/a	-0.4851830879577199	n/a	n/a	n/a	ShowChoice	Mixed
340.55	1.0	0.012	1351.331	75.0	3	3.61	1.8	14.3022	955.0	1.5	Outcome1	3.61	4.1	0.0	No	n/a	-0.4851830879577199	n/a	n/a	n/a	ShowResult	Mixed
341.57	4.979	0.02	1352.351	75.0	3	3.61	1.8	14.3022	955.0	1.5	Outcome1	3.61	4.1	0.0	No	n/a	-0.4851830879577199	n/a	n/a	n/a	ISITrial	Mixed
346.568	3.0	0.019	1357.349	76.0	3	-0.3	-1.0	14.2647	955.0	1.0	Outcome1	-0.3	-2.85	0.0	No	2.0	2.55039637599094	1.774	348.342	n/a	GetAnswer	Mixed
348.357	4.0	0.015	1359.138	76.0	3	-0.3	-1.0	14.2647	955.0	1.0	Outcome1	-0.3	-2.85	0.0	No	n/a	2.55039637599094	n/a	n/a	n/a	ShowChoice	Mixed
352.369	1.0	0.012	1363.15	76.0	3	-0.3	-1.0	14.2647	955.0	1.0	Outcome1	-0.3	-2.85	0.0	No	n/a	2.55039637599094	n/a	n/a	n/a	ShowResult	Mixed
353.389	3.931	0.02	1364.17	76.0	3	-0.3	-1.0	14.2647	955.0	1.0	Outcome1	-0.3	-2.85	0.0	No	n/a	2.55039637599094	n/a	n/a	n/a	ISITrial	Mixed
357.35	3.0	0.03	1368.131	77.0	3	7.99	4.0	15.2635	955.0	1.68	Outcome1	7.99	8.5	4.0	Yes	2.0	-0.505379388448471	1.211	358.561	n/a	GetAnswer	Gain
358.587	4.0	0.026	1369.368	77.0	3	7.99	4.0	15.2635	955.0	1.68	Outcome1	7.99	8.5	4.0	Yes	n/a	-0.505379388448471	n/a	n/a	n/a	ShowChoice	Gain
362.599	1.0	0.012	1373.38	77.0	3	7.99	4.0	15.2635	955.0	1.68	Outcome1	7.99	8.5	4.0	Yes	n/a	-0.505379388448471	n/a	n/a	n/a	ShowResult	Gain
363.619	7.022	0.02	1374.4	77.0	3	7.99	4.0	15.2635	955.0	1.68	Outcome1	7.99	8.5	4.0	Yes	n/a	-0.505379388448471	n/a	n/a	n/a	ISITrial	Gain
370.657	4.0	0.016	1381.438	77.0	3	7.99	4.0	15.2635	955.0	1.68	Outcome1	7.99	8.5	4.0	Yes	n/a	-0.505379388448471	n/a	n/a	n/a	TrialHappPreview	Gain
374.685	4.012	0.028	1385.466	77.0	3	7.99	4.0	15.2635	955.0	1.68	Outcome1	7.99	8.5	4.0	Yes	n/a	-0.505379388448471	n/a	n/a	824.0	TrialHappiness	Gain
374.686	1.855	n/a	1385.859	77.0	3	7.99	4.0	15.2635	955.0	1.68	Outcome1	7.99	8.5	4.0	Yes	n/a	-0.505379388448471	n/a	n/a	824.0	TrialHappinessSliderResponse	Gain
378.697	8.0	4.012	1389.478	77.0	3	7.99	4.0	15.2635	955.0	1.68	Outcome1	7.99	8.5	4.0	Yes	n/a	-0.505379388448471	n/a	n/a	n/a	ISIRate	Gain
386.721	3.0	0.024	1397.502	78.0	3	2.1	0.0	15.526	955.0	1.5	Outcome1	2.1	-1.1	0.0	No	2.0	3.2004530011325003	1.286	388.007	n/a	GetAnswer	Mixed
388.025	4.0	0.018	1398.806	78.0	3	2.1	0.0	15.526	955.0	1.5	Outcome1	2.1	-1.1	0.0	No	n/a	3.2004530011325003	n/a	n/a	n/a	ShowChoice	Mixed
392.037	1.0	0.012	1402.818	78.0	3	2.1	0.0	15.526	955.0	1.5	Outcome1	2.1	-1.1	0.0	No	n/a	3.2004530011325003	n/a	n/a	n/a	ShowResult	Mixed
393.057	2.078	0.02	1403.838	78.0	3	2.1	0.0	15.526	955.0	1.5	Outcome1	2.1	-1.1	0.0	No	n/a	3.2004530011325003	n/a	n/a	n/a	ISITrial	Mixed
395.163	3.0	0.028	1405.944	79.0	3	2.07	2.0	15.7848	955.0	0.3	Outcome1	2.07	2.7	2.7295	Yes	2.0	-0.625235938089845	0.927	396.09	n/a	GetAnswer	Mixed
396.116	4.0	0.026	1406.897	79.0	3	2.07	2.0	15.7848	955.0	0.3	Outcome1	2.07	2.7	2.7295	Yes	n/a	-0.625235938089845	n/a	n/a	n/a	ShowChoice	Mixed
400.128	1.0	0.012	1410.909	79.0	3	2.07	2.0	15.7848	955.0	0.3	Outcome1	2.07	2.7	2.7295	Yes	n/a	-0.625235938089845	n/a	n/a	n/a	ShowResult	Mixed
401.148	3.829	0.02	1411.929	79.0	3	2.07	2.0	15.7848	955.0	0.3	Outcome1	2.07	2.7	2.7295	Yes	n/a	-0.625235938089845	n/a	n/a	n/a	ISITrial	Mixed
404.993	2.73	0.016	1415.774	79.0	3	2.07	2.0	15.7848	955.0	0.3	Outcome1	2.07	2.7	2.7295	Yes	n/a	-0.625235938089845	n/a	n/a	n/a	TrialHappPreview	Mixed
407.751	4.012	0.028	1418.532	79.0	3	2.07	2.0	15.7848	955.0	0.3	Outcome1	2.07	2.7	2.7295	Yes	n/a	-0.625235938089845	n/a	n/a	924.0	TrialHappiness	Mixed
407.752	1.998	n/a	1418.915	79.0	3	2.07	2.0	15.7848	955.0	0.3	Outcome1	2.07	2.7	2.7295	Yes	n/a	-0.625235938089845	n/a	n/a	924.0	TrialHappinessSliderResponse	Mixed
411.763	2.918	4.012	1422.544	79.0	3	2.07	2.0	15.7848	955.0	0.3	Outcome1	2.07	2.7	2.7295	Yes	n/a	-0.625235938089845	n/a	n/a	n/a	ISIRate	Mixed
414.705	3.0	0.024	1425.486	80.0	3	10.7	4.45	17.1223	955.0	1.82	Outcome1	10.7	8.9	0.0	No	2.0	1.7984144960362398	1.162	415.867	n/a	GetAnswer	Loss
415.892	4.0	0.025	1426.673	80.0	3	10.7	4.45	17.1223	955.0	1.82	Outcome1	10.7	8.9	0.0	No	n/a	1.7984144960362398	n/a	n/a	n/a	ShowChoice	Loss
419.904	1.0	0.012	1430.685	80.0	3	10.7	4.45	17.1223	955.0	1.82	Outcome1	10.7	8.9	0.0	No	n/a	1.7984144960362398	n/a	n/a	n/a	ShowResult	Loss
420.924	3.336	0.02	1431.705	80.0	3	10.7	4.45	17.1223	955.0	1.82	Outcome1	10.7	8.9	0.0	No	n/a	1.7984144960362398	n/a	n/a	n/a	ISITrial	Loss
424.284	3.0	0.024	1435.065	81.0	3	13.3	5.74	18.7848	955.0	2.48	Outcome2	11.47	13.3	3.92375	Yes	2.0	1.83352208380521	1.335	425.619	n/a	GetAnswer	Loss
425.638	4.0	0.019	1436.419	81.0	3	13.3	5.74	18.7848	955.0	2.48	Outcome2	11.47	13.3	3.92375	Yes	n/a	1.83352208380521	n/a	n/a	n/a	ShowChoice	Loss
429.65	1.0	0.012	1440.431	81.0	3	13.3	5.74	18.7848	955.0	2.48	Outcome2	11.47	13.3	3.92375	Yes	n/a	1.83352208380521	n/a	n/a	n/a	ShowResult	Loss
430.669	3.919	0.019	1441.45	81.0	3	13.3	5.74	18.7848	955.0	2.48	Outcome2	11.47	13.3	3.92375	Yes	n/a	1.83352208380521	n/a	n/a	n/a	ISITrial	Loss
434.598	3.924	0.01	1445.379	81.0	3	13.3	5.74	18.7848	955.0	2.48	Outcome2	11.47	13.3	3.92375	Yes	n/a	1.83352208380521	n/a	n/a	n/a	TrialHappPreview	Loss
438.543	4.012	0.021	1449.324	81.0	3	13.3	5.74	18.7848	955.0	2.48	Outcome2	11.47	13.3	3.92375	Yes	n/a	1.83352208380521	n/a	n/a	952.0	TrialHappiness	Loss
438.544	1.576	n/a	1449.945	81.0	3	13.3	5.74	18.7848	955.0	2.48	Outcome2	11.47	13.3	3.92375	Yes	n/a	1.83352208380521	n/a	n/a	952.0	TrialHappinessSliderResponse	Loss
442.555	7.695	4.012	1453.336	81.0	3	13.3	5.74	18.7848	955.0	2.48	Outcome2	11.47	13.3	3.92375	Yes	n/a	1.83352208380521	n/a	n/a	n/a	ISIRate	Loss
450.278	3.0	0.028	1461.059	n/a	3	n/a	n/a	n/a	n/a	n/a	n/a	n/a	n/a	n/a	n/a	n/a	n/a	n/a	n/a	n/a	CurrentEarnings	n/a
453.304	-0.001	0.026	1464.085	n/a	3	n/a	n/a	n/a	n/a	n/a	n/a	n/a	n/a	n/a	n/a	2.0	n/a	12.891	466.195	n/a	Goodbye	n/a
