onset	duration	onset_delay	onset_unadjusted	trial_number	block	amount_change	certain_amount	current_amount	mood_target	multiplier	outcome	outcome1_amount	outcome2_amount	question_duration	rating	response	rpe	rt	rt_time	slider_response	trial_phase	trial_type
-36.388	-0.001	0.027	22.265	n/a	0	n/a	n/a	n/a	n/a	n/a	n/a	n/a	n/a	n/a	n/a	4.0	n/a	1.121	-35.267	n/a	Welcome	n/a
-35.238	5.0	0.029	23.415	n/a	0	n/a	n/a	n/a	n/a	n/a	n/a	n/a	n/a	n/a	n/a	n/a	n/a	n/a	n/a	n/a	LifeHappyPreview	n/a
-30.207	3.057	0.031	28.446	n/a	0	n/a	n/a	n/a	n/a	n/a	n/a	n/a	n/a	n/a	n/a	n/a	n/a	n/a	n/a	368.0	LifeHappiness	n/a
-30.206	2.638	n/a	28.866	n/a	0	n/a	n/a	n/a	n/a	n/a	n/a	n/a	n/a	n/a	n/a	n/a	n/a	n/a	n/a	368.0	LifeHappinessSliderResponse	n/a
-22.826	4.0	0.017	35.827	n/a	0	n/a	n/a	n/a	n/a	n/a	n/a	n/a	n/a	n/a	n/a	n/a	n/a	n/a	n/a	n/a	BlockHappyPreview	n/a
-18.811	2.206	0.015	39.842	n/a	0	n/a	n/a	n/a	n/a	n/a	n/a	n/a	n/a	n/a	n/a	n/a	n/a	n/a	n/a	352.0	BlockStartHappiness	n/a
-18.81	1.959	n/a	40.09	n/a	0	n/a	n/a	n/a	n/a	n/a	n/a	n/a	n/a	n/a	n/a	n/a	n/a	n/a	n/a	352.0	BlockStartHappinessSliderResponse	n/a
-1.7	-0.001	0.022	56.953	n/a	0	n/a	n/a	n/a	n/a	n/a	n/a	n/a	n/a	n/a	n/a	5.0	n/a	1.686	-0.014	n/a	ScanWait	n/a
0.0	10.0	0.014	58.653	n/a	1	n/a	n/a	n/a	n/a	n/a	n/a	n/a	n/a	n/a	n/a	n/a	n/a	n/a	n/a	n/a	GetReady	n/a
10.03	3.0	0.03	68.683	1.0	1	2.12	2.12	10.265	955.0	1.82	Certain	6.7	4.25	0.0	No	4.0	-2.44705549263873	0.756	10.786	n/a	GetAnswer	Gain
10.813	4.0	0.027	69.466	1.0	1	2.12	2.12	10.265	955.0	1.82	Certain	6.7	4.25	0.0	No	n/a	-2.44705549263873	n/a	n/a	n/a	ShowChoice	Gain
14.828	1.0	0.015	73.481	1.0	1	2.12	2.12	10.265	955.0	1.82	Certain	6.7	4.25	0.0	No	n/a	-2.44705549263873	n/a	n/a	n/a	ShowResult	Gain
15.844	2.431	0.016	74.497	1.0	1	2.12	2.12	10.265	955.0	1.82	Certain	6.7	4.25	0.0	No	n/a	-2.44705549263873	n/a	n/a	n/a	ISITrial	Gain
18.293	3.0	0.018	76.946	2.0	1	3.8	3.8	10.74	955.0	4.2	Certain	7.6	10.1	0.0	No	4.0	-2.5039637599094	1.221	19.514	n/a	GetAnswer	Gain
19.526	4.0	0.012	78.179	2.0	1	3.8	3.8	10.74	955.0	4.2	Certain	7.6	10.1	0.0	No	n/a	-2.5039637599094	n/a	n/a	n/a	ShowChoice	Gain
23.542	1.0	0.016	82.195	2.0	1	3.8	3.8	10.74	955.0	4.2	Certain	7.6	10.1	0.0	No	n/a	-2.5039637599094	n/a	n/a	n/a	ShowResult	Gain
24.558	4.568	0.016	83.211	2.0	1	3.8	3.8	10.74	955.0	4.2	Certain	7.6	10.1	0.0	No	n/a	-2.5039637599094	n/a	n/a	n/a	ISITrial	Gain
29.156	3.0	0.03	87.809	3.0	1	2.17	2.17	11.0112	955.0	2.0	Certain	6.9	4.34	2.868	Yes	4.0	-2.5608720271800696	1.371	30.527	n/a	GetAnswer	Gain
30.539	4.0	0.012	89.192	3.0	1	2.17	2.17	11.0112	955.0	2.0	Certain	6.9	4.34	2.868	Yes	n/a	-2.5608720271800696	n/a	n/a	n/a	ShowChoice	Gain
34.554	1.0	0.015	93.207	3.0	1	2.17	2.17	11.0112	955.0	2.0	Certain	6.9	4.34	2.868	Yes	n/a	-2.5608720271800696	n/a	n/a	n/a	ShowResult	Gain
35.571	3.243	0.017	94.224	3.0	1	2.17	2.17	11.0112	955.0	2.0	Certain	6.9	4.34	2.868	Yes	n/a	-2.5608720271800696	n/a	n/a	n/a	ISITrial	Gain
38.836	2.868	0.022	97.489	3.0	1	2.17	2.17	11.0112	955.0	2.0	Certain	6.9	4.34	2.868	Yes	n/a	-2.5608720271800696	n/a	n/a	n/a	TrialHappPreview	Gain
41.735	4.016	0.031	100.388	3.0	1	2.17	2.17	11.0112	955.0	2.0	Certain	6.9	4.34	2.868	Yes	n/a	-2.5608720271800696	n/a	n/a	304.0	TrialHappiness	Gain
41.736	1.744	n/a	101.649	3.0	1	2.17	2.17	11.0112	955.0	2.0	Certain	6.9	4.34	2.868	Yes	n/a	-2.5608720271800696	n/a	n/a	304.0	TrialHappinessSliderResponse	Gain
45.751	3.472	4.016	104.404	3.0	1	2.17	2.17	11.0112	955.0	2.0	Certain	6.9	4.34	2.868	Yes	n/a	-2.5608720271800696	n/a	n/a	n/a	ISIRate	Gain
49.249	3.0	0.026	107.902	4.0	1	-1.0	-1.0	10.8862	955.0	2.22	Certain	11.1	-2.01	0.0	No	4.0	13.1075877689694	1.079	50.328	n/a	GetAnswer	Loss
50.349	4.0	0.021	109.002	4.0	1	-1.0	-1.0	10.8862	955.0	2.22	Certain	11.1	-2.01	0.0	No	n/a	13.1075877689694	n/a	n/a	n/a	ShowChoice	Loss
54.364	1.0	0.015	113.017	4.0	1	-1.0	-1.0	10.8862	955.0	2.22	Certain	11.1	-2.01	0.0	No	n/a	13.1075877689694	n/a	n/a	n/a	ShowResult	Loss
55.381	2.011	0.017	114.034	4.0	1	-1.0	-1.0	10.8862	955.0	2.22	Certain	11.1	-2.01	0.0	No	n/a	13.1075877689694	n/a	n/a	n/a	ISITrial	Loss
57.413	3.0	0.021	116.066	5.0	1	-2.0	-2.0	10.6362	955.0	1.82	Certain	-9.14	4.7	2.5825	Yes	4.0	13.8448471121178	0.684	58.097	n/a	GetAnswer	Gain
58.113	4.0	0.015	116.766	5.0	1	-2.0	-2.0	10.6362	955.0	1.82	Certain	-9.14	4.7	2.5825	Yes	n/a	13.8448471121178	n/a	n/a	n/a	ShowChoice	Gain
62.128	1.0	0.015	120.781	5.0	1	-2.0	-2.0	10.6362	955.0	1.82	Certain	-9.14	4.7	2.5825	Yes	n/a	13.8448471121178	n/a	n/a	n/a	ShowResult	Gain
63.145	5.129	0.017	121.798	5.0	1	-2.0	-2.0	10.6362	955.0	1.82	Certain	-9.14	4.7	2.5825	Yes	n/a	13.8448471121178	n/a	n/a	n/a	ISITrial	Gain
68.293	2.582	0.019	126.946	5.0	1	-2.0	-2.0	10.6362	955.0	1.82	Certain	-9.14	4.7	2.5825	Yes	n/a	13.8448471121178	n/a	n/a	n/a	TrialHappPreview	Gain
70.892	4.015	0.017	129.545	5.0	1	-2.0	-2.0	10.6362	955.0	1.82	Certain	-9.14	4.7	2.5825	Yes	n/a	13.8448471121178	n/a	n/a	336.0	TrialHappiness	Gain
70.893	0.514	n/a	130.586	5.0	1	-2.0	-2.0	10.6362	955.0	1.82	Certain	-9.14	4.7	2.5825	Yes	n/a	13.8448471121178	n/a	n/a	336.0	TrialHappinessSliderResponse	Gain
74.907	2.33	4.015	133.56	5.0	1	-2.0	-2.0	10.6362	955.0	1.82	Certain	-9.14	4.7	2.5825	Yes	n/a	13.8448471121178	n/a	n/a	n/a	ISIRate	Gain
77.257	3.0	0.02	135.91	6.0	1	-0.67	-0.67	10.5524	955.0	1.82	Certain	-1.34	12.7	0.0	No	4.0	14.038505096262698	0.826	78.083	n/a	GetAnswer	Loss
78.106	4.0	0.023	136.759	6.0	1	-0.67	-0.67	10.5524	955.0	1.82	Certain	-1.34	12.7	0.0	No	n/a	14.038505096262698	n/a	n/a	n/a	ShowChoice	Loss
82.122	1.0	0.016	140.775	6.0	1	-0.67	-0.67	10.5524	955.0	1.82	Certain	-1.34	12.7	0.0	No	n/a	14.038505096262698	n/a	n/a	n/a	ShowResult	Loss
83.138	6.232	0.016	141.791	6.0	1	-0.67	-0.67	10.5524	955.0	1.82	Certain	-1.34	12.7	0.0	No	n/a	14.038505096262698	n/a	n/a	n/a	ISITrial	Loss
89.402	3.0	0.032	148.055	7.0	1	-8.0	-8.0	9.5524	955.0	0.66	Certain	-0.7	-15.44	0.0	No	4.0	14.7395243488109	0.31	89.712	n/a	GetAnswer	Mixed
89.736	4.0	0.024	148.389	7.0	1	-8.0	-8.0	9.5524	955.0	0.66	Certain	-0.7	-15.44	0.0	No	n/a	14.7395243488109	n/a	n/a	n/a	ShowChoice	Mixed
93.751	1.0	0.015	152.404	7.0	1	-8.0	-8.0	9.5524	955.0	0.66	Certain	-0.7	-15.44	0.0	No	n/a	14.7395243488109	n/a	n/a	n/a	ShowResult	Mixed
94.767	2.305	0.016	153.42	7.0	1	-8.0	-8.0	9.5524	955.0	0.66	Certain	-0.7	-15.44	0.0	No	n/a	14.7395243488109	n/a	n/a	n/a	ISITrial	Mixed
97.1	3.0	0.028	155.753	8.0	1	-1.0	-1.0	9.4274	955.0	4.2	Certain	-9.34	6.1	3.1125	Yes	4.0	15.440543601359	0.679	97.779	n/a	GetAnswer	Gain
97.8	4.0	0.021	156.453	8.0	1	-1.0	-1.0	9.4274	955.0	4.2	Certain	-9.34	6.1	3.1125	Yes	n/a	15.440543601359	n/a	n/a	n/a	ShowChoice	Gain
101.815	1.0	0.015	160.468	8.0	1	-1.0	-1.0	9.4274	955.0	4.2	Certain	-9.34	6.1	3.1125	Yes	n/a	15.440543601359	n/a	n/a	n/a	ShowResult	Gain
102.831	3.506	0.016	161.484	8.0	1	-1.0	-1.0	9.4274	955.0	4.2	Certain	-9.34	6.1	3.1125	Yes	n/a	15.440543601359	n/a	n/a	n/a	ISITrial	Gain
106.363	3.112	0.026	165.016	8.0	1	-1.0	-1.0	9.4274	955.0	4.2	Certain	-9.34	6.1	3.1125	Yes	n/a	15.440543601359	n/a	n/a	n/a	TrialHappPreview	Gain
109.496	4.015	0.021	168.149	8.0	1	-1.0	-1.0	9.4274	955.0	4.2	Certain	-9.34	6.1	3.1125	Yes	n/a	15.440543601359	n/a	n/a	512.0	TrialHappiness	Gain
109.497	0.0	n/a	168.15	8.0	1	-1.0	-1.0	9.4274	955.0	4.2	Certain	-9.34	6.1	3.1125	Yes	n/a	15.440543601359	n/a	n/a	512.0	TrialHappinessSliderResponse	Gain
113.511	4.45	4.015	172.164	8.0	1	-1.0	-1.0	9.4274	955.0	4.2	Certain	-9.34	6.1	3.1125	Yes	n/a	15.440543601359	n/a	n/a	n/a	ISIRate	Gain
117.993	3.0	0.032	176.646	9.0	1	-1.0	-1.0	9.3024	955.0	1.0	Certain	-0.3	-2.57	0.0	No	4.0	-2.2666100415251003	0.388	118.381	n/a	GetAnswer	Mixed
118.409	4.0	0.028	177.062	9.0	1	-1.0	-1.0	9.3024	955.0	1.0	Certain	-0.3	-2.57	0.0	No	n/a	-2.2666100415251003	n/a	n/a	n/a	ShowChoice	Mixed
122.424	1.0	0.015	181.077	9.0	1	-1.0	-1.0	9.3024	955.0	1.0	Certain	-0.3	-2.57	0.0	No	n/a	-2.2666100415251003	n/a	n/a	n/a	ShowResult	Mixed
123.441	2.0	0.017	182.094	9.0	1	-1.0	-1.0	9.3024	955.0	1.0	Certain	-0.3	-2.57	0.0	No	n/a	-2.2666100415251003	n/a	n/a	n/a	ISITrial	Mixed
125.473	3.0	0.032	184.126	10.0	1	-4.0	-4.0	8.8024	955.0	1.5	Certain	-11.55	2.1	4.0	Yes	4.0	13.653454133635302	1.813	127.286	n/a	GetAnswer	Mixed
127.306	4.0	0.02	185.959	10.0	1	-4.0	-4.0	8.8024	955.0	1.5	Certain	-11.55	2.1	4.0	Yes	n/a	13.653454133635302	n/a	n/a	n/a	ShowChoice	Mixed
131.321	1.0	0.015	189.974	10.0	1	-4.0	-4.0	8.8024	955.0	1.5	Certain	-11.55	2.1	4.0	Yes	n/a	13.653454133635302	n/a	n/a	n/a	ShowResult	Mixed
132.338	2.0	0.017	190.991	10.0	1	-4.0	-4.0	8.8024	955.0	1.5	Certain	-11.55	2.1	4.0	Yes	n/a	13.653454133635302	n/a	n/a	n/a	ISITrial	Mixed
134.354	4.0	0.016	193.007	10.0	1	-4.0	-4.0	8.8024	955.0	1.5	Certain	-11.55	2.1	4.0	Yes	n/a	13.653454133635302	n/a	n/a	n/a	TrialHappPreview	Mixed
138.386	4.015	0.032	197.039	10.0	1	-4.0	-4.0	8.8024	955.0	1.5	Certain	-11.55	2.1	4.0	Yes	n/a	13.653454133635302	n/a	n/a	384.0	TrialHappiness	Mixed
138.386	1.444	n/a	199.098	10.0	1	-4.0	-4.0	8.8024	955.0	1.5	Certain	-11.55	2.1	4.0	Yes	n/a	13.653454133635302	n/a	n/a	384.0	TrialHappinessSliderResponse	Mixed
142.401	8.0	4.015	201.054	10.0	1	-4.0	-4.0	8.8024	955.0	1.5	Certain	-11.55	2.1	4.0	Yes	n/a	13.653454133635302	n/a	n/a	n/a	ISIRate	Mixed
150.431	3.0	0.03	209.084	11.0	1	2.72	2.72	9.1424	955.0	5.0	Certain	8.3	5.43	0.0	No	4.0	-2.8696677991695	0.948	151.379	n/a	GetAnswer	Gain
151.398	4.0	0.019	210.051	11.0	1	2.72	2.72	9.1424	955.0	5.0	Certain	8.3	5.43	0.0	No	n/a	-2.8696677991695	n/a	n/a	n/a	ShowChoice	Gain
155.413	1.0	0.015	214.066	11.0	1	2.72	2.72	9.1424	955.0	5.0	Certain	8.3	5.43	0.0	No	n/a	-2.8696677991695	n/a	n/a	n/a	ShowResult	Gain
156.429	3.324	0.016	215.082	11.0	1	2.72	2.72	9.1424	955.0	5.0	Certain	8.3	5.43	0.0	No	n/a	-2.8696677991695	n/a	n/a	n/a	ISITrial	Gain
159.778	3.0	0.025	218.431	12.0	1	-9.0	-9.0	8.0174	955.0	0.52	Certain	-0.9	-17.88	2.61875	Yes	4.0	16.9762174405436	0.916	160.694	n/a	GetAnswer	Mixed
160.711	4.0	0.017	219.364	12.0	1	-9.0	-9.0	8.0174	955.0	0.52	Certain	-0.9	-17.88	2.61875	Yes	n/a	16.9762174405436	n/a	n/a	n/a	ShowChoice	Mixed
164.727	1.0	0.016	223.38	12.0	1	-9.0	-9.0	8.0174	955.0	0.52	Certain	-0.9	-17.88	2.61875	Yes	n/a	16.9762174405436	n/a	n/a	n/a	ShowResult	Mixed
165.743	6.642	0.016	224.396	12.0	1	-9.0	-9.0	8.0174	955.0	0.52	Certain	-0.9	-17.88	2.61875	Yes	n/a	16.9762174405436	n/a	n/a	n/a	ISITrial	Mixed
172.407	2.619	0.022	231.06	12.0	1	-9.0	-9.0	8.0174	955.0	0.52	Certain	-0.9	-17.88	2.61875	Yes	n/a	16.9762174405436	n/a	n/a	n/a	TrialHappPreview	Mixed
175.04	4.015	0.014	233.693	12.0	1	-9.0	-9.0	8.0174	955.0	0.52	Certain	-0.9	-17.88	2.61875	Yes	n/a	16.9762174405436	n/a	n/a	304.0	TrialHappiness	Mixed
175.04	1.372	n/a	233.91	12.0	1	-9.0	-9.0	8.0174	955.0	0.52	Certain	-0.9	-17.88	2.61875	Yes	n/a	16.9762174405436	n/a	n/a	304.0	TrialHappinessSliderResponse	Mixed
179.055	2.475	4.015	237.708	12.0	1	-9.0	-9.0	8.0174	955.0	0.52	Certain	-0.9	-17.88	2.61875	Yes	n/a	16.9762174405436	n/a	n/a	n/a	ISIRate	Mixed
181.554	3.0	0.024	240.207	13.0	1	3.5	3.5	8.4549	955.0	5.0	Certain	10.3	7.0	0.0	No	4.0	-3.3020951302378303	0.828	182.382	n/a	GetAnswer	Gain
182.404	4.0	0.022	241.057	13.0	1	3.5	3.5	8.4549	955.0	5.0	Certain	10.3	7.0	0.0	No	n/a	-3.3020951302378303	n/a	n/a	n/a	ShowChoice	Gain
186.419	1.0	0.015	245.072	13.0	1	3.5	3.5	8.4549	955.0	5.0	Certain	10.3	7.0	0.0	No	n/a	-3.3020951302378303	n/a	n/a	n/a	ShowResult	Gain
187.435	3.48	0.016	246.088	13.0	1	3.5	3.5	8.4549	955.0	5.0	Certain	10.3	7.0	0.0	No	n/a	-3.3020951302378303	n/a	n/a	n/a	ISITrial	Gain
190.934	3.0	0.019	249.587	14.0	1	-3.21	-3.21	8.0537	955.0	2.48	Certain	-6.42	13.3	0.0	No	4.0	19.7191392978482	0.737	191.671	n/a	GetAnswer	Loss
191.684	4.0	0.013	250.337	14.0	1	-3.21	-3.21	8.0537	955.0	2.48	Certain	-6.42	13.3	0.0	No	n/a	19.7191392978482	n/a	n/a	n/a	ShowChoice	Loss
195.699	1.0	0.015	254.352	14.0	1	-3.21	-3.21	8.0537	955.0	2.48	Certain	-6.42	13.3	0.0	No	n/a	19.7191392978482	n/a	n/a	n/a	ShowResult	Loss
196.716	5.019	0.017	255.369	14.0	1	-3.21	-3.21	8.0537	955.0	2.48	Certain	-6.42	13.3	0.0	No	n/a	19.7191392978482	n/a	n/a	n/a	ISITrial	Loss
201.764	3.0	0.029	260.417	15.0	1	-4.0	-4.0	7.5537	955.0	2.8	Certain	5.5	-14.96	3.3485	Yes	4.0	20.4563986409966	1.6	203.364	n/a	GetAnswer	Gain
203.38	4.0	0.016	262.033	15.0	1	-4.0	-4.0	7.5537	955.0	2.8	Certain	5.5	-14.96	3.3485	Yes	n/a	20.4563986409966	n/a	n/a	n/a	ShowChoice	Gain
207.395	1.0	0.015	266.048	15.0	1	-4.0	-4.0	7.5537	955.0	2.8	Certain	5.5	-14.96	3.3485	Yes	n/a	20.4563986409966	n/a	n/a	n/a	ShowResult	Gain
208.412	7.614	0.017	267.065	15.0	1	-4.0	-4.0	7.5537	955.0	2.8	Certain	5.5	-14.96	3.3485	Yes	n/a	20.4563986409966	n/a	n/a	n/a	ISITrial	Gain
216.042	3.348	0.016	274.695	15.0	1	-4.0	-4.0	7.5537	955.0	2.8	Certain	5.5	-14.96	3.3485	Yes	n/a	20.4563986409966	n/a	n/a	n/a	TrialHappPreview	Gain
219.408	4.015	0.018	278.061	15.0	1	-4.0	-4.0	7.5537	955.0	2.8	Certain	5.5	-14.96	3.3485	Yes	n/a	20.4563986409966	n/a	n/a	512.0	TrialHappiness	Gain
219.409	0.0	n/a	278.062	15.0	1	-4.0	-4.0	7.5537	955.0	2.8	Certain	5.5	-14.96	3.3485	Yes	n/a	20.4563986409966	n/a	n/a	512.0	TrialHappinessSliderResponse	Gain
223.423	5.394	4.015	282.076	15.0	1	-4.0	-4.0	7.5537	955.0	2.8	Certain	5.5	-14.96	3.3485	Yes	n/a	20.4563986409966	n/a	n/a	n/a	ISIRate	Gain
228.838	3.0	0.021	287.491	16.0	1	0.0	0.0	7.5537	955.0	2.22	Certain	-8.56	9.1	0.0	No	4.0	17.6602491506229	0.422	229.26	n/a	GetAnswer	Gain
229.271	4.0	0.011	287.924	16.0	1	0.0	0.0	7.5537	955.0	2.22	Certain	-8.56	9.1	0.0	No	n/a	17.6602491506229	n/a	n/a	n/a	ShowChoice	Gain
233.286	1.0	0.015	291.939	16.0	1	0.0	0.0	7.5537	955.0	2.22	Certain	-8.56	9.1	0.0	No	n/a	17.6602491506229	n/a	n/a	n/a	ShowResult	Gain
234.303	3.008	0.017	292.956	16.0	1	0.0	0.0	7.5537	955.0	2.22	Certain	-8.56	9.1	0.0	No	n/a	17.6602491506229	n/a	n/a	n/a	ISITrial	Gain
237.335	3.0	0.024	295.988	17.0	1	-8.0	-8.0	6.5537	955.0	0.4	Certain	-17.26	0.9	3.0415	Yes	4.0	18.1619479048698	1.643	238.978	n/a	GetAnswer	Mixed
239.001	4.0	0.023	297.654	17.0	1	-8.0	-8.0	6.5537	955.0	0.4	Certain	-17.26	0.9	3.0415	Yes	n/a	18.1619479048698	n/a	n/a	n/a	ShowChoice	Mixed
243.016	1.0	0.015	301.669	17.0	1	-8.0	-8.0	6.5537	955.0	0.4	Certain	-17.26	0.9	3.0415	Yes	n/a	18.1619479048698	n/a	n/a	n/a	ShowResult	Mixed
244.033	3.566	0.017	302.686	17.0	1	-8.0	-8.0	6.5537	955.0	0.4	Certain	-17.26	0.9	3.0415	Yes	n/a	18.1619479048698	n/a	n/a	n/a	ISITrial	Mixed
247.615	3.042	0.016	306.268	17.0	1	-8.0	-8.0	6.5537	955.0	0.4	Certain	-17.26	0.9	3.0415	Yes	n/a	18.1619479048698	n/a	n/a	n/a	TrialHappPreview	Mixed
250.681	4.015	0.024	309.334	17.0	1	-8.0	-8.0	6.5537	955.0	0.4	Certain	-17.26	0.9	3.0415	Yes	n/a	18.1619479048698	n/a	n/a	512.0	TrialHappiness	Mixed
250.681	0.0	n/a	309.334	17.0	1	-8.0	-8.0	6.5537	955.0	0.4	Certain	-17.26	0.9	3.0415	Yes	n/a	18.1619479048698	n/a	n/a	512.0	TrialHappinessSliderResponse	Mixed
254.696	4.166	4.015	313.349	17.0	1	-8.0	-8.0	6.5537	955.0	0.4	Certain	-17.26	0.9	3.0415	Yes	n/a	18.1619479048698	n/a	n/a	n/a	ISIRate	Mixed
258.878	3.0	0.016	317.531	18.0	1	7.1	-2.0	7.4412	955.0	2.22	Outcome2	-11.56	7.1	0.0	No	2.0	18.6636466591166	2.867	261.745	n/a	GetAnswer	Gain
261.76	4.0	0.015	320.413	18.0	1	7.1	-2.0	7.4412	955.0	2.22	Outcome2	-11.56	7.1	0.0	No	n/a	18.6636466591166	n/a	n/a	n/a	ShowChoice	Gain
265.775	1.0	0.015	324.428	18.0	1	7.1	-2.0	7.4412	955.0	2.22	Outcome2	-11.56	7.1	0.0	No	n/a	18.6636466591166	n/a	n/a	n/a	ShowResult	Gain
266.792	6.787	0.017	325.445	18.0	1	7.1	-2.0	7.4412	955.0	2.22	Outcome2	-11.56	7.1	0.0	No	n/a	18.6636466591166	n/a	n/a	n/a	ISITrial	Gain
273.606	3.0	0.027	332.259	19.0	1	1.0	1.0	7.5662	955.0	2.48	Certain	-7.87	11.3	0.0	No	4.0	19.1653454133635	0.907	274.513	n/a	GetAnswer	Loss
274.539	4.0	0.026	333.192	19.0	1	1.0	1.0	7.5662	955.0	2.48	Certain	-7.87	11.3	0.0	No	n/a	19.1653454133635	n/a	n/a	n/a	ShowChoice	Loss
278.554	1.0	0.015	337.207	19.0	1	1.0	1.0	7.5662	955.0	2.48	Certain	-7.87	11.3	0.0	No	n/a	19.1653454133635	n/a	n/a	n/a	ShowResult	Loss
279.571	2.0	0.017	338.224	19.0	1	1.0	1.0	7.5662	955.0	2.48	Certain	-7.87	11.3	0.0	No	n/a	19.1653454133635	n/a	n/a	n/a	ISITrial	Loss
281.603	3.0	0.032	340.256	20.0	1	2.64	2.64	7.8962	955.0	4.2	Certain	8.1	5.29	2.92125	Yes	4.0	-2.80955077387693	1.144	282.747	n/a	GetAnswer	Gain
282.77	4.0	0.023	341.423	20.0	1	2.64	2.64	7.8962	955.0	4.2	Certain	8.1	5.29	2.92125	Yes	n/a	-2.80955077387693	n/a	n/a	n/a	ShowChoice	Gain
286.785	1.0	0.015	345.438	20.0	1	2.64	2.64	7.8962	955.0	4.2	Certain	8.1	5.29	2.92125	Yes	n/a	-2.80955077387693	n/a	n/a	n/a	ShowResult	Gain
287.801	8.0	0.016	346.454	20.0	1	2.64	2.64	7.8962	955.0	4.2	Certain	8.1	5.29	2.92125	Yes	n/a	-2.80955077387693	n/a	n/a	n/a	ISITrial	Gain
295.815	2.921	0.014	354.468	20.0	1	2.64	2.64	7.8962	955.0	4.2	Certain	8.1	5.29	2.92125	Yes	n/a	-2.80955077387693	n/a	n/a	n/a	TrialHappPreview	Gain
298.764	4.032	0.028	357.417	20.0	1	2.64	2.64	7.8962	955.0	4.2	Certain	8.1	5.29	2.92125	Yes	n/a	-2.80955077387693	n/a	n/a	248.0	TrialHappiness	Gain
298.765	2.029	n/a	359.234	20.0	1	2.64	2.64	7.8962	955.0	4.2	Certain	8.1	5.29	2.92125	Yes	n/a	-2.80955077387693	n/a	n/a	248.0	TrialHappinessSliderResponse	Gain
302.796	3.685	4.032	361.449	20.0	1	2.64	2.64	7.8962	955.0	4.2	Certain	8.1	5.29	2.92125	Yes	n/a	-2.80955077387693	n/a	n/a	n/a	ISIRate	Gain
306.511	3.0	0.03	365.164	21.0	1	-1.0	-1.0	7.7712	955.0	1.82	Certain	-13.95	10.7	0.0	No	4.0	24.6534541336353	1.913	308.424	n/a	GetAnswer	Loss
308.444	4.0	0.02	367.097	21.0	1	-1.0	-1.0	7.7712	955.0	1.82	Certain	-13.95	10.7	0.0	No	n/a	24.6534541336353	n/a	n/a	n/a	ShowChoice	Loss
312.459	1.0	0.015	371.112	21.0	1	-1.0	-1.0	7.7712	955.0	1.82	Certain	-13.95	10.7	0.0	No	n/a	24.6534541336353	n/a	n/a	n/a	ShowResult	Loss
313.476	3.555	0.017	372.129	21.0	1	-1.0	-1.0	7.7712	955.0	1.82	Certain	-13.95	10.7	0.0	No	n/a	24.6534541336353	n/a	n/a	n/a	ISITrial	Loss
317.058	3.0	0.027	375.711	22.0	1	-12.0	-12.0	6.2712	955.0	0.3	Certain	0.7	-24.75	3.2195	Yes	4.0	25.454133635334102	0.428	317.486	n/a	GetAnswer	Mixed
317.508	4.0	0.022	376.161	22.0	1	-12.0	-12.0	6.2712	955.0	0.3	Certain	0.7	-24.75	3.2195	Yes	n/a	25.454133635334102	n/a	n/a	n/a	ShowChoice	Mixed
321.523	1.0	0.015	380.176	22.0	1	-12.0	-12.0	6.2712	955.0	0.3	Certain	0.7	-24.75	3.2195	Yes	n/a	25.454133635334102	n/a	n/a	n/a	ShowResult	Mixed
322.539	6.793	0.016	381.192	22.0	1	-12.0	-12.0	6.2712	955.0	0.3	Certain	0.7	-24.75	3.2195	Yes	n/a	25.454133635334102	n/a	n/a	n/a	ISITrial	Mixed
329.354	3.22	0.022	388.007	22.0	1	-12.0	-12.0	6.2712	955.0	0.3	Certain	0.7	-24.75	3.2195	Yes	n/a	25.454133635334102	n/a	n/a	n/a	TrialHappPreview	Mixed
332.602	4.016	0.028	391.255	22.0	1	-12.0	-12.0	6.2712	955.0	0.3	Certain	0.7	-24.75	3.2195	Yes	n/a	25.454133635334102	n/a	n/a	72.0	TrialHappiness	Mixed
332.603	1.168	n/a	392.61	22.0	1	-12.0	-12.0	6.2712	955.0	0.3	Certain	0.7	-24.75	3.2195	Yes	n/a	25.454133635334102	n/a	n/a	72.0	TrialHappinessSliderResponse	Mixed
336.618	4.878	4.016	395.271	22.0	1	-12.0	-12.0	6.2712	955.0	0.3	Certain	0.7	-24.75	3.2195	Yes	n/a	25.454133635334102	n/a	n/a	n/a	ISIRate	Mixed
341.516	3.0	0.02	400.169	23.0	1	6.3	-8.0	7.0587	955.0	5.0	Outcome1	6.3	-22.94	0.0	No	2.0	29.2446206115515	1.264	342.78	n/a	GetAnswer	Gain
342.799	4.0	0.019	401.452	23.0	1	6.3	-8.0	7.0587	955.0	5.0	Outcome1	6.3	-22.94	0.0	No	n/a	29.2446206115515	n/a	n/a	n/a	ShowChoice	Gain
346.814	1.0	0.015	405.467	23.0	1	6.3	-8.0	7.0587	955.0	5.0	Outcome1	6.3	-22.94	0.0	No	n/a	29.2446206115515	n/a	n/a	n/a	ShowResult	Gain
347.831	8.0	0.017	406.484	23.0	1	6.3	-8.0	7.0587	955.0	5.0	Outcome1	6.3	-22.94	0.0	No	n/a	29.2446206115515	n/a	n/a	n/a	ISITrial	Gain
355.861	3.0	0.03	414.514	24.0	1	-5.0	-5.0	6.4337	955.0	3.16	Certain	9.7	-20.54	3.255	Yes	4.0	30.2446206115515	0.49	356.351	n/a	GetAnswer	Gain
356.378	4.0	0.027	415.031	24.0	1	-5.0	-5.0	6.4337	955.0	3.16	Certain	9.7	-20.54	3.255	Yes	n/a	30.2446206115515	n/a	n/a	n/a	ShowChoice	Gain
360.393	1.0	0.015	419.046	24.0	1	-5.0	-5.0	6.4337	955.0	3.16	Certain	9.7	-20.54	3.255	Yes	n/a	30.2446206115515	n/a	n/a	n/a	ShowResult	Gain
361.409	2.0	0.016	420.062	24.0	1	-5.0	-5.0	6.4337	955.0	3.16	Certain	9.7	-20.54	3.255	Yes	n/a	30.2446206115515	n/a	n/a	n/a	ISITrial	Gain
363.425	3.255	0.016	422.078	24.0	1	-5.0	-5.0	6.4337	955.0	3.16	Certain	9.7	-20.54	3.255	Yes	n/a	30.2446206115515	n/a	n/a	n/a	TrialHappPreview	Gain
366.707	4.016	0.027	425.36	24.0	1	-5.0	-5.0	6.4337	955.0	3.16	Certain	9.7	-20.54	3.255	Yes	n/a	30.2446206115515	n/a	n/a	280.0	TrialHappiness	Gain
366.709	2.737	n/a	426.431	24.0	1	-5.0	-5.0	6.4337	955.0	3.16	Certain	9.7	-20.54	3.255	Yes	n/a	30.2446206115515	n/a	n/a	280.0	TrialHappinessSliderResponse	Gain
370.723	5.02	4.016	429.376	24.0	1	-5.0	-5.0	6.4337	955.0	3.16	Certain	9.7	-20.54	3.255	Yes	n/a	30.2446206115515	n/a	n/a	n/a	ISIRate	Gain
375.771	3.0	0.028	434.424	25.0	1	0.0	0.0	6.4337	955.0	0.3	Certain	2.7	-1.39	0.0	No	4.0	-4.09295960739902	0.787	376.558	n/a	GetAnswer	Mixed
376.571	4.0	0.013	435.224	25.0	1	0.0	0.0	6.4337	955.0	0.3	Certain	2.7	-1.39	0.0	No	n/a	-4.09295960739902	n/a	n/a	n/a	ShowChoice	Mixed
380.586	1.0	0.015	439.239	25.0	1	0.0	0.0	6.4337	955.0	0.3	Certain	2.7	-1.39	0.0	No	n/a	-4.09295960739902	n/a	n/a	n/a	ShowResult	Mixed
381.602	3.749	0.016	440.255	25.0	1	0.0	0.0	6.4337	955.0	0.3	Certain	2.7	-1.39	0.0	No	n/a	-4.09295960739902	n/a	n/a	n/a	ISITrial	Mixed
385.368	3.0	0.017	444.021	26.0	1	-10.0	-10.0	5.1837	955.0	1.2	Certain	-24.58	3.9	0.0	No	4.0	28.475651189128	0.481	385.849	n/a	GetAnswer	Mixed
385.868	4.0	0.019	444.521	26.0	1	-10.0	-10.0	5.1837	955.0	1.2	Certain	-24.58	3.9	0.0	No	n/a	28.475651189128	n/a	n/a	n/a	ShowChoice	Mixed
389.883	1.0	0.015	448.536	26.0	1	-10.0	-10.0	5.1837	955.0	1.2	Certain	-24.58	3.9	0.0	No	n/a	28.475651189128	n/a	n/a	n/a	ShowResult	Mixed
390.899	7.834	0.016	449.552	26.0	1	-10.0	-10.0	5.1837	955.0	1.2	Certain	-24.58	3.9	0.0	No	n/a	28.475651189128	n/a	n/a	n/a	ISITrial	Mixed
398.763	3.0	0.03	457.416	27.0	1	-11.0	-11.0	3.8087	955.0	0.66	Certain	3.3	-25.94	2.54975	Yes	4.0	29.240090600226495	1.151	399.914	n/a	GetAnswer	Mixed
399.929	4.0	0.015	458.582	27.0	1	-11.0	-11.0	3.8087	955.0	0.66	Certain	3.3	-25.94	2.54975	Yes	n/a	29.240090600226495	n/a	n/a	n/a	ShowChoice	Mixed
403.945	1.0	0.016	462.598	27.0	1	-11.0	-11.0	3.8087	955.0	0.66	Certain	3.3	-25.94	2.54975	Yes	n/a	29.240090600226495	n/a	n/a	n/a	ShowResult	Mixed
404.961	4.225	0.016	463.614	27.0	1	-11.0	-11.0	3.8087	955.0	0.66	Certain	3.3	-25.94	2.54975	Yes	n/a	29.240090600226495	n/a	n/a	n/a	ISITrial	Mixed
409.21	2.55	0.024	467.863	27.0	1	-11.0	-11.0	3.8087	955.0	0.66	Certain	3.3	-25.94	2.54975	Yes	n/a	29.240090600226495	n/a	n/a	n/a	TrialHappPreview	Mixed
411.775	4.016	0.015	470.428	27.0	1	-11.0	-11.0	3.8087	955.0	0.66	Certain	3.3	-25.94	2.54975	Yes	n/a	29.240090600226495	n/a	n/a	72.0	TrialHappiness	Mixed
411.776	2.006	n/a	471.022	27.0	1	-11.0	-11.0	3.8087	955.0	0.66	Certain	3.3	-25.94	2.54975	Yes	n/a	29.240090600226495	n/a	n/a	72.0	TrialHappinessSliderResponse	Mixed
415.791	2.199	4.016	474.444	27.0	1	-11.0	-11.0	3.8087	955.0	0.66	Certain	3.3	-25.94	2.54975	Yes	n/a	29.240090600226495	n/a	n/a	n/a	ISIRate	Mixed
516.54	1.607	n/a	575.409	n/a	1	n/a	n/a	n/a	n/a	n/a	n/a	n/a	n/a	n/a	n/a	n/a	n/a	n/a	n/a	320.0	BlockStartHappinessSliderResponse	n/a
-112.861	-0.001	0.017	476.66	n/a	2	n/a	n/a	n/a	n/a	n/a	n/a	n/a	n/a	n/a	n/a	{SPACE}	n/a	94.503	-18.358	n/a	Rest	n/a
-18.344	4.0	0.014	571.177	n/a	2	n/a	n/a	n/a	n/a	n/a	n/a	n/a	n/a	n/a	n/a	n/a	n/a	n/a	n/a	n/a	BlockHappyPreview	n/a
-14.329	1.823	0.015	575.192	n/a	2	n/a	n/a	n/a	n/a	n/a	n/a	n/a	n/a	n/a	n/a	n/a	n/a	n/a	n/a	320.0	BlockStartHappiness	n/a
-6.848	-0.001	0.02	582.673	n/a	2	n/a	n/a	n/a	n/a	n/a	n/a	n/a	n/a	n/a	n/a	5.0	n/a	6.822	-0.026	n/a	ScanWait	n/a
0.0	10.0	0.026	589.521	n/a	2	n/a	n/a	n/a	n/a	n/a	n/a	n/a	n/a	n/a	n/a	n/a	n/a	n/a	n/a	n/a	GetReady	n/a
10.03	3.0	0.03	599.551	28.0	2	-2.0	-2.0	3.5587	70.0	1.2	Certain	-4.35	-0.1	0.0	No	4.0	-4.25170068027211	0.394	10.424	n/a	GetAnswer	Mixed
10.446	4.0	0.022	599.967	28.0	2	-2.0	-2.0	3.5587	70.0	1.2	Certain	-4.35	-0.1	0.0	No	n/a	-4.25170068027211	n/a	n/a	n/a	ShowChoice	Mixed
14.462	1.0	0.016	603.983	28.0	2	-2.0	-2.0	3.5587	70.0	1.2	Certain	-4.35	-0.1	0.0	No	n/a	-4.25170068027211	n/a	n/a	n/a	ShowResult	Mixed
15.478	3.575	0.016	604.999	28.0	2	-2.0	-2.0	3.5587	70.0	1.2	Certain	-4.35	-0.1	0.0	No	n/a	-4.25170068027211	n/a	n/a	n/a	ISITrial	Mixed
19.077	3.0	0.024	608.598	29.0	2	0.0	0.0	3.5587	70.0	0.66	Certain	-0.72	0.32	3.529	Yes	4.0	1.03930461073318	0.556	19.633	n/a	GetAnswer	Mixed
19.643	4.0	0.01	609.164	29.0	2	0.0	0.0	3.5587	70.0	0.66	Certain	-0.72	0.32	3.529	Yes	n/a	1.03930461073318	n/a	n/a	n/a	ShowChoice	Mixed
23.658	1.0	0.015	613.179	29.0	2	0.0	0.0	3.5587	70.0	0.66	Certain	-0.72	0.32	3.529	Yes	n/a	1.03930461073318	n/a	n/a	n/a	ShowResult	Mixed
24.675	3.955	0.017	614.196	29.0	2	0.0	0.0	3.5587	70.0	0.66	Certain	-0.72	0.32	3.529	Yes	n/a	1.03930461073318	n/a	n/a	n/a	ISITrial	Mixed
28.64	3.529	0.01	618.161	29.0	2	0.0	0.0	3.5587	70.0	0.66	Certain	-0.72	0.32	3.529	Yes	n/a	1.03930461073318	n/a	n/a	n/a	TrialHappPreview	Mixed
32.189	4.015	0.02	621.71	29.0	2	0.0	0.0	3.5587	70.0	0.66	Certain	-0.72	0.32	3.529	Yes	n/a	1.03930461073318	n/a	n/a	288.0	TrialHappiness	Mixed
32.19	1.435	n/a	622.25	29.0	2	0.0	0.0	3.5587	70.0	0.66	Certain	-0.72	0.32	3.529	Yes	n/a	1.03930461073318	n/a	n/a	288.0	TrialHappinessSliderResponse	Mixed
36.204	6.116	4.015	625.725	29.0	2	0.0	0.0	3.5587	70.0	0.66	Certain	-0.72	0.32	3.529	Yes	n/a	1.03930461073318	n/a	n/a	n/a	ISIRate	Mixed
42.352	3.0	0.032	631.873	30.0	2	0.23	2.0	3.5875	70.0	1.68	Outcome2	4.5	0.23	0.0	No	2.0	-4.27437641723356	0.495	42.847	n/a	GetAnswer	Gain
42.869	4.0	0.022	632.39	30.0	2	0.23	2.0	3.5875	70.0	1.68	Outcome2	4.5	0.23	0.0	No	n/a	-4.27437641723356	n/a	n/a	n/a	ShowChoice	Gain
46.884	1.0	0.015	636.405	30.0	2	0.23	2.0	3.5875	70.0	1.68	Outcome2	4.5	0.23	0.0	No	n/a	-4.27437641723356	n/a	n/a	n/a	ShowResult	Gain
47.9	4.453	0.016	637.421	30.0	2	0.23	2.0	3.5875	70.0	1.68	Outcome2	4.5	0.23	0.0	No	n/a	-4.27437641723356	n/a	n/a	n/a	ISITrial	Gain
52.382	3.0	0.029	641.903	31.0	2	1.0	1.0	3.7125	70.0	0.82	Certain	3.5	-1.02	2.50325	Yes	4.0	-4.52154195011338	1.267	53.649	n/a	GetAnswer	Mixed
53.665	4.0	0.015	643.186	31.0	2	1.0	1.0	3.7125	70.0	0.82	Certain	3.5	-1.02	2.50325	Yes	n/a	-4.52154195011338	n/a	n/a	n/a	ShowChoice	Mixed
57.68	1.0	0.015	647.201	31.0	2	1.0	1.0	3.7125	70.0	0.82	Certain	3.5	-1.02	2.50325	Yes	n/a	-4.52154195011338	n/a	n/a	n/a	ShowResult	Mixed
58.696	4.786	0.016	648.217	31.0	2	1.0	1.0	3.7125	70.0	0.82	Certain	3.5	-1.02	2.50325	Yes	n/a	-4.52154195011338	n/a	n/a	n/a	ISITrial	Mixed
63.495	2.503	0.013	653.016	31.0	2	1.0	1.0	3.7125	70.0	0.82	Certain	3.5	-1.02	2.50325	Yes	n/a	-4.52154195011338	n/a	n/a	n/a	TrialHappPreview	Mixed
66.027	4.016	0.029	655.548	31.0	2	1.0	1.0	3.7125	70.0	0.82	Certain	3.5	-1.02	2.50325	Yes	n/a	-4.52154195011338	n/a	n/a	328.0	TrialHappiness	Mixed
66.028	0.528	n/a	655.959	31.0	2	1.0	1.0	3.7125	70.0	0.82	Certain	3.5	-1.02	2.50325	Yes	n/a	-4.52154195011338	n/a	n/a	328.0	TrialHappinessSliderResponse	Mixed
70.043	2.013	4.016	659.564	31.0	2	1.0	1.0	3.7125	70.0	0.82	Certain	3.5	-1.02	2.50325	Yes	n/a	-4.52154195011338	n/a	n/a	n/a	ISIRate	Mixed
72.075	3.0	0.019	661.596	32.0	2	-4.0	-4.0	3.2125	70.0	0.2	Certain	-6.95	-1.5	0.0	No	4.0	-5.44897959183673	1.073	73.148	n/a	GetAnswer	Mixed
73.175	4.0	0.027	662.696	32.0	2	-4.0	-4.0	3.2125	70.0	0.2	Certain	-6.95	-1.5	0.0	No	n/a	-5.44897959183673	n/a	n/a	n/a	ShowChoice	Mixed
77.19	1.0	0.015	666.711	32.0	2	-4.0	-4.0	3.2125	70.0	0.2	Certain	-6.95	-1.5	0.0	No	n/a	-5.44897959183673	n/a	n/a	n/a	ShowResult	Mixed
78.206	2.0	0.016	667.727	32.0	2	-4.0	-4.0	3.2125	70.0	0.2	Certain	-6.95	-1.5	0.0	No	n/a	-5.44897959183673	n/a	n/a	n/a	ISITrial	Mixed
80.222	3.0	0.016	669.743	33.0	2	1.0	1.0	3.3375	70.0	1.0	Certain	3.7	-2.04	0.0	No	4.0	-5.74149659863946	1.013	81.235	n/a	GetAnswer	Mixed
81.255	4.0	0.02	670.776	33.0	2	1.0	1.0	3.3375	70.0	1.0	Certain	3.7	-2.04	0.0	No	n/a	-5.74149659863946	n/a	n/a	n/a	ShowChoice	Mixed
85.271	1.0	0.016	674.792	33.0	2	1.0	1.0	3.3375	70.0	1.0	Certain	3.7	-2.04	0.0	No	n/a	-5.74149659863946	n/a	n/a	n/a	ShowResult	Mixed
86.287	5.099	0.016	675.808	33.0	2	1.0	1.0	3.3375	70.0	1.0	Certain	3.7	-2.04	0.0	No	n/a	-5.74149659863946	n/a	n/a	n/a	ISITrial	Mixed
91.402	3.0	0.016	680.923	34.0	2	1.0	1.0	3.4625	70.0	3.6	Certain	0.29	1.48	3.2315	Yes	4.0	1.1853741496598602	1.079	92.481	n/a	GetAnswer	Gain
92.502	4.0	0.021	682.023	34.0	2	1.0	1.0	3.4625	70.0	3.6	Certain	0.29	1.48	3.2315	Yes	n/a	1.1853741496598602	n/a	n/a	n/a	ShowChoice	Gain
96.517	1.0	0.015	686.038	34.0	2	1.0	1.0	3.4625	70.0	3.6	Certain	0.29	1.48	3.2315	Yes	n/a	1.1853741496598602	n/a	n/a	n/a	ShowResult	Gain
97.533	4.784	0.016	687.054	34.0	2	1.0	1.0	3.4625	70.0	3.6	Certain	0.29	1.48	3.2315	Yes	n/a	1.1853741496598602	n/a	n/a	n/a	ISITrial	Gain
102.332	3.232	0.015	691.853	34.0	2	1.0	1.0	3.4625	70.0	3.6	Certain	0.29	1.48	3.2315	Yes	n/a	1.1853741496598602	n/a	n/a	n/a	TrialHappPreview	Gain
105.58	4.016	0.016	695.101	34.0	2	1.0	1.0	3.4625	70.0	3.6	Certain	0.29	1.48	3.2315	Yes	n/a	1.1853741496598602	n/a	n/a	400.0	TrialHappiness	Gain
105.581	0.374	n/a	698.649	34.0	2	1.0	1.0	3.4625	70.0	3.6	Certain	0.29	1.48	3.2315	Yes	n/a	1.1853741496598602	n/a	n/a	400.0	TrialHappinessSliderResponse	Gain
109.596	4.926	4.016	699.117	34.0	2	1.0	1.0	3.4625	70.0	3.6	Certain	0.29	1.48	3.2315	Yes	n/a	1.1853741496598602	n/a	n/a	n/a	ISIRate	Gain
114.544	3.0	0.022	704.065	35.0	2	3.18	3.18	3.86	70.0	3.6	Certain	6.35	13.9	0.0	No	4.0	-7.55102040816327	0.917	115.461	n/a	GetAnswer	Loss
115.477	4.0	0.016	704.998	35.0	2	3.18	3.18	3.86	70.0	3.6	Certain	6.35	13.9	0.0	No	n/a	-7.55102040816327	n/a	n/a	n/a	ShowChoice	Loss
119.492	1.0	0.015	709.013	35.0	2	3.18	3.18	3.86	70.0	3.6	Certain	6.35	13.9	0.0	No	n/a	-7.55102040816327	n/a	n/a	n/a	ShowResult	Loss
120.509	2.098	0.017	710.03	35.0	2	3.18	3.18	3.86	70.0	3.6	Certain	6.35	13.9	0.0	No	n/a	-7.55102040816327	n/a	n/a	n/a	ISITrial	Loss
122.625	3.0	0.018	712.146	36.0	2	-0.22	-0.22	3.8325	70.0	2.8	Certain	7.5	-0.43	3.33575	Yes	4.0	-7.92517006802721	0.484	123.109	n/a	GetAnswer	Gain
123.124	4.0	0.015	712.645	36.0	2	-0.22	-0.22	3.8325	70.0	2.8	Certain	7.5	-0.43	3.33575	Yes	n/a	-7.92517006802721	n/a	n/a	n/a	ShowChoice	Gain
127.14	1.0	0.016	716.661	36.0	2	-0.22	-0.22	3.8325	70.0	2.8	Certain	7.5	-0.43	3.33575	Yes	n/a	-7.92517006802721	n/a	n/a	n/a	ShowResult	Gain
128.156	5.156	0.016	717.677	36.0	2	-0.22	-0.22	3.8325	70.0	2.8	Certain	7.5	-0.43	3.33575	Yes	n/a	-7.92517006802721	n/a	n/a	n/a	ISITrial	Gain
133.338	3.336	0.026	722.859	36.0	2	-0.22	-0.22	3.8325	70.0	2.8	Certain	7.5	-0.43	3.33575	Yes	n/a	-7.92517006802721	n/a	n/a	n/a	TrialHappPreview	Gain
136.703	4.015	0.029	726.224	36.0	2	-0.22	-0.22	3.8325	70.0	2.8	Certain	7.5	-0.43	3.33575	Yes	n/a	-7.92517006802721	n/a	n/a	512.0	TrialHappiness	Gain
136.704	0.0	n/a	726.225	36.0	2	-0.22	-0.22	3.8325	70.0	2.8	Certain	7.5	-0.43	3.33575	Yes	n/a	-7.92517006802721	n/a	n/a	512.0	TrialHappinessSliderResponse	Gain
140.718	5.343	4.015	730.239	36.0	2	-0.22	-0.22	3.8325	70.0	2.8	Certain	7.5	-0.43	3.33575	Yes	n/a	-7.92517006802721	n/a	n/a	n/a	ISIRate	Gain
146.083	3.0	0.022	735.604	37.0	2	2.0	2.0	4.0825	70.0	5.0	Certain	3.08	1.06	0.0	No	4.0	2.01965230536659	2.162	148.245	n/a	GetAnswer	Loss
148.266	4.0	0.021	737.787	37.0	2	2.0	2.0	4.0825	70.0	5.0	Certain	3.08	1.06	0.0	No	n/a	2.01965230536659	n/a	n/a	n/a	ShowChoice	Loss
152.281	1.0	0.015	741.802	37.0	2	2.0	2.0	4.0825	70.0	5.0	Certain	3.08	1.06	0.0	No	n/a	2.01965230536659	n/a	n/a	n/a	ShowResult	Loss
153.297	3.598	0.016	742.818	37.0	2	2.0	2.0	4.0825	70.0	5.0	Certain	3.08	1.06	0.0	No	n/a	2.01965230536659	n/a	n/a	n/a	ISITrial	Loss
156.913	3.0	0.018	746.434	38.0	2	0.7	0.7	4.17	70.0	4.2	Certain	1.39	12.1	0.0	No	4.0	-10.7052154195011	1.256	158.169	n/a	GetAnswer	Loss
158.196	4.0	0.027	747.717	38.0	2	0.7	0.7	4.17	70.0	4.2	Certain	1.39	12.1	0.0	No	n/a	-10.7052154195011	n/a	n/a	n/a	ShowChoice	Loss
162.211	1.0	0.015	751.732	38.0	2	0.7	0.7	4.17	70.0	4.2	Certain	1.39	12.1	0.0	No	n/a	-10.7052154195011	n/a	n/a	n/a	ShowResult	Loss
163.227	4.787	0.016	752.748	38.0	2	0.7	0.7	4.17	70.0	4.2	Certain	1.39	12.1	0.0	No	n/a	-10.7052154195011	n/a	n/a	n/a	ISITrial	Loss
168.042	3.0	0.028	757.563	39.0	2	-1.0	-1.0	4.045	70.0	1.5	Certain	4.1	-7.11	2.86425	Yes	4.0	-11.2063492063492	1.196	169.238	n/a	GetAnswer	Mixed
169.259	4.0	0.021	758.78	39.0	2	-1.0	-1.0	4.045	70.0	1.5	Certain	4.1	-7.11	2.86425	Yes	n/a	-11.2063492063492	n/a	n/a	n/a	ShowChoice	Mixed
173.274	1.0	0.015	762.795	39.0	2	-1.0	-1.0	4.045	70.0	1.5	Certain	4.1	-7.11	2.86425	Yes	n/a	-11.2063492063492	n/a	n/a	n/a	ShowResult	Mixed
174.29	2.348	0.016	763.811	39.0	2	-1.0	-1.0	4.045	70.0	1.5	Certain	4.1	-7.11	2.86425	Yes	n/a	-11.2063492063492	n/a	n/a	n/a	ISITrial	Mixed
176.656	2.864	0.018	766.177	39.0	2	-1.0	-1.0	4.045	70.0	1.5	Certain	4.1	-7.11	2.86425	Yes	n/a	-11.2063492063492	n/a	n/a	n/a	TrialHappPreview	Mixed
179.538	4.016	0.018	769.059	39.0	2	-1.0	-1.0	4.045	70.0	1.5	Certain	4.1	-7.11	2.86425	Yes	n/a	-11.2063492063492	n/a	n/a	600.0	TrialHappiness	Mixed
179.539	0.651	n/a	771.698	39.0	2	-1.0	-1.0	4.045	70.0	1.5	Certain	4.1	-7.11	2.86425	Yes	n/a	-11.2063492063492	n/a	n/a	600.0	TrialHappinessSliderResponse	Mixed
183.554	3.457	4.016	773.075	39.0	2	-1.0	-1.0	4.045	70.0	1.5	Certain	4.1	-7.11	2.86425	Yes	n/a	-11.2063492063492	n/a	n/a	n/a	ISIRate	Mixed
187.036	3.0	0.025	776.557	40.0	2	-4.0	-4.0	3.545	70.0	0.2	Certain	2.5	-10.7	0.0	No	4.0	-13.2040816326531	0.623	187.659	n/a	GetAnswer	Mixed
187.686	4.0	0.027	777.207	40.0	2	-4.0	-4.0	3.545	70.0	0.2	Certain	2.5	-10.7	0.0	No	n/a	-13.2040816326531	n/a	n/a	n/a	ShowChoice	Mixed
191.701	1.0	0.015	781.222	40.0	2	-4.0	-4.0	3.545	70.0	0.2	Certain	2.5	-10.7	0.0	No	n/a	-13.2040816326531	n/a	n/a	n/a	ShowResult	Mixed
192.717	3.158	0.016	782.238	40.0	2	-4.0	-4.0	3.545	70.0	0.2	Certain	2.5	-10.7	0.0	No	n/a	-13.2040816326531	n/a	n/a	n/a	ISITrial	Mixed
195.9	3.0	0.025	785.421	41.0	2	2.0	2.0	3.795	70.0	2.48	Certain	9.3	-4.5	4.0	Yes	4.0	-13.8049886621315	0.814	196.714	n/a	GetAnswer	Gain
196.733	4.0	0.019	786.254	41.0	2	2.0	2.0	3.795	70.0	2.48	Certain	9.3	-4.5	4.0	Yes	n/a	-13.8049886621315	n/a	n/a	n/a	ShowChoice	Gain
200.748	1.0	0.015	790.269	41.0	2	2.0	2.0	3.795	70.0	2.48	Certain	9.3	-4.5	4.0	Yes	n/a	-13.8049886621315	n/a	n/a	n/a	ShowResult	Gain
201.764	4.506	0.016	791.285	41.0	2	2.0	2.0	3.795	70.0	2.48	Certain	9.3	-4.5	4.0	Yes	n/a	-13.8049886621315	n/a	n/a	n/a	ISITrial	Gain
206.296	4.0	0.026	795.817	41.0	2	2.0	2.0	3.795	70.0	2.48	Certain	9.3	-4.5	4.0	Yes	n/a	-13.8049886621315	n/a	n/a	n/a	TrialHappPreview	Gain
210.328	4.015	0.032	799.849	41.0	2	2.0	2.0	3.795	70.0	2.48	Certain	9.3	-4.5	4.0	Yes	n/a	-13.8049886621315	n/a	n/a	512.0	TrialHappiness	Gain
210.329	0.0	n/a	799.85	41.0	2	2.0	2.0	3.795	70.0	2.48	Certain	9.3	-4.5	4.0	Yes	n/a	-13.8049886621315	n/a	n/a	512.0	TrialHappinessSliderResponse	Gain
214.343	8.0	4.015	803.864	41.0	2	2.0	2.0	3.795	70.0	2.48	Certain	9.3	-4.5	4.0	Yes	n/a	-13.8049886621315	n/a	n/a	n/a	ISIRate	Gain
222.374	3.0	0.031	811.895	42.0	2	1.0	1.0	3.92	70.0	2.0	Certain	0.47	2.72	0.0	No	4.0	2.24508692365835	1.174	223.548	n/a	GetAnswer	Loss
223.573	4.0	0.025	813.094	42.0	2	1.0	1.0	3.92	70.0	2.0	Certain	0.47	2.72	0.0	No	n/a	2.24508692365835	n/a	n/a	n/a	ShowChoice	Loss
227.589	1.0	0.016	817.11	42.0	2	1.0	1.0	3.92	70.0	2.0	Certain	0.47	2.72	0.0	No	n/a	2.24508692365835	n/a	n/a	n/a	ShowResult	Loss
228.605	6.248	0.016	818.126	42.0	2	1.0	1.0	3.92	70.0	2.0	Certain	0.47	2.72	0.0	No	n/a	2.24508692365835	n/a	n/a	n/a	ISITrial	Loss
234.87	3.0	0.017	824.391	43.0	2	2.0	2.0	4.17	70.0	1.68	Certain	3.12	0.83	2.77575	Yes	4.0	2.28684807256236	0.786	235.656	n/a	GetAnswer	Loss
235.669	4.0	0.013	825.19	43.0	2	2.0	2.0	4.17	70.0	1.68	Certain	3.12	0.83	2.77575	Yes	n/a	2.28684807256236	n/a	n/a	n/a	ShowChoice	Loss
239.685	1.0	0.016	829.206	43.0	2	2.0	2.0	4.17	70.0	1.68	Certain	3.12	0.83	2.77575	Yes	n/a	2.28684807256236	n/a	n/a	n/a	ShowResult	Loss
240.701	4.596	0.016	830.222	43.0	2	2.0	2.0	4.17	70.0	1.68	Certain	3.12	0.83	2.77575	Yes	n/a	2.28684807256236	n/a	n/a	n/a	ISITrial	Loss
245.316	2.776	0.019	834.837	43.0	2	2.0	2.0	4.17	70.0	1.68	Certain	3.12	0.83	2.77575	Yes	n/a	2.28684807256236	n/a	n/a	n/a	TrialHappPreview	Loss
248.115	4.015	0.023	837.636	43.0	2	2.0	2.0	4.17	70.0	1.68	Certain	3.12	0.83	2.77575	Yes	n/a	2.28684807256236	n/a	n/a	512.0	TrialHappiness	Loss
248.116	0.0	n/a	837.637	43.0	2	2.0	2.0	4.17	70.0	1.68	Certain	3.12	0.83	2.77575	Yes	n/a	2.28684807256236	n/a	n/a	512.0	TrialHappinessSliderResponse	Loss
252.13	3.103	4.015	841.651	43.0	2	2.0	2.0	4.17	70.0	1.68	Certain	3.12	0.83	2.77575	Yes	n/a	2.28684807256236	n/a	n/a	n/a	ISIRate	Loss
255.263	3.0	0.03	844.784	44.0	2	-8.21	-1.0	3.1437	70.0	3.16	Outcome1	-8.21	5.7	0.0	No	n/a	-13.911564625850302	n/a	n/a	n/a	GetAnswer	Gain
258.278	4.0	0.015	847.799	44.0	2	-8.21	-1.0	3.1437	70.0	3.16	Outcome1	-8.21	5.7	0.0	No	n/a	-13.911564625850302	n/a	n/a	n/a	ShowChoice	Gain
262.293	1.0	0.015	851.814	44.0	2	-8.21	-1.0	3.1437	70.0	3.16	Outcome1	-8.21	5.7	0.0	No	n/a	-13.911564625850302	n/a	n/a	n/a	ShowResult	Gain
263.31	2.42	0.017	852.831	44.0	2	-8.21	-1.0	3.1437	70.0	3.16	Outcome1	-8.21	5.7	0.0	No	n/a	-13.911564625850302	n/a	n/a	n/a	ISITrial	Gain
265.759	3.0	0.029	855.28	45.0	2	0.0	0.0	3.1437	70.0	3.16	Certain	7.7	-6.71	0.0	No	4.0	-14.4126984126984	2.073	267.832	n/a	GetAnswer	Gain
267.858	4.0	0.026	857.379	45.0	2	0.0	0.0	3.1437	70.0	3.16	Certain	7.7	-6.71	0.0	No	n/a	-14.4126984126984	n/a	n/a	n/a	ShowChoice	Gain
271.873	1.0	0.015	861.394	45.0	2	0.0	0.0	3.1437	70.0	3.16	Certain	7.7	-6.71	0.0	No	n/a	-14.4126984126984	n/a	n/a	n/a	ShowResult	Gain
272.89	3.144	0.017	862.411	45.0	2	0.0	0.0	3.1437	70.0	3.16	Certain	7.7	-6.71	0.0	No	n/a	-14.4126984126984	n/a	n/a	n/a	ISITrial	Gain
276.055	3.0	0.021	865.576	46.0	2	-8.0	-8.0	2.1437	70.0	0.82	Certain	-0.5	-15.41	3.84125	Yes	4.0	-14.9138321995465	1.055	277.11	n/a	GetAnswer	Mixed
277.138	4.0	0.027	866.659	46.0	2	-8.0	-8.0	2.1437	70.0	0.82	Certain	-0.5	-15.41	3.84125	Yes	n/a	-14.9138321995465	n/a	n/a	n/a	ShowChoice	Mixed
281.154	1.0	0.016	870.675	46.0	2	-8.0	-8.0	2.1437	70.0	0.82	Certain	-0.5	-15.41	3.84125	Yes	n/a	-14.9138321995465	n/a	n/a	n/a	ShowResult	Mixed
282.17	2.246	0.016	871.691	46.0	2	-8.0	-8.0	2.1437	70.0	0.82	Certain	-0.5	-15.41	3.84125	Yes	n/a	-14.9138321995465	n/a	n/a	n/a	ISITrial	Mixed
284.436	3.841	0.02	873.957	46.0	2	-8.0	-8.0	2.1437	70.0	0.82	Certain	-0.5	-15.41	3.84125	Yes	n/a	-14.9138321995465	n/a	n/a	n/a	TrialHappPreview	Mixed
288.301	4.016	0.024	877.822	46.0	2	-8.0	-8.0	2.1437	70.0	0.82	Certain	-0.5	-15.41	3.84125	Yes	n/a	-14.9138321995465	n/a	n/a	224.0	TrialHappiness	Mixed
288.302	1.929	n/a	878.333	46.0	2	-8.0	-8.0	2.1437	70.0	0.82	Certain	-0.5	-15.41	3.84125	Yes	n/a	-14.9138321995465	n/a	n/a	224.0	TrialHappinessSliderResponse	Mixed
292.317	7.365	4.016	881.838	46.0	2	-8.0	-8.0	2.1437	70.0	0.82	Certain	-0.5	-15.41	3.84125	Yes	n/a	-14.9138321995465	n/a	n/a	n/a	ISIRate	Mixed
299.697	3.0	0.015	889.218	47.0	2	2.38	1.0	2.4412	70.0	2.8	Outcome1	2.38	1.1	0.0	No	2.0	1.2838246409675	0.507	300.204	n/a	GetAnswer	Gain
300.23	4.0	0.026	889.751	47.0	2	2.38	1.0	2.4412	70.0	2.8	Outcome1	2.38	1.1	0.0	No	n/a	1.2838246409675	n/a	n/a	n/a	ShowChoice	Gain
304.246	1.0	0.016	893.767	47.0	2	2.38	1.0	2.4412	70.0	2.8	Outcome1	2.38	1.1	0.0	No	n/a	1.2838246409675	n/a	n/a	n/a	ShowResult	Gain
305.262	2.0	0.016	894.783	47.0	2	2.38	1.0	2.4412	70.0	2.8	Outcome1	2.38	1.1	0.0	No	n/a	1.2838246409675	n/a	n/a	n/a	ISITrial	Gain
307.278	3.0	0.016	896.799	48.0	2	-10.59	-5.0	1.1174	70.0	1.5	Outcome2	0.1	-10.59	2.83175	Yes	n/a	-10.6916099773243	n/a	n/a	n/a	GetAnswer	Mixed
310.294	4.0	0.016	899.815	48.0	2	-10.59	-5.0	1.1174	70.0	1.5	Outcome2	0.1	-10.59	2.83175	Yes	n/a	-10.6916099773243	n/a	n/a	n/a	ShowChoice	Mixed
314.309	1.0	0.015	903.83	48.0	2	-10.59	-5.0	1.1174	70.0	1.5	Outcome2	0.1	-10.59	2.83175	Yes	n/a	-10.6916099773243	n/a	n/a	n/a	ShowResult	Mixed
315.325	3.692	0.016	904.846	48.0	2	-10.59	-5.0	1.1174	70.0	1.5	Outcome2	0.1	-10.59	2.83175	Yes	n/a	-10.6916099773243	n/a	n/a	n/a	ISITrial	Mixed
319.041	2.832	0.024	908.562	48.0	2	-10.59	-5.0	1.1174	70.0	1.5	Outcome2	0.1	-10.59	2.83175	Yes	n/a	-10.6916099773243	n/a	n/a	n/a	TrialHappPreview	Mixed
321.89	4.015	0.017	911.411	48.0	2	-10.59	-5.0	1.1174	70.0	1.5	Outcome2	0.1	-10.59	2.83175	Yes	{-4}4{-4}	-10.6916099773243	2.405	324.295	424.0	TrialHappiness	Mixed
321.89	0.367	n/a	913.449	48.0	2	-10.59	-5.0	1.1174	70.0	1.5	Outcome2	0.1	-10.59	2.83175	Yes	n/a	-10.6916099773243	n/a	n/a	424.0	TrialHappinessSliderResponse	Mixed
325.905	3.327	4.015	915.426	48.0	2	-10.59	-5.0	1.1174	70.0	1.5	Outcome2	0.1	-10.59	2.83175	Yes	n/a	-10.6916099773243	n/a	n/a	n/a	ISIRate	Mixed
329.254	3.0	0.022	918.775	49.0	2	-9.17	-2.0	-0.0288	70.0	2.22	Outcome2	5.1	-9.17	0.0	No	n/a	-14.2675736961451	n/a	n/a	n/a	GetAnswer	Gain
332.269	4.0	0.015	921.79	49.0	2	-9.17	-2.0	-0.0288	70.0	2.22	Outcome2	5.1	-9.17	0.0	No	n/a	-14.2675736961451	n/a	n/a	n/a	ShowChoice	Gain
336.285	1.0	0.016	925.806	49.0	2	-9.17	-2.0	-0.0288	70.0	2.22	Outcome2	5.1	-9.17	0.0	No	n/a	-14.2675736961451	n/a	n/a	n/a	ShowResult	Gain
337.301	8.0	0.016	926.822	49.0	2	-9.17	-2.0	-0.0288	70.0	2.22	Outcome2	5.1	-9.17	0.0	No	n/a	-14.2675736961451	n/a	n/a	n/a	ISITrial	Gain
345.332	3.0	0.031	934.853	50.0	2	-1.48	-1.48	-0.2138	70.0	3.16	Certain	11.7	-2.97	3.54725	Yes	4.0	-14.668934240362802	0.842	346.174	n/a	GetAnswer	Loss
346.198	4.0	0.024	935.719	50.0	2	-1.48	-1.48	-0.2138	70.0	3.16	Certain	11.7	-2.97	3.54725	Yes	n/a	-14.668934240362802	n/a	n/a	n/a	ShowChoice	Loss
350.213	1.0	0.015	939.734	50.0	2	-1.48	-1.48	-0.2138	70.0	3.16	Certain	11.7	-2.97	3.54725	Yes	n/a	-14.668934240362802	n/a	n/a	n/a	ShowResult	Loss
351.23	7.537	0.017	940.751	50.0	2	-1.48	-1.48	-0.2138	70.0	3.16	Certain	11.7	-2.97	3.54725	Yes	n/a	-14.668934240362802	n/a	n/a	n/a	ISITrial	Loss
358.794	3.547	0.027	948.315	50.0	2	-1.48	-1.48	-0.2138	70.0	3.16	Certain	11.7	-2.97	3.54725	Yes	n/a	-14.668934240362802	n/a	n/a	n/a	TrialHappPreview	Loss
362.359	4.015	0.018	951.88	50.0	2	-1.48	-1.48	-0.2138	70.0	3.16	Certain	11.7	-2.97	3.54725	Yes	n/a	-14.668934240362802	n/a	n/a	264.0	TrialHappiness	Loss
362.36	1.325	n/a	953.927	50.0	2	-1.48	-1.48	-0.2138	70.0	3.16	Certain	11.7	-2.97	3.54725	Yes	n/a	-14.668934240362802	n/a	n/a	264.0	TrialHappinessSliderResponse	Loss
366.374	6.189	4.015	955.895	50.0	2	-1.48	-1.48	-0.2138	70.0	3.16	Certain	11.7	-2.97	3.54725	Yes	n/a	-14.668934240362802	n/a	n/a	n/a	ISIRate	Loss
372.589	3.0	0.026	962.11	51.0	2	2.0	2.0	0.0362	70.0	2.0	Certain	8.9	-3.45	0.0	No	4.0	-12.3492063492063	1.254	373.843	n/a	GetAnswer	Gain
373.855	4.0	0.012	963.376	51.0	2	2.0	2.0	0.0362	70.0	2.0	Certain	8.9	-3.45	0.0	No	n/a	-12.3492063492063	n/a	n/a	n/a	ShowChoice	Gain
377.871	1.0	0.016	967.392	51.0	2	2.0	2.0	0.0362	70.0	2.0	Certain	8.9	-3.45	0.0	No	n/a	-12.3492063492063	n/a	n/a	n/a	ShowResult	Gain
378.887	5.508	0.016	968.408	51.0	2	2.0	2.0	0.0362	70.0	2.0	Certain	8.9	-3.45	0.0	No	n/a	-12.3492063492063	n/a	n/a	n/a	ISITrial	Gain
384.418	3.0	0.023	973.939	52.0	2	2.0	2.0	0.2862	70.0	2.0	Certain	3.22	1.66	0.0	No	4.0	1.5606575963718798	0.457	384.875	n/a	GetAnswer	Loss
384.901	4.0	0.026	974.422	52.0	2	2.0	2.0	0.2862	70.0	2.0	Certain	3.22	1.66	0.0	No	n/a	1.5606575963718798	n/a	n/a	n/a	ShowChoice	Loss
388.917	1.0	0.016	978.438	52.0	2	2.0	2.0	0.2862	70.0	2.0	Certain	3.22	1.66	0.0	No	n/a	1.5606575963718798	n/a	n/a	n/a	ShowResult	Loss
389.933	5.913	0.016	979.454	52.0	2	2.0	2.0	0.2862	70.0	2.0	Certain	3.22	1.66	0.0	No	n/a	1.5606575963718798	n/a	n/a	n/a	ISITrial	Loss
395.864	3.0	0.018	985.385	53.0	2	0.0	0.0	0.2862	70.0	1.2	Certain	-1.1	0.48	2.99675	Yes	4.0	1.57898715041572	1.669	397.533	n/a	GetAnswer	Mixed
397.547	4.0	0.014	987.068	53.0	2	0.0	0.0	0.2862	70.0	1.2	Certain	-1.1	0.48	2.99675	Yes	n/a	1.57898715041572	n/a	n/a	n/a	ShowChoice	Mixed
401.562	1.0	0.015	991.083	53.0	2	0.0	0.0	0.2862	70.0	1.2	Certain	-1.1	0.48	2.99675	Yes	n/a	1.57898715041572	n/a	n/a	n/a	ShowResult	Mixed
402.579	3.66	0.017	992.1	53.0	2	0.0	0.0	0.2862	70.0	1.2	Certain	-1.1	0.48	2.99675	Yes	n/a	1.57898715041572	n/a	n/a	n/a	ISITrial	Mixed
406.261	2.997	0.022	995.782	53.0	2	0.0	0.0	0.2862	70.0	1.2	Certain	-1.1	0.48	2.99675	Yes	n/a	1.57898715041572	n/a	n/a	n/a	TrialHappPreview	Mixed
409.276	4.032	0.018	998.797	53.0	2	0.0	0.0	0.2862	70.0	1.2	Certain	-1.1	0.48	2.99675	Yes	n/a	1.57898715041572	n/a	n/a	72.0	TrialHappiness	Mixed
409.277	0.0	n/a	999.554	53.0	2	0.0	0.0	0.2862	70.0	1.2	Certain	-1.1	0.48	2.99675	Yes	n/a	1.57898715041572	n/a	n/a	72.0	TrialHappinessSliderResponse	Mixed
413.308	3.987	4.032	1002.829	53.0	2	0.0	0.0	0.2862	70.0	1.2	Certain	-1.1	0.48	2.99675	Yes	n/a	1.57898715041572	n/a	n/a	n/a	ISIRate	Mixed
417.324	3.0	0.029	1006.845	54.0	2	-2.0	-2.0	0.0362	70.0	0.4	Certain	2.9	-6.84	0.0	No	4.0	-9.7437641723356	2.535	419.859	n/a	GetAnswer	Mixed
419.873	4.0	0.014	1009.394	54.0	2	-2.0	-2.0	0.0362	70.0	0.4	Certain	2.9	-6.84	0.0	No	n/a	-9.7437641723356	n/a	n/a	n/a	ShowChoice	Mixed
423.888	1.0	0.015	1013.409	54.0	2	-2.0	-2.0	0.0362	70.0	0.4	Certain	2.9	-6.84	0.0	No	n/a	-9.7437641723356	n/a	n/a	n/a	ShowResult	Mixed
424.904	8.0	0.016	1014.425	54.0	2	-2.0	-2.0	0.0362	70.0	0.4	Certain	2.9	-6.84	0.0	No	n/a	-9.7437641723356	n/a	n/a	n/a	ISITrial	Mixed
463.892	1.791	n/a	1055.532	n/a	2	n/a	n/a	n/a	n/a	n/a	n/a	n/a	n/a	n/a	n/a	n/a	n/a	n/a	n/a	592.0	BlockStartHappinessSliderResponse	n/a
-86.204	-0.001	0.031	1022.456	n/a	3	n/a	n/a	n/a	n/a	n/a	n/a	n/a	n/a	n/a	n/a	4	n/a	26.918	-59.286	n/a	Rest	n/a
-59.263	4.0	0.023	1049.397	n/a	3	n/a	n/a	n/a	n/a	n/a	n/a	n/a	n/a	n/a	n/a	n/a	n/a	n/a	n/a	n/a	BlockHappyPreview	n/a
-55.248	3.91	0.015	1053.412	n/a	3	n/a	n/a	n/a	n/a	n/a	n/a	n/a	n/a	n/a	n/a	2{-2}{-4}4	n/a	3.91	-51.338	592.0	BlockStartHappiness	n/a
-4.249	-0.001	0.023	1104.411	n/a	3	n/a	n/a	n/a	n/a	n/a	n/a	n/a	n/a	n/a	n/a	5.0	n/a	4.222	-0.027	n/a	ScanWait	n/a
0.0	10.0	0.027	1108.66	n/a	3	n/a	n/a	n/a	n/a	n/a	n/a	n/a	n/a	n/a	n/a	n/a	n/a	n/a	n/a	n/a	GetReady	n/a
10.03	3.0	0.03	1118.69	55.0	3	2.0	2.0	0.2862	955.0	2.0	Certain	-1.27	4.9	2.53325	Yes	4.0	6.166477916194791	0.555	10.585	n/a	GetAnswer	Gain
10.596	4.0	0.011	1119.256	55.0	3	2.0	2.0	0.2862	955.0	2.0	Certain	-1.27	4.9	2.53325	Yes	n/a	6.166477916194791	n/a	n/a	n/a	ShowChoice	Gain
14.612	1.0	0.016	1123.272	55.0	3	2.0	2.0	0.2862	955.0	2.0	Certain	-1.27	4.9	2.53325	Yes	n/a	6.166477916194791	n/a	n/a	n/a	ShowResult	Gain
15.628	7.709	0.016	1124.288	55.0	3	2.0	2.0	0.2862	955.0	2.0	Certain	-1.27	4.9	2.53325	Yes	n/a	6.166477916194791	n/a	n/a	n/a	ISITrial	Gain
23.359	2.533	0.022	1132.019	55.0	3	2.0	2.0	0.2862	955.0	2.0	Certain	-1.27	4.9	2.53325	Yes	n/a	6.166477916194791	n/a	n/a	n/a	TrialHappPreview	Gain
25.908	4.015	0.016	1134.568	55.0	3	2.0	2.0	0.2862	955.0	2.0	Certain	-1.27	4.9	2.53325	Yes	n/a	6.166477916194791	n/a	n/a	432.0	TrialHappiness	Gain
25.908	0.639	n/a	1137.801	55.0	3	2.0	2.0	0.2862	955.0	2.0	Certain	-1.27	4.9	2.53325	Yes	n/a	6.166477916194791	n/a	n/a	432.0	TrialHappinessSliderResponse	Gain
29.923	2.133	4.015	1138.583	55.0	3	2.0	2.0	0.2862	955.0	2.0	Certain	-1.27	4.9	2.53325	Yes	n/a	6.166477916194791	n/a	n/a	n/a	ISIRate	Gain
32.089	3.0	0.033	1140.749	56.0	3	1.9	1.9	0.5237	955.0	2.22	Certain	13.1	3.8	0.0	No	4.0	9.2955832389581	0.872	32.961	n/a	GetAnswer	Loss
32.972	4.0	0.011	1141.632	56.0	3	1.9	1.9	0.5237	955.0	2.22	Certain	13.1	3.8	0.0	No	n/a	9.2955832389581	n/a	n/a	n/a	ShowChoice	Loss
36.987	1.0	0.015	1145.647	56.0	3	1.9	1.9	0.5237	955.0	2.22	Certain	13.1	3.8	0.0	No	n/a	9.2955832389581	n/a	n/a	n/a	ShowResult	Loss
38.003	4.697	0.016	1146.663	56.0	3	1.9	1.9	0.5237	955.0	2.22	Certain	13.1	3.8	0.0	No	n/a	9.2955832389581	n/a	n/a	n/a	ISITrial	Loss
42.719	3.0	0.019	1151.379	57.0	3	2.3	-2.0	0.8112	955.0	2.0	Outcome1	2.3	-7.59	0.0	No	n/a	9.887882219705553	n/a	n/a	n/a	GetAnswer	Mixed
45.734	4.0	0.015	1154.394	57.0	3	2.3	-2.0	0.8112	955.0	2.0	Outcome1	2.3	-7.59	0.0	No	n/a	9.887882219705553	n/a	n/a	n/a	ShowChoice	Mixed
49.749	1.0	0.015	1158.409	57.0	3	2.3	-2.0	0.8112	955.0	2.0	Outcome1	2.3	-7.59	0.0	No	n/a	9.887882219705553	n/a	n/a	n/a	ShowResult	Mixed
50.766	4.291	0.017	1159.426	57.0	3	2.3	-2.0	0.8112	955.0	2.0	Outcome1	2.3	-7.59	0.0	No	n/a	9.887882219705553	n/a	n/a	n/a	ISITrial	Mixed
55.081	3.0	0.024	1163.741	58.0	3	0.01	0.01	0.8124	955.0	1.68	Certain	10.5	0.02	3.04575	Yes	4.0	10.480181200453	1.07	56.151	n/a	GetAnswer	Loss
56.164	4.0	0.013	1164.824	58.0	3	0.01	0.01	0.8124	955.0	1.68	Certain	10.5	0.02	3.04575	Yes	n/a	10.480181200453	n/a	n/a	n/a	ShowChoice	Loss
60.179	1.0	0.015	1168.839	58.0	3	0.01	0.01	0.8124	955.0	1.68	Certain	10.5	0.02	3.04575	Yes	n/a	10.480181200453	n/a	n/a	n/a	ShowResult	Loss
61.196	2.037	0.017	1169.856	58.0	3	0.01	0.01	0.8124	955.0	1.68	Certain	10.5	0.02	3.04575	Yes	n/a	10.480181200453	n/a	n/a	n/a	ISITrial	Loss
63.245	3.046	0.012	1171.905	58.0	3	0.01	0.01	0.8124	955.0	1.68	Certain	10.5	0.02	3.04575	Yes	n/a	10.480181200453	n/a	n/a	n/a	TrialHappPreview	Loss
66.31	4.016	0.019	1174.97	58.0	3	0.01	0.01	0.8124	955.0	1.68	Certain	10.5	0.02	3.04575	Yes	n/a	10.480181200453	n/a	n/a	360.0	TrialHappiness	Loss
66.311	0.955	n/a	1175.506	58.0	3	0.01	0.01	0.8124	955.0	1.68	Certain	10.5	0.02	3.04575	Yes	n/a	10.480181200453	n/a	n/a	360.0	TrialHappinessSliderResponse	Loss
70.326	4.183	4.016	1178.986	58.0	3	0.01	0.01	0.8124	955.0	1.68	Certain	10.5	0.02	3.04575	Yes	n/a	10.480181200453	n/a	n/a	n/a	ISIRate	Loss
74.524	3.0	0.015	1183.184	59.0	3	5.45	5.45	1.4936	955.0	2.8	Certain	10.9	13.5	0.0	No	4.0	-2.59692336730842	0.891	75.415	n/a	GetAnswer	Loss
75.441	4.0	0.026	1184.101	59.0	3	5.45	5.45	1.4936	955.0	2.8	Certain	10.9	13.5	0.0	No	n/a	-2.59692336730842	n/a	n/a	n/a	ShowChoice	Loss
79.456	1.0	0.015	1188.116	59.0	3	5.45	5.45	1.4936	955.0	2.8	Certain	10.9	13.5	0.0	No	n/a	-2.59692336730842	n/a	n/a	n/a	ShowResult	Loss
80.472	5.064	0.016	1189.132	59.0	3	5.45	5.45	1.4936	955.0	2.8	Certain	10.9	13.5	0.0	No	n/a	-2.59692336730842	n/a	n/a	n/a	ISITrial	Loss
85.554	3.0	0.018	1194.214	60.0	3	-3.0	-3.0	1.1186	955.0	0.52	Certain	-9.87	3.1	3.5625	Yes	4.0	12.969422423556098	0.872	86.426	n/a	GetAnswer	Mixed
86.437	4.0	0.011	1195.097	60.0	3	-3.0	-3.0	1.1186	955.0	0.52	Certain	-9.87	3.1	3.5625	Yes	n/a	12.969422423556098	n/a	n/a	n/a	ShowChoice	Mixed
90.452	1.0	0.015	1199.112	60.0	3	-3.0	-3.0	1.1186	955.0	0.52	Certain	-9.87	3.1	3.5625	Yes	n/a	12.969422423556098	n/a	n/a	n/a	ShowResult	Mixed
91.469	8.0	0.017	1200.129	60.0	3	-3.0	-3.0	1.1186	955.0	0.52	Certain	-9.87	3.1	3.5625	Yes	n/a	12.969422423556098	n/a	n/a	n/a	ISITrial	Mixed
99.482	3.562	0.013	1208.142	60.0	3	-3.0	-3.0	1.1186	955.0	0.52	Certain	-9.87	3.1	3.5625	Yes	n/a	12.969422423556098	n/a	n/a	n/a	TrialHappPreview	Mixed
103.065	4.015	0.021	1211.725	60.0	3	-3.0	-3.0	1.1186	955.0	0.52	Certain	-9.87	3.1	3.5625	Yes	n/a	12.969422423556098	n/a	n/a	512.0	TrialHappiness	Mixed
103.065	0.0	n/a	1211.725	60.0	3	-3.0	-3.0	1.1186	955.0	0.52	Certain	-9.87	3.1	3.5625	Yes	n/a	12.969422423556098	n/a	n/a	512.0	TrialHappinessSliderResponse	Mixed
107.08	6.25	4.015	1215.74	60.0	3	-3.0	-3.0	1.1186	955.0	0.52	Certain	-9.87	3.1	3.5625	Yes	n/a	12.969422423556098	n/a	n/a	n/a	ISIRate	Mixed
113.361	3.0	0.031	1222.021	61.0	3	-4.0	-4.0	0.6186	955.0	0.52	Certain	1.1	-9.96	0.0	No	4.0	11.0611551528879	0.613	113.974	n/a	GetAnswer	Mixed
113.994	4.0	0.02	1222.654	61.0	3	-4.0	-4.0	0.6186	955.0	0.52	Certain	1.1	-9.96	0.0	No	n/a	11.0611551528879	n/a	n/a	n/a	ShowChoice	Mixed
118.009	1.0	0.015	1226.669	61.0	3	-4.0	-4.0	0.6186	955.0	0.52	Certain	1.1	-9.96	0.0	No	n/a	11.0611551528879	n/a	n/a	n/a	ShowResult	Mixed
119.026	4.586	0.017	1227.686	61.0	3	-4.0	-4.0	0.6186	955.0	0.52	Certain	1.1	-9.96	0.0	No	n/a	11.0611551528879	n/a	n/a	n/a	ISITrial	Mixed
123.641	3.0	0.029	1232.301	62.0	3	0.0	0.0	0.6186	955.0	0.82	Certain	1.5	-0.63	3.74875	Yes	4.0	-2.13420158550396	1.472	125.113	n/a	GetAnswer	Mixed
125.124	4.0	0.011	1233.784	62.0	3	0.0	0.0	0.6186	955.0	0.82	Certain	1.5	-0.63	3.74875	Yes	n/a	-2.13420158550396	n/a	n/a	n/a	ShowChoice	Mixed
129.139	1.0	0.015	1237.799	62.0	3	0.0	0.0	0.6186	955.0	0.82	Certain	1.5	-0.63	3.74875	Yes	n/a	-2.13420158550396	n/a	n/a	n/a	ShowResult	Mixed
130.155	5.212	0.016	1238.815	62.0	3	0.0	0.0	0.6186	955.0	0.82	Certain	1.5	-0.63	3.74875	Yes	n/a	-2.13420158550396	n/a	n/a	n/a	ISITrial	Mixed
135.387	3.749	0.02	1244.047	62.0	3	0.0	0.0	0.6186	955.0	0.82	Certain	1.5	-0.63	3.74875	Yes	n/a	-2.13420158550396	n/a	n/a	n/a	TrialHappPreview	Mixed
139.152	4.016	0.016	1247.812	62.0	3	0.0	0.0	0.6186	955.0	0.82	Certain	1.5	-0.63	3.74875	Yes	n/a	-2.13420158550396	n/a	n/a	512.0	TrialHappiness	Mixed
139.153	0.0	n/a	1247.813	62.0	3	0.0	0.0	0.6186	955.0	0.82	Certain	1.5	-0.63	3.74875	Yes	n/a	-2.13420158550396	n/a	n/a	512.0	TrialHappinessSliderResponse	Mixed
143.168	6.995	4.016	1251.828	62.0	3	0.0	0.0	0.6186	955.0	0.82	Certain	1.5	-0.63	3.74875	Yes	n/a	-2.13420158550396	n/a	n/a	n/a	ISIRate	Mixed
150.182	3.0	0.019	1258.842	63.0	3	6.32	3.16	1.4086	955.0	1.68	Outcome1	6.32	8.5	0.0	No	2.0	-2.17600981502454	1.118	151.3	n/a	GetAnswer	Gain
151.315	4.0	0.015	1259.975	63.0	3	6.32	3.16	1.4086	955.0	1.68	Outcome1	6.32	8.5	0.0	No	n/a	-2.17600981502454	n/a	n/a	n/a	ShowChoice	Gain
155.33	1.0	0.015	1263.99	63.0	3	6.32	3.16	1.4086	955.0	1.68	Outcome1	6.32	8.5	0.0	No	n/a	-2.17600981502454	n/a	n/a	n/a	ShowResult	Gain
156.346	5.595	0.016	1265.006	63.0	3	6.32	3.16	1.4086	955.0	1.68	Outcome1	6.32	8.5	0.0	No	n/a	-2.17600981502454	n/a	n/a	n/a	ISITrial	Gain
161.961	3.0	0.02	1270.621	64.0	3	11.5	-0.54	2.8461	955.0	2.8	Outcome1	11.5	-1.07	0.0	No	2.0	12.5662514156285	2.871	164.832	n/a	GetAnswer	Loss
164.843	4.0	0.011	1273.503	64.0	3	11.5	-0.54	2.8461	955.0	2.8	Outcome1	11.5	-1.07	0.0	No	n/a	12.5662514156285	n/a	n/a	n/a	ShowChoice	Loss
168.875	1.0	0.032	1277.535	64.0	3	11.5	-0.54	2.8461	955.0	2.8	Outcome1	11.5	-1.07	0.0	No	n/a	12.5662514156285	n/a	n/a	n/a	ShowResult	Loss
169.892	5.47	0.017	1278.552	64.0	3	11.5	-0.54	2.8461	955.0	2.8	Outcome1	11.5	-1.07	0.0	No	n/a	12.5662514156285	n/a	n/a	n/a	ISITrial	Loss
175.39	3.0	0.028	1284.05	65.0	3	11.44	5.72	4.2761	955.0	3.16	Outcome2	13.7	11.44	2.99675	Yes	n/a	-2.25962627406569	n/a	n/a	n/a	GetAnswer	Loss
178.405	4.0	0.015	1287.065	65.0	3	11.44	5.72	4.2761	955.0	3.16	Outcome2	13.7	11.44	2.99675	Yes	n/a	-2.25962627406569	n/a	n/a	n/a	ShowChoice	Loss
182.421	1.0	0.016	1291.081	65.0	3	11.44	5.72	4.2761	955.0	3.16	Outcome2	13.7	11.44	2.99675	Yes	n/a	-2.25962627406569	n/a	n/a	n/a	ShowResult	Loss
183.437	3.344	0.016	1292.097	65.0	3	11.44	5.72	4.2761	955.0	3.16	Outcome2	13.7	11.44	2.99675	Yes	n/a	-2.25962627406569	n/a	n/a	n/a	ISITrial	Loss
186.803	2.997	0.022	1295.463	65.0	3	11.44	5.72	4.2761	955.0	3.16	Outcome2	13.7	11.44	2.99675	Yes	n/a	-2.25962627406569	n/a	n/a	n/a	TrialHappPreview	Loss
189.818	4.015	0.018	1298.478	65.0	3	11.44	5.72	4.2761	955.0	3.16	Outcome2	13.7	11.44	2.99675	Yes	n/a	-2.25962627406569	n/a	n/a	512.0	TrialHappiness	Loss
189.819	0.0	n/a	1298.479	65.0	3	11.44	5.72	4.2761	955.0	3.16	Outcome2	13.7	11.44	2.99675	Yes	n/a	-2.25962627406569	n/a	n/a	512.0	TrialHappinessSliderResponse	Loss
193.833	3.987	4.015	1302.493	65.0	3	11.44	5.72	4.2761	955.0	3.16	Outcome2	13.7	11.44	2.99675	Yes	n/a	-2.25962627406569	n/a	n/a	n/a	ISIRate	Loss
197.849	3.0	0.029	1306.509	66.0	3	7.9	1.0	5.2636	955.0	3.6	Outcome1	7.9	-5.67	0.0	No	2.0	13.5696489241223	1.663	199.512	n/a	GetAnswer	Gain
199.532	4.0	0.02	1308.192	66.0	3	7.9	1.0	5.2636	955.0	3.6	Outcome1	7.9	-5.67	0.0	No	n/a	13.5696489241223	n/a	n/a	n/a	ShowChoice	Gain
203.547	1.0	0.015	1312.207	66.0	3	7.9	1.0	5.2636	955.0	3.6	Outcome1	7.9	-5.67	0.0	No	n/a	13.5696489241223	n/a	n/a	n/a	ShowResult	Gain
204.563	3.959	0.016	1313.223	66.0	3	7.9	1.0	5.2636	955.0	3.6	Outcome1	7.9	-5.67	0.0	No	n/a	13.5696489241223	n/a	n/a	n/a	ISITrial	Gain
208.545	3.0	0.023	1317.205	67.0	3	9.9	-2.08	6.5011	955.0	3.6	Outcome2	-4.17	9.9	2.9185	Yes	n/a	14.0713476783692	n/a	n/a	n/a	GetAnswer	Gain
211.561	4.0	0.016	1320.221	67.0	3	9.9	-2.08	6.5011	955.0	3.6	Outcome2	-4.17	9.9	2.9185	Yes	n/a	14.0713476783692	n/a	n/a	n/a	ShowChoice	Gain
215.576	1.0	0.015	1324.236	67.0	3	9.9	-2.08	6.5011	955.0	3.6	Outcome2	-4.17	9.9	2.9185	Yes	n/a	14.0713476783692	n/a	n/a	n/a	ShowResult	Gain
216.592	4.199	0.016	1325.252	67.0	3	9.9	-2.08	6.5011	955.0	3.6	Outcome2	-4.17	9.9	2.9185	Yes	n/a	14.0713476783692	n/a	n/a	n/a	ISITrial	Gain
220.808	2.918	0.017	1329.468	67.0	3	9.9	-2.08	6.5011	955.0	3.6	Outcome2	-4.17	9.9	2.9185	Yes	n/a	14.0713476783692	n/a	n/a	n/a	TrialHappPreview	Gain
223.74	4.015	0.014	1332.4	67.0	3	9.9	-2.08	6.5011	955.0	3.6	Outcome2	-4.17	9.9	2.9185	Yes	n/a	14.0713476783692	n/a	n/a	512.0	TrialHappiness	Gain
223.741	0.0	n/a	1332.401	67.0	3	9.9	-2.08	6.5011	955.0	3.6	Outcome2	-4.17	9.9	2.9185	Yes	n/a	14.0713476783692	n/a	n/a	512.0	TrialHappinessSliderResponse	Gain
227.755	3.674	4.015	1336.415	67.0	3	9.9	-2.08	6.5011	955.0	3.6	Outcome2	-4.17	9.9	2.9185	Yes	n/a	14.0713476783692	n/a	n/a	n/a	ISIRate	Gain
231.454	3.0	0.025	1340.114	68.0	3	4.3	-3.0	7.0386	955.0	2.0	Outcome1	4.3	-10.27	0.0	No	n/a	14.5730464326161	n/a	n/a	n/a	GetAnswer	Mixed
234.47	4.0	0.016	1343.13	68.0	3	4.3	-3.0	7.0386	955.0	2.0	Outcome1	4.3	-10.27	0.0	No	n/a	14.5730464326161	n/a	n/a	n/a	ShowChoice	Mixed
238.485	1.0	0.015	1347.145	68.0	3	4.3	-3.0	7.0386	955.0	2.0	Outcome1	4.3	-10.27	0.0	No	n/a	14.5730464326161	n/a	n/a	n/a	ShowResult	Mixed
239.501	2.185	0.016	1348.161	68.0	3	4.3	-3.0	7.0386	955.0	2.0	Outcome1	4.3	-10.27	0.0	No	n/a	14.5730464326161	n/a	n/a	n/a	ISITrial	Mixed
241.717	3.0	0.031	1350.377	69.0	3	0.5	-7.0	7.1011	955.0	0.2	Outcome1	0.5	-14.57	0.0	No	n/a	15.074745186863	n/a	n/a	n/a	GetAnswer	Mixed
244.733	4.0	0.016	1353.393	69.0	3	0.5	-7.0	7.1011	955.0	0.2	Outcome1	0.5	-14.57	0.0	No	n/a	15.074745186863	n/a	n/a	n/a	ShowChoice	Mixed
248.748	1.0	0.015	1357.408	69.0	3	0.5	-7.0	7.1011	955.0	0.2	Outcome1	0.5	-14.57	0.0	No	n/a	15.074745186863	n/a	n/a	n/a	ShowResult	Mixed
249.764	2.0	0.016	1358.424	69.0	3	0.5	-7.0	7.1011	955.0	0.2	Outcome1	0.5	-14.57	0.0	No	n/a	15.074745186863	n/a	n/a	n/a	ISITrial	Mixed
251.78	3.0	0.016	1360.44	70.0	3	1.7	-6.0	7.3136	955.0	1.0	Outcome2	-13.88	1.7	3.65125	Yes	2.0	15.5764439411099	0.827	252.607	n/a	GetAnswer	Mixed
252.63	4.0	0.023	1361.29	70.0	3	1.7	-6.0	7.3136	955.0	1.0	Outcome2	-13.88	1.7	3.65125	Yes	n/a	15.5764439411099	n/a	n/a	n/a	ShowChoice	Mixed
256.645	1.0	0.015	1365.305	70.0	3	1.7	-6.0	7.3136	955.0	1.0	Outcome2	-13.88	1.7	3.65125	Yes	n/a	15.5764439411099	n/a	n/a	n/a	ShowResult	Mixed
257.662	2.623	0.017	1366.322	70.0	3	1.7	-6.0	7.3136	955.0	1.0	Outcome2	-13.88	1.7	3.65125	Yes	n/a	15.5764439411099	n/a	n/a	n/a	ISITrial	Mixed
260.311	3.651	0.026	1368.971	70.0	3	1.7	-6.0	7.3136	955.0	1.0	Outcome2	-13.88	1.7	3.65125	Yes	n/a	15.5764439411099	n/a	n/a	n/a	TrialHappPreview	Mixed
263.976	4.015	0.014	1372.636	70.0	3	1.7	-6.0	7.3136	955.0	1.0	Outcome2	-13.88	1.7	3.65125	Yes	n/a	15.5764439411099	n/a	n/a	512.0	TrialHappiness	Mixed
263.977	0.0	n/a	1372.637	70.0	3	1.7	-6.0	7.3136	955.0	1.0	Outcome2	-13.88	1.7	3.65125	Yes	n/a	15.5764439411099	n/a	n/a	512.0	TrialHappinessSliderResponse	Mixed
267.991	6.605	4.015	1376.651	70.0	3	1.7	-6.0	7.3136	955.0	1.0	Outcome2	-13.88	1.7	3.65125	Yes	n/a	15.5764439411099	n/a	n/a	n/a	ISIRate	Mixed
274.622	3.0	0.026	1383.282	71.0	3	-1.1	-9.0	7.1761	955.0	0.4	Outcome2	-17.18	-1.1	0.0	No	n/a	16.078142695356696	n/a	n/a	n/a	GetAnswer	Mixed
277.638	4.0	0.016	1386.298	71.0	3	-1.1	-9.0	7.1761	955.0	0.4	Outcome2	-17.18	-1.1	0.0	No	n/a	16.078142695356696	n/a	n/a	n/a	ShowChoice	Mixed
281.653	1.0	0.015	1390.313	71.0	3	-1.1	-9.0	7.1761	955.0	0.4	Outcome2	-17.18	-1.1	0.0	No	n/a	16.078142695356696	n/a	n/a	n/a	ShowResult	Mixed
282.67	5.499	0.017	1391.33	71.0	3	-1.1	-9.0	7.1761	955.0	0.4	Outcome2	-17.18	-1.1	0.0	No	n/a	16.078142695356696	n/a	n/a	n/a	ISITrial	Mixed
288.185	3.0	0.016	1396.845	72.0	3	-1.3	-9.0	7.0136	955.0	0.3	Outcome1	-1.3	-17.88	3.0805	Yes	n/a	16.5798414496036	n/a	n/a	n/a	GetAnswer	Mixed
291.2	4.0	0.015	1399.86	72.0	3	-1.3	-9.0	7.0136	955.0	0.3	Outcome1	-1.3	-17.88	3.0805	Yes	n/a	16.5798414496036	n/a	n/a	n/a	ShowChoice	Mixed
295.215	1.0	0.015	1403.875	72.0	3	-1.3	-9.0	7.0136	955.0	0.3	Outcome1	-1.3	-17.88	3.0805	Yes	n/a	16.5798414496036	n/a	n/a	n/a	ShowResult	Mixed
296.232	5.672	0.017	1404.892	72.0	3	-1.3	-9.0	7.0136	955.0	0.3	Outcome1	-1.3	-17.88	3.0805	Yes	n/a	16.5798414496036	n/a	n/a	n/a	ISITrial	Mixed
301.93	3.08	0.026	1410.59	72.0	3	-1.3	-9.0	7.0136	955.0	0.3	Outcome1	-1.3	-17.88	3.0805	Yes	n/a	16.5798414496036	n/a	n/a	n/a	TrialHappPreview	Mixed
305.029	4.015	0.019	1413.689	72.0	3	-1.3	-9.0	7.0136	955.0	0.3	Outcome1	-1.3	-17.88	3.0805	Yes	n/a	16.5798414496036	n/a	n/a	512.0	TrialHappiness	Mixed
305.029	0.0	n/a	1413.689	72.0	3	-1.3	-9.0	7.0136	955.0	0.3	Outcome1	-1.3	-17.88	3.0805	Yes	n/a	16.5798414496036	n/a	n/a	512.0	TrialHappinessSliderResponse	Mixed
309.044	4.322	4.015	1417.704	72.0	3	-1.3	-9.0	7.0136	955.0	0.3	Outcome1	-1.3	-17.88	3.0805	Yes	n/a	16.5798414496036	n/a	n/a	n/a	ISIRate	Mixed
313.393	3.0	0.027	1422.053	73.0	3	-8.0	-8.0	6.0136	955.0	2.0	Certain	-16.78	0.3	0.0	No	4.0	17.0815402038505	1.546	314.939	n/a	GetAnswer	Mixed
314.959	4.0	0.02	1423.619	73.0	3	-8.0	-8.0	6.0136	955.0	2.0	Certain	-16.78	0.3	0.0	No	n/a	17.0815402038505	n/a	n/a	n/a	ShowChoice	Mixed
318.974	1.0	0.015	1427.634	73.0	3	-8.0	-8.0	6.0136	955.0	2.0	Certain	-16.78	0.3	0.0	No	n/a	17.0815402038505	n/a	n/a	n/a	ShowResult	Mixed
319.99	4.616	0.016	1428.65	73.0	3	-8.0	-8.0	6.0136	955.0	2.0	Certain	-16.78	0.3	0.0	No	n/a	17.0815402038505	n/a	n/a	n/a	ISITrial	Mixed
324.622	3.0	0.016	1433.282	74.0	3	0.0	0.0	6.0136	955.0	1.82	Certain	-8.88	8.7	3.05625	Yes	4.0	17.5832389580974	1.55	326.172	n/a	GetAnswer	Gain
326.188	4.0	0.016	1434.848	74.0	3	0.0	0.0	6.0136	955.0	1.82	Certain	-8.88	8.7	3.05625	Yes	n/a	17.5832389580974	n/a	n/a	n/a	ShowChoice	Gain
330.237	1.0	0.049	1438.897	74.0	3	0.0	0.0	6.0136	955.0	1.82	Certain	-8.88	8.7	3.05625	Yes	n/a	17.5832389580974	n/a	n/a	n/a	ShowResult	Gain
331.253	3.909	0.016	1439.913	74.0	3	0.0	0.0	6.0136	955.0	1.82	Certain	-8.88	8.7	3.05625	Yes	n/a	17.5832389580974	n/a	n/a	n/a	ISITrial	Gain
335.185	3.056	0.023	1443.845	74.0	3	0.0	0.0	6.0136	955.0	1.82	Certain	-8.88	8.7	3.05625	Yes	n/a	17.5832389580974	n/a	n/a	n/a	TrialHappPreview	Gain
338.267	4.016	0.026	1446.927	74.0	3	0.0	0.0	6.0136	955.0	1.82	Certain	-8.88	8.7	3.05625	Yes	n/a	17.5832389580974	n/a	n/a	512.0	TrialHappiness	Gain
338.268	0.0	n/a	1446.928	74.0	3	0.0	0.0	6.0136	955.0	1.82	Certain	-8.88	8.7	3.05625	Yes	n/a	17.5832389580974	n/a	n/a	512.0	TrialHappinessSliderResponse	Gain
342.283	4.225	4.016	1450.943	74.0	3	0.0	0.0	6.0136	955.0	1.82	Certain	-8.88	8.7	3.05625	Yes	n/a	17.5832389580974	n/a	n/a	n/a	ISIRate	Gain
346.531	3.0	0.023	1455.191	75.0	3	3.82	1.91	6.4911	955.0	1.68	Outcome2	6.5	3.82	0.0	No	n/a	-2.67770856927142	n/a	n/a	n/a	GetAnswer	Gain
349.547	4.0	0.016	1458.207	75.0	3	3.82	1.91	6.4911	955.0	1.68	Outcome2	6.5	3.82	0.0	No	n/a	-2.67770856927142	n/a	n/a	n/a	ShowChoice	Gain
353.562	1.0	0.015	1462.222	75.0	3	3.82	1.91	6.4911	955.0	1.68	Outcome2	6.5	3.82	0.0	No	n/a	-2.67770856927142	n/a	n/a	n/a	ShowResult	Gain
354.578	4.979	0.016	1463.238	75.0	3	3.82	1.91	6.4911	955.0	1.68	Outcome2	6.5	3.82	0.0	No	n/a	-2.67770856927142	n/a	n/a	n/a	ISITrial	Gain
359.577	3.0	0.02	1468.237	76.0	3	4.58	2.29	7.0636	955.0	2.48	Outcome2	7.3	4.58	0.0	No	n/a	-2.719516798792	n/a	n/a	n/a	GetAnswer	Gain
362.592	4.0	0.015	1471.252	76.0	3	4.58	2.29	7.0636	955.0	2.48	Outcome2	7.3	4.58	0.0	No	n/a	-2.719516798792	n/a	n/a	n/a	ShowChoice	Gain
366.608	1.0	0.016	1475.268	76.0	3	4.58	2.29	7.0636	955.0	2.48	Outcome2	7.3	4.58	0.0	No	n/a	-2.719516798792	n/a	n/a	n/a	ShowResult	Gain
367.624	3.931	0.016	1476.284	76.0	3	4.58	2.29	7.0636	955.0	2.48	Outcome2	7.3	4.58	0.0	No	n/a	-2.719516798792	n/a	n/a	n/a	ISITrial	Gain
371.573	3.0	0.018	1480.233	77.0	3	4.57	4.57	7.6348	955.0	3.6	Certain	11.9	9.14	4.0	Yes	4.0	-2.76132502831257	2.435	374.008	n/a	GetAnswer	Loss
374.022	4.0	0.014	1482.682	77.0	3	4.57	4.57	7.6348	955.0	3.6	Certain	11.9	9.14	4.0	Yes	n/a	-2.76132502831257	n/a	n/a	n/a	ShowChoice	Loss
378.037	1.0	0.015	1486.697	77.0	3	4.57	4.57	7.6348	955.0	3.6	Certain	11.9	9.14	4.0	Yes	n/a	-2.76132502831257	n/a	n/a	n/a	ShowResult	Loss
379.053	7.022	0.016	1487.713	77.0	3	4.57	4.57	7.6348	955.0	3.6	Certain	11.9	9.14	4.0	Yes	n/a	-2.76132502831257	n/a	n/a	n/a	ISITrial	Loss
386.101	4.0	0.026	1494.761	77.0	3	4.57	4.57	7.6348	955.0	3.6	Certain	11.9	9.14	4.0	Yes	n/a	-2.76132502831257	n/a	n/a	n/a	TrialHappPreview	Loss
390.116	4.016	0.015	1498.776	77.0	3	4.57	4.57	7.6348	955.0	3.6	Certain	11.9	9.14	4.0	Yes	n/a	-2.76132502831257	n/a	n/a	512.0	TrialHappiness	Loss
390.117	0.0	n/a	1498.777	77.0	3	4.57	4.57	7.6348	955.0	3.6	Certain	11.9	9.14	4.0	Yes	n/a	-2.76132502831257	n/a	n/a	512.0	TrialHappinessSliderResponse	Loss
394.132	8.0	4.016	1502.792	77.0	3	4.57	4.57	7.6348	955.0	3.6	Certain	11.9	9.14	4.0	Yes	n/a	-2.76132502831257	n/a	n/a	n/a	ISIRate	Loss
402.162	3.0	0.03	1510.822	78.0	3	5.3	-4.0	8.2973	955.0	2.48	Outcome1	5.3	-14.29	0.0	No	n/a	19.5900339750849	n/a	n/a	n/a	GetAnswer	Gain
405.178	4.0	0.016	1513.838	78.0	3	5.3	-4.0	8.2973	955.0	2.48	Outcome1	5.3	-14.29	0.0	No	n/a	19.5900339750849	n/a	n/a	n/a	ShowChoice	Gain
409.193	1.0	0.015	1517.853	78.0	3	5.3	-4.0	8.2973	955.0	2.48	Outcome1	5.3	-14.29	0.0	No	n/a	19.5900339750849	n/a	n/a	n/a	ShowResult	Gain
410.209	2.078	0.016	1518.869	78.0	3	5.3	-4.0	8.2973	955.0	2.48	Outcome1	5.3	-14.29	0.0	No	n/a	19.5900339750849	n/a	n/a	n/a	ISITrial	Gain
412.309	3.0	0.022	1520.969	79.0	3	-6.0	-6.0	7.5473	955.0	1.2	Certain	-16.19	3.9	2.7295	Yes	4.0	20.0917327293318	1.592	413.901	n/a	GetAnswer	Mixed
413.925	4.0	0.024	1522.585	79.0	3	-6.0	-6.0	7.5473	955.0	1.2	Certain	-16.19	3.9	2.7295	Yes	n/a	20.0917327293318	n/a	n/a	n/a	ShowChoice	Mixed
417.94	1.0	0.015	1526.6	79.0	3	-6.0	-6.0	7.5473	955.0	1.2	Certain	-16.19	3.9	2.7295	Yes	n/a	20.0917327293318	n/a	n/a	n/a	ShowResult	Mixed
418.956	3.829	0.016	1527.616	79.0	3	-6.0	-6.0	7.5473	955.0	1.2	Certain	-16.19	3.9	2.7295	Yes	n/a	20.0917327293318	n/a	n/a	n/a	ISITrial	Mixed
422.805	2.73	0.02	1531.465	79.0	3	-6.0	-6.0	7.5473	955.0	1.2	Certain	-16.19	3.9	2.7295	Yes	n/a	20.0917327293318	n/a	n/a	n/a	TrialHappPreview	Mixed
425.554	4.015	0.019	1534.214	79.0	3	-6.0	-6.0	7.5473	955.0	1.2	Certain	-16.19	3.9	2.7295	Yes	n/a	20.0917327293318	n/a	n/a	512.0	TrialHappiness	Mixed
425.555	0.0	n/a	1534.215	79.0	3	-6.0	-6.0	7.5473	955.0	1.2	Certain	-16.19	3.9	2.7295	Yes	n/a	20.0917327293318	n/a	n/a	512.0	TrialHappinessSliderResponse	Mixed
429.569	2.918	4.015	1538.229	79.0	3	-6.0	-6.0	7.5473	955.0	1.2	Certain	-16.19	3.9	2.7295	Yes	n/a	20.0917327293318	n/a	n/a	n/a	ISIRate	Mixed
432.518	3.0	0.031	1541.178	80.0	3	3.21	1.6	7.9485	955.0	4.2	Outcome2	6.1	3.21	0.0	No	n/a	-2.88674971687429	n/a	n/a	n/a	GetAnswer	Gain
435.534	4.0	0.016	1544.194	80.0	3	3.21	1.6	7.9485	955.0	4.2	Outcome2	6.1	3.21	0.0	No	n/a	-2.88674971687429	n/a	n/a	n/a	ShowChoice	Gain
439.549	1.0	0.015	1548.209	80.0	3	3.21	1.6	7.9485	955.0	4.2	Outcome2	6.1	3.21	0.0	No	n/a	-2.88674971687429	n/a	n/a	n/a	ShowResult	Gain
440.566	3.336	0.017	1549.226	80.0	3	3.21	1.6	7.9485	955.0	4.2	Outcome2	6.1	3.21	0.0	No	n/a	-2.88674971687429	n/a	n/a	n/a	ISITrial	Gain
443.931	3.0	0.029	1552.591	81.0	3	3.1	-7.0	8.336	955.0	0.52	Outcome2	-18.0	3.1	3.92375	Yes	n/a	21.0951302378256	n/a	n/a	n/a	GetAnswer	Mixed
446.947	4.0	0.016	1555.607	81.0	3	3.1	-7.0	8.336	955.0	0.52	Outcome2	-18.0	3.1	3.92375	Yes	n/a	21.0951302378256	n/a	n/a	n/a	ShowChoice	Mixed
450.962	1.0	0.015	1559.622	81.0	3	3.1	-7.0	8.336	955.0	0.52	Outcome2	-18.0	3.1	3.92375	Yes	n/a	21.0951302378256	n/a	n/a	n/a	ShowResult	Mixed
451.978	3.919	0.016	1560.638	81.0	3	3.1	-7.0	8.336	955.0	0.52	Outcome2	-18.0	3.1	3.92375	Yes	n/a	21.0951302378256	n/a	n/a	n/a	ISITrial	Mixed
455.91	3.924	0.013	1564.57	81.0	3	3.1	-7.0	8.336	955.0	0.52	Outcome2	-18.0	3.1	3.92375	Yes	n/a	21.0951302378256	n/a	n/a	n/a	TrialHappPreview	Mixed
459.859	4.015	0.025	1568.519	81.0	3	3.1	-7.0	8.336	955.0	0.52	Outcome2	-18.0	3.1	3.92375	Yes	n/a	21.0951302378256	n/a	n/a	512.0	TrialHappiness	Mixed
459.86	0.0	n/a	1568.52	81.0	3	3.1	-7.0	8.336	955.0	0.52	Outcome2	-18.0	3.1	3.92375	Yes	n/a	21.0951302378256	n/a	n/a	512.0	TrialHappinessSliderResponse	Mixed
463.874	7.695	4.015	1572.534	81.0	3	3.1	-7.0	8.336	955.0	0.52	Outcome2	-18.0	3.1	3.92375	Yes	n/a	21.0951302378256	n/a	n/a	n/a	ISIRate	Mixed
471.588	3.0	0.019	1580.248	n/a	3	n/a	n/a	n/a	n/a	n/a	n/a	n/a	n/a	n/a	n/a	4.0	n/a	1.749	473.337	n/a	CurrentEarnings	n/a
473.354	-0.001	0.017	1582.014	n/a	3	n/a	n/a	n/a	n/a	n/a	n/a	n/a	n/a	n/a	n/a	4.0	n/a	28.417	501.771	n/a	Goodbye	n/a
