onset	duration	onset_delay	onset_unadjusted	trial_number	block	amount_change	certain_amount	current_amount	mood_target	multiplier	outcome	outcome1_amount	outcome2_amount	question_duration	rating	response	rpe	rt	rt_time	slider_response	trial_phase	trial_type
-67.26	-0.001	0.039	32.759	n/a	0	n/a	n/a	n/a	n/a	n/a	n/a	n/a	n/a	n/a	n/a	{SPACE}	n/a	3.788	-63.472	n/a	Welcome	n/a
-63.445	5.0	0.026	36.574	n/a	0	n/a	n/a	n/a	n/a	n/a	n/a	n/a	n/a	n/a	n/a	n/a	n/a	n/a	n/a	n/a	LifeHappyPreview	n/a
-58.413	4.781	0.032	41.606	n/a	0	n/a	n/a	n/a	n/a	n/a	n/a	n/a	n/a	n/a	n/a	n/a	n/a	n/a	n/a	952.0	LifeHappiness	n/a
-58.413	4.368	n/a	42.019	n/a	0	n/a	n/a	n/a	n/a	n/a	n/a	n/a	n/a	n/a	n/a	n/a	n/a	n/a	n/a	952.0	LifeHappinessSliderResponse	n/a
-42.069	4.0	0.021	57.95	n/a	0	n/a	n/a	n/a	n/a	n/a	n/a	n/a	n/a	n/a	n/a	n/a	n/a	n/a	n/a	n/a	BlockHappyPreview	n/a
-38.054	1.406	0.015	61.965	n/a	0	n/a	n/a	n/a	n/a	n/a	n/a	n/a	n/a	n/a	n/a	n/a	n/a	n/a	n/a	680.0	BlockStartHappiness	n/a
-38.053	1.117	n/a	62.255	n/a	0	n/a	n/a	n/a	n/a	n/a	n/a	n/a	n/a	n/a	n/a	n/a	n/a	n/a	n/a	680.0	BlockStartHappinessSliderResponse	n/a
-5.398	-0.001	0.027	94.621	n/a	0	n/a	n/a	n/a	n/a	n/a	n/a	n/a	n/a	n/a	n/a	5.0	n/a	5.381	-0.017	n/a	ScanWait	n/a
0.0	10.0	0.017	100.019	n/a	1	n/a	n/a	n/a	n/a	n/a	n/a	n/a	n/a	n/a	n/a	n/a	n/a	n/a	n/a	n/a	GetReady	n/a
10.029	3.0	0.029	110.048	1.0	1	9.5	2.42	11.1875	955.0	2.8	Outcome2	4.83	9.5	0.0	No	2.0	4.67157417893545	1.157	11.186	n/a	GetAnswer	Gain
11.212	4.0	0.026	111.231	1.0	1	9.5	2.42	11.1875	955.0	2.8	Outcome2	4.83	9.5	0.0	No	n/a	4.67157417893545	n/a	n/a	n/a	ShowChoice	Gain
15.228	1.0	0.016	115.247	1.0	1	9.5	2.42	11.1875	955.0	2.8	Outcome2	4.83	9.5	0.0	No	n/a	4.67157417893545	n/a	n/a	n/a	ShowResult	Gain
16.244	2.431	0.016	116.263	1.0	1	9.5	2.42	11.1875	955.0	2.8	Outcome2	4.83	9.5	0.0	No	n/a	4.67157417893545	n/a	n/a	n/a	ISITrial	Gain
18.71	3.0	0.035	118.729	2.0	1	7.1	1.06	12.075	955.0	2.22	Outcome1	7.1	2.12	0.0	No	2.0	4.98301245753114	1.05	19.76	n/a	GetAnswer	Gain
19.776	4.0	0.016	119.795	2.0	1	7.1	1.06	12.075	955.0	2.22	Outcome1	7.1	2.12	0.0	No	n/a	4.98301245753114	n/a	n/a	n/a	ShowChoice	Gain
23.791	1.0	0.015	123.81	2.0	1	7.1	1.06	12.075	955.0	2.22	Outcome1	7.1	2.12	0.0	No	n/a	4.98301245753114	n/a	n/a	n/a	ShowResult	Gain
24.808	4.568	0.017	124.827	2.0	1	7.1	1.06	12.075	955.0	2.22	Outcome1	7.1	2.12	0.0	No	n/a	4.98301245753114	n/a	n/a	n/a	ISITrial	Gain
29.406	3.0	0.03	129.425	3.0	1	13.7	4.2	13.7875	955.0	3.16	Outcome2	8.41	13.7	2.868	Yes	2.0	5.29445073612684	1.201	30.607	n/a	GetAnswer	Loss
30.639	4.0	0.032	130.658	3.0	1	13.7	4.2	13.7875	955.0	3.16	Outcome2	8.41	13.7	2.868	Yes	n/a	5.29445073612684	n/a	n/a	n/a	ShowChoice	Loss
34.654	1.0	0.015	134.673	3.0	1	13.7	4.2	13.7875	955.0	3.16	Outcome2	8.41	13.7	2.868	Yes	n/a	5.29445073612684	n/a	n/a	n/a	ShowResult	Loss
35.67	3.243	0.016	135.689	3.0	1	13.7	4.2	13.7875	955.0	3.16	Outcome2	8.41	13.7	2.868	Yes	n/a	5.29445073612684	n/a	n/a	n/a	ISITrial	Loss
38.936	2.868	0.023	138.955	3.0	1	13.7	4.2	13.7875	955.0	3.16	Outcome2	8.41	13.7	2.868	Yes	n/a	5.29445073612684	n/a	n/a	n/a	TrialHappPreview	Loss
41.835	4.015	0.031	141.854	3.0	1	13.7	4.2	13.7875	955.0	3.16	Outcome2	8.41	13.7	2.868	Yes	n/a	5.29445073612684	n/a	n/a	704.0	TrialHappiness	Loss
41.835	0.545	n/a	142.147	3.0	1	13.7	4.2	13.7875	955.0	3.16	Outcome2	8.41	13.7	2.868	Yes	n/a	5.29445073612684	n/a	n/a	704.0	TrialHappinessSliderResponse	Loss
45.85	3.472	4.015	145.869	3.0	1	13.7	4.2	13.7875	955.0	3.16	Outcome2	8.41	13.7	2.868	Yes	n/a	5.29445073612684	n/a	n/a	n/a	ISIRate	Loss
49.349	3.0	0.027	149.368	4.0	1	0.0	0.0	13.7875	955.0	0.4	Certain	-2.3	2.9	0.0	No	4.0	5.198187995469991	1.798	51.147	n/a	GetAnswer	Mixed
51.165	4.0	0.018	151.184	4.0	1	0.0	0.0	13.7875	955.0	0.4	Certain	-2.3	2.9	0.0	No	n/a	5.198187995469991	n/a	n/a	n/a	ShowChoice	Mixed
55.18	1.0	0.015	155.199	4.0	1	0.0	0.0	13.7875	955.0	0.4	Certain	-2.3	2.9	0.0	No	n/a	5.198187995469991	n/a	n/a	n/a	ShowResult	Mixed
56.196	2.011	0.016	156.215	4.0	1	0.0	0.0	13.7875	955.0	0.4	Certain	-2.3	2.9	0.0	No	n/a	5.198187995469991	n/a	n/a	n/a	ISITrial	Mixed
58.229	3.0	0.022	158.248	5.0	1	4.98	2.49	14.41	955.0	4.2	Outcome1	4.98	6.1	2.5825	Yes	2.0	-1.12013967534919	1.143	59.372	n/a	GetAnswer	Gain
59.395	4.0	0.023	159.414	5.0	1	4.98	2.49	14.41	955.0	4.2	Outcome1	4.98	6.1	2.5825	Yes	n/a	-1.12013967534919	n/a	n/a	n/a	ShowChoice	Gain
63.411	1.0	0.016	163.43	5.0	1	4.98	2.49	14.41	955.0	4.2	Outcome1	4.98	6.1	2.5825	Yes	n/a	-1.12013967534919	n/a	n/a	n/a	ShowResult	Gain
64.427	5.129	0.016	164.446	5.0	1	4.98	2.49	14.41	955.0	4.2	Outcome1	4.98	6.1	2.5825	Yes	n/a	-1.12013967534919	n/a	n/a	n/a	ISITrial	Gain
69.575	2.582	0.019	169.594	5.0	1	4.98	2.49	14.41	955.0	4.2	Outcome1	4.98	6.1	2.5825	Yes	n/a	-1.12013967534919	n/a	n/a	n/a	TrialHappPreview	Gain
72.174	4.015	0.017	172.193	5.0	1	4.98	2.49	14.41	955.0	4.2	Outcome1	4.98	6.1	2.5825	Yes	n/a	-1.12013967534919	n/a	n/a	696.0	TrialHappiness	Gain
72.175	0.987	n/a	172.462	5.0	1	4.98	2.49	14.41	955.0	4.2	Outcome1	4.98	6.1	2.5825	Yes	n/a	-1.12013967534919	n/a	n/a	696.0	TrialHappinessSliderResponse	Gain
76.189	2.33	4.015	176.208	5.0	1	4.98	2.49	14.41	955.0	4.2	Outcome1	4.98	6.1	2.5825	Yes	n/a	-1.12013967534919	n/a	n/a	n/a	ISIRate	Gain
78.539	3.0	0.02	178.558	6.0	1	12.32	6.16	15.95	955.0	2.8	Outcome2	13.5	12.32	0.0	No	2.0	-1.17629294073235	0.999	79.538	n/a	GetAnswer	Loss
79.555	4.0	0.017	179.574	6.0	1	12.32	6.16	15.95	955.0	2.8	Outcome2	13.5	12.32	0.0	No	n/a	-1.17629294073235	n/a	n/a	n/a	ShowChoice	Loss
83.57	1.0	0.015	183.589	6.0	1	12.32	6.16	15.95	955.0	2.8	Outcome2	13.5	12.32	0.0	No	n/a	-1.17629294073235	n/a	n/a	n/a	ShowResult	Loss
84.586	6.232	0.016	184.605	6.0	1	12.32	6.16	15.95	955.0	2.8	Outcome2	13.5	12.32	0.0	No	n/a	-1.17629294073235	n/a	n/a	n/a	ISITrial	Loss
90.851	3.0	0.033	190.87	7.0	1	10.3	5.15	17.2375	955.0	2.8	Outcome2	11.5	10.3	0.0	No	2.0	-1.20073612684032	1.083	91.934	n/a	GetAnswer	Loss
91.951	4.0	0.017	191.97	7.0	1	10.3	5.15	17.2375	955.0	2.8	Outcome2	11.5	10.3	0.0	No	n/a	-1.20073612684032	n/a	n/a	n/a	ShowChoice	Loss
95.966	1.0	0.015	195.985	7.0	1	10.3	5.15	17.2375	955.0	2.8	Outcome2	11.5	10.3	0.0	No	n/a	-1.20073612684032	n/a	n/a	n/a	ShowResult	Loss
96.982	2.305	0.016	197.001	7.0	1	10.3	5.15	17.2375	955.0	2.8	Outcome2	11.5	10.3	0.0	No	n/a	-1.20073612684032	n/a	n/a	n/a	ISITrial	Loss
99.315	3.0	0.028	199.334	8.0	1	-2.0	-2.0	16.9875	955.0	0.2	Certain	0.5	-5.99	3.1125	Yes	4.0	6.489241223103059	1.361	100.676	n/a	GetAnswer	Mixed
100.697	4.0	0.021	200.716	8.0	1	-2.0	-2.0	16.9875	955.0	0.2	Certain	0.5	-5.99	3.1125	Yes	n/a	6.489241223103059	n/a	n/a	n/a	ShowChoice	Mixed
104.713	1.0	0.016	204.732	8.0	1	-2.0	-2.0	16.9875	955.0	0.2	Certain	0.5	-5.99	3.1125	Yes	n/a	6.489241223103059	n/a	n/a	n/a	ShowResult	Mixed
105.729	3.506	0.016	205.748	8.0	1	-2.0	-2.0	16.9875	955.0	0.2	Certain	0.5	-5.99	3.1125	Yes	n/a	6.489241223103059	n/a	n/a	n/a	ISITrial	Mixed
109.261	3.112	0.026	209.28	8.0	1	-2.0	-2.0	16.9875	955.0	0.2	Certain	0.5	-5.99	3.1125	Yes	n/a	6.489241223103059	n/a	n/a	n/a	TrialHappPreview	Mixed
112.393	4.016	0.02	212.412	8.0	1	-2.0	-2.0	16.9875	955.0	0.2	Certain	0.5	-5.99	3.1125	Yes	n/a	6.489241223103059	n/a	n/a	688.0	TrialHappiness	Mixed
112.394	1.052	n/a	212.706	8.0	1	-2.0	-2.0	16.9875	955.0	0.2	Certain	0.5	-5.99	3.1125	Yes	n/a	6.489241223103059	n/a	n/a	688.0	TrialHappinessSliderResponse	Mixed
116.409	4.45	4.016	216.428	8.0	1	-2.0	-2.0	16.9875	955.0	0.2	Certain	0.5	-5.99	3.1125	Yes	n/a	6.489241223103059	n/a	n/a	n/a	ISIRate	Mixed
120.89	3.0	0.031	220.909	9.0	1	0.0	0.0	16.9875	955.0	0.82	Certain	-3.42	3.5	0.0	No	4.0	6.91845979614949	1.695	122.585	n/a	GetAnswer	Mixed
122.606	4.0	0.021	222.625	9.0	1	0.0	0.0	16.9875	955.0	0.82	Certain	-3.42	3.5	0.0	No	n/a	6.91845979614949	n/a	n/a	n/a	ShowChoice	Mixed
126.622	1.0	0.016	226.641	9.0	1	0.0	0.0	16.9875	955.0	0.82	Certain	-3.42	3.5	0.0	No	n/a	6.91845979614949	n/a	n/a	n/a	ShowResult	Mixed
127.638	2.0	0.016	227.657	9.0	1	0.0	0.0	16.9875	955.0	0.82	Certain	-3.42	3.5	0.0	No	n/a	6.91845979614949	n/a	n/a	n/a	ISITrial	Mixed
129.671	3.0	0.033	229.69	10.0	1	10.99	5.5	18.3613	955.0	5.0	Outcome2	12.3	10.99	4.0	Yes	2.0	-1.30728576821442	1.153	130.824	n/a	GetAnswer	Loss
130.853	4.0	0.029	230.872	10.0	1	10.99	5.5	18.3613	955.0	5.0	Outcome2	12.3	10.99	4.0	Yes	n/a	-1.30728576821442	n/a	n/a	n/a	ShowChoice	Loss
134.869	1.0	0.016	234.888	10.0	1	10.99	5.5	18.3613	955.0	5.0	Outcome2	12.3	10.99	4.0	Yes	n/a	-1.30728576821442	n/a	n/a	n/a	ShowResult	Loss
135.885	2.0	0.016	235.904	10.0	1	10.99	5.5	18.3613	955.0	5.0	Outcome2	12.3	10.99	4.0	Yes	n/a	-1.30728576821442	n/a	n/a	n/a	ISITrial	Loss
137.901	4.0	0.016	237.92	10.0	1	10.99	5.5	18.3613	955.0	5.0	Outcome2	12.3	10.99	4.0	Yes	n/a	-1.30728576821442	n/a	n/a	n/a	TrialHappPreview	Loss
141.933	4.015	0.032	241.952	10.0	1	10.99	5.5	18.3613	955.0	5.0	Outcome2	12.3	10.99	4.0	Yes	n/a	-1.30728576821442	n/a	n/a	680.0	TrialHappiness	Loss
141.934	0.808	n/a	242.235	10.0	1	10.99	5.5	18.3613	955.0	5.0	Outcome2	12.3	10.99	4.0	Yes	n/a	-1.30728576821442	n/a	n/a	680.0	TrialHappinessSliderResponse	Loss
145.948	8.0	4.015	245.967	10.0	1	10.99	5.5	18.3613	955.0	5.0	Outcome2	12.3	10.99	4.0	Yes	n/a	-1.30728576821442	n/a	n/a	n/a	ISIRate	Loss
153.979	3.0	0.031	253.998	11.0	1	-5.0	-5.0	17.7363	955.0	0.2	Certain	-9.16	-1.5	0.0	No	4.0	7.65911664779162	1.155	155.134	n/a	GetAnswer	Mixed
155.145	4.0	0.011	255.164	11.0	1	-5.0	-5.0	17.7363	955.0	0.2	Certain	-9.16	-1.5	0.0	No	n/a	7.65911664779162	n/a	n/a	n/a	ShowChoice	Mixed
159.16	1.0	0.015	259.179	11.0	1	-5.0	-5.0	17.7363	955.0	0.2	Certain	-9.16	-1.5	0.0	No	n/a	7.65911664779162	n/a	n/a	n/a	ShowResult	Mixed
160.177	3.324	0.017	260.196	11.0	1	-5.0	-5.0	17.7363	955.0	0.2	Certain	-9.16	-1.5	0.0	No	n/a	7.65911664779162	n/a	n/a	n/a	ISITrial	Mixed
163.525	3.0	0.024	263.544	12.0	1	-2.0	-2.0	17.4863	955.0	0.66	Certain	1.3	-6.67	2.61875	Yes	4.0	7.97055492638732	1.285	164.81	n/a	GetAnswer	Mixed
164.825	4.0	0.015	264.844	12.0	1	-2.0	-2.0	17.4863	955.0	0.66	Certain	1.3	-6.67	2.61875	Yes	n/a	7.97055492638732	n/a	n/a	n/a	ShowChoice	Mixed
168.84	1.0	0.015	268.859	12.0	1	-2.0	-2.0	17.4863	955.0	0.66	Certain	1.3	-6.67	2.61875	Yes	n/a	7.97055492638732	n/a	n/a	n/a	ShowResult	Mixed
169.856	6.642	0.016	269.875	12.0	1	-2.0	-2.0	17.4863	955.0	0.66	Certain	1.3	-6.67	2.61875	Yes	n/a	7.97055492638732	n/a	n/a	n/a	ISITrial	Mixed
176.521	2.619	0.023	276.54	12.0	1	-2.0	-2.0	17.4863	955.0	0.66	Certain	1.3	-6.67	2.61875	Yes	n/a	7.97055492638732	n/a	n/a	n/a	TrialHappPreview	Mixed
179.17	4.015	0.03	279.189	12.0	1	-2.0	-2.0	17.4863	955.0	0.66	Certain	1.3	-6.67	2.61875	Yes	n/a	7.97055492638732	n/a	n/a	712.0	TrialHappiness	Mixed
179.17	0.561	n/a	279.784	12.0	1	-2.0	-2.0	17.4863	955.0	0.66	Certain	1.3	-6.67	2.61875	Yes	n/a	7.97055492638732	n/a	n/a	712.0	TrialHappinessSliderResponse	Mixed
183.185	2.475	4.015	283.204	12.0	1	-2.0	-2.0	17.4863	955.0	0.66	Certain	1.3	-6.67	2.61875	Yes	n/a	7.97055492638732	n/a	n/a	n/a	ISIRate	Mixed
185.684	3.0	0.024	285.703	13.0	1	2.81	1.4	17.8375	955.0	1.5	Outcome1	2.81	4.1	0.0	No	2.0	-1.28699509248773	0.928	186.612	n/a	GetAnswer	Mixed
186.634	4.0	0.022	286.653	13.0	1	2.81	1.4	17.8375	955.0	1.5	Outcome1	2.81	4.1	0.0	No	n/a	-1.28699509248773	n/a	n/a	n/a	ShowChoice	Mixed
190.649	1.0	0.015	290.668	13.0	1	2.81	1.4	17.8375	955.0	1.5	Outcome1	2.81	4.1	0.0	No	n/a	-1.28699509248773	n/a	n/a	n/a	ShowResult	Mixed
191.665	3.48	0.016	291.684	13.0	1	2.81	1.4	17.8375	955.0	1.5	Outcome1	2.81	4.1	0.0	No	n/a	-1.28699509248773	n/a	n/a	n/a	ISITrial	Mixed
195.164	3.0	0.019	295.183	14.0	1	-1.0	-1.0	17.7125	955.0	0.52	Certain	-0.9	-2.21	0.0	No	4.0	-1.30992827482069	1.42	196.584	n/a	GetAnswer	Mixed
196.614	4.0	0.03	296.633	14.0	1	-1.0	-1.0	17.7125	955.0	0.52	Certain	-0.9	-2.21	0.0	No	n/a	-1.30992827482069	n/a	n/a	n/a	ShowChoice	Mixed
200.629	1.0	0.015	300.648	14.0	1	-1.0	-1.0	17.7125	955.0	0.52	Certain	-0.9	-2.21	0.0	No	n/a	-1.30992827482069	n/a	n/a	n/a	ShowResult	Mixed
201.645	5.019	0.016	301.664	14.0	1	-1.0	-1.0	17.7125	955.0	0.52	Certain	-0.9	-2.21	0.0	No	n/a	-1.30992827482069	n/a	n/a	n/a	ISITrial	Mixed
206.693	3.0	0.029	306.712	15.0	1	13.9	2.8	19.45	955.0	3.6	Outcome1	13.9	5.61	3.3485	Yes	2.0	8.28878822197056	0.989	207.682	n/a	GetAnswer	Loss
207.71	4.0	0.028	307.729	15.0	1	13.9	2.8	19.45	955.0	3.6	Outcome1	13.9	5.61	3.3485	Yes	n/a	8.28878822197056	n/a	n/a	n/a	ShowChoice	Loss
211.725	1.0	0.015	311.744	15.0	1	13.9	2.8	19.45	955.0	3.6	Outcome1	13.9	5.61	3.3485	Yes	n/a	8.28878822197056	n/a	n/a	n/a	ShowResult	Loss
212.741	7.614	0.016	312.76	15.0	1	13.9	2.8	19.45	955.0	3.6	Outcome1	13.9	5.61	3.3485	Yes	n/a	8.28878822197056	n/a	n/a	n/a	ISITrial	Loss
220.372	3.348	0.017	320.391	15.0	1	13.9	2.8	19.45	955.0	3.6	Outcome1	13.9	5.61	3.3485	Yes	n/a	8.28878822197056	n/a	n/a	n/a	TrialHappPreview	Loss
223.737	4.016	0.017	323.756	15.0	1	13.9	2.8	19.45	955.0	3.6	Outcome1	13.9	5.61	3.3485	Yes	n/a	8.28878822197056	n/a	n/a	680.0	TrialHappiness	Loss
223.738	0.819	n/a	324.142	15.0	1	13.9	2.8	19.45	955.0	3.6	Outcome1	13.9	5.61	3.3485	Yes	n/a	8.28878822197056	n/a	n/a	680.0	TrialHappinessSliderResponse	Loss
227.753	5.394	4.016	327.772	15.0	1	13.9	2.8	19.45	955.0	3.6	Outcome1	13.9	5.61	3.3485	Yes	n/a	8.28878822197056	n/a	n/a	n/a	ISIRate	Loss
233.167	3.0	0.02	333.186	16.0	1	10.41	5.2	20.7512	955.0	3.6	Outcome2	11.9	10.41	0.0	No	2.0	-1.48565496413741	0.971	234.138	n/a	GetAnswer	Loss
234.15	4.0	0.012	334.169	16.0	1	10.41	5.2	20.7512	955.0	3.6	Outcome2	11.9	10.41	0.0	No	n/a	-1.48565496413741	n/a	n/a	n/a	ShowChoice	Loss
238.166	1.0	0.016	338.185	16.0	1	10.41	5.2	20.7512	955.0	3.6	Outcome2	11.9	10.41	0.0	No	n/a	-1.48565496413741	n/a	n/a	n/a	ShowResult	Loss
239.182	3.008	0.016	339.201	16.0	1	10.41	5.2	20.7512	955.0	3.6	Outcome2	11.9	10.41	0.0	No	n/a	-1.48565496413741	n/a	n/a	n/a	ISITrial	Loss
242.214	3.0	0.024	342.233	17.0	1	-0.26	-0.26	20.7187	955.0	2.0	Certain	8.9	-0.52	3.0415	Yes	4.0	9.41902604756512	1.192	243.406	n/a	GetAnswer	Gain
243.431	4.0	0.025	343.45	17.0	1	-0.26	-0.26	20.7187	955.0	2.0	Certain	8.9	-0.52	3.0415	Yes	n/a	9.41902604756512	n/a	n/a	n/a	ShowChoice	Gain
247.446	1.0	0.015	347.465	17.0	1	-0.26	-0.26	20.7187	955.0	2.0	Certain	8.9	-0.52	3.0415	Yes	n/a	9.41902604756512	n/a	n/a	n/a	ShowResult	Gain
248.462	3.566	0.016	348.481	17.0	1	-0.26	-0.26	20.7187	955.0	2.0	Certain	8.9	-0.52	3.0415	Yes	n/a	9.41902604756512	n/a	n/a	n/a	ISITrial	Gain
252.044	3.042	0.016	352.063	17.0	1	-0.26	-0.26	20.7187	955.0	2.0	Certain	8.9	-0.52	3.0415	Yes	n/a	9.41902604756512	n/a	n/a	n/a	TrialHappPreview	Gain
255.11	4.015	0.024	355.129	17.0	1	-0.26	-0.26	20.7187	955.0	2.0	Certain	8.9	-0.52	3.0415	Yes	n/a	9.41902604756512	n/a	n/a	704.0	TrialHappiness	Gain
255.11	0.543	n/a	355.391	17.0	1	-0.26	-0.26	20.7187	955.0	2.0	Certain	8.9	-0.52	3.0415	Yes	n/a	9.41902604756512	n/a	n/a	704.0	TrialHappinessSliderResponse	Gain
259.125	4.166	4.015	359.144	17.0	1	-0.26	-0.26	20.7187	955.0	2.0	Certain	8.9	-0.52	3.0415	Yes	n/a	9.41902604756512	n/a	n/a	n/a	ISIRate	Gain
263.307	3.0	0.016	363.326	18.0	1	11.1	0.89	22.1062	955.0	2.22	Outcome2	1.78	11.1	0.0	No	2.0	9.32276330690827	1.333	264.64	n/a	GetAnswer	Loss
264.656	4.0	0.016	364.675	18.0	1	11.1	0.89	22.1062	955.0	2.22	Outcome2	1.78	11.1	0.0	No	n/a	9.32276330690827	n/a	n/a	n/a	ShowChoice	Loss
268.672	1.0	0.016	368.691	18.0	1	11.1	0.89	22.1062	955.0	2.22	Outcome2	1.78	11.1	0.0	No	n/a	9.32276330690827	n/a	n/a	n/a	ShowResult	Loss
269.688	6.787	0.016	369.707	18.0	1	11.1	0.89	22.1062	955.0	2.22	Outcome2	1.78	11.1	0.0	No	n/a	9.32276330690827	n/a	n/a	n/a	ISITrial	Loss
276.502	3.0	0.027	376.521	19.0	1	13.3	1.84	23.7687	955.0	2.48	Outcome2	3.69	13.3	0.0	No	2.0	9.60702151755379	1.323	277.825	n/a	GetAnswer	Loss
277.852	4.0	0.027	377.871	19.0	1	13.3	1.84	23.7687	955.0	2.48	Outcome2	3.69	13.3	0.0	No	n/a	9.60702151755379	n/a	n/a	n/a	ShowChoice	Loss
281.867	1.0	0.015	381.886	19.0	1	13.3	1.84	23.7687	955.0	2.48	Outcome2	3.69	13.3	0.0	No	n/a	9.60702151755379	n/a	n/a	n/a	ShowResult	Loss
282.883	2.0	0.016	382.902	19.0	1	13.3	1.84	23.7687	955.0	2.48	Outcome2	3.69	13.3	0.0	No	n/a	9.60702151755379	n/a	n/a	n/a	ISITrial	Loss
284.899	3.0	0.016	384.918	20.0	1	11.3	0.7	25.1812	955.0	2.48	Outcome2	1.41	11.3	2.92125	Yes	2.0	9.89127972819932	1.376	286.275	n/a	GetAnswer	Loss
286.299	4.0	0.024	386.318	20.0	1	11.3	0.7	25.1812	955.0	2.48	Outcome2	1.41	11.3	2.92125	Yes	n/a	9.89127972819932	n/a	n/a	n/a	ShowChoice	Loss
290.314	1.0	0.015	390.333	20.0	1	11.3	0.7	25.1812	955.0	2.48	Outcome2	1.41	11.3	2.92125	Yes	n/a	9.89127972819932	n/a	n/a	n/a	ShowResult	Loss
291.33	8.0	0.016	391.349	20.0	1	11.3	0.7	25.1812	955.0	2.48	Outcome2	1.41	11.3	2.92125	Yes	n/a	9.89127972819932	n/a	n/a	n/a	ISITrial	Loss
299.344	2.921	0.014	399.363	20.0	1	11.3	0.7	25.1812	955.0	2.48	Outcome2	1.41	11.3	2.92125	Yes	n/a	9.89127972819932	n/a	n/a	n/a	TrialHappPreview	Loss
302.293	4.015	0.028	402.312	20.0	1	11.3	0.7	25.1812	955.0	2.48	Outcome2	1.41	11.3	2.92125	Yes	n/a	9.89127972819932	n/a	n/a	692.0	TrialHappiness	Loss
302.294	0.999	n/a	402.703	20.0	1	11.3	0.7	25.1812	955.0	2.48	Outcome2	1.41	11.3	2.92125	Yes	n/a	9.89127972819932	n/a	n/a	692.0	TrialHappinessSliderResponse	Loss
306.308	3.685	4.015	406.327	20.0	1	11.3	0.7	25.1812	955.0	2.48	Outcome2	1.41	11.3	2.92125	Yes	n/a	9.89127972819932	n/a	n/a	n/a	ISIRate	Loss
310.024	3.0	0.031	410.043	21.0	1	-4.0	-4.0	24.6812	955.0	0.3	Certain	-9.68	0.7	0.0	No	4.0	10.3793884484711	1.672	311.696	n/a	GetAnswer	Mixed
311.706	4.0	0.01	411.725	21.0	1	-4.0	-4.0	24.6812	955.0	0.3	Certain	-9.68	0.7	0.0	No	n/a	10.3793884484711	n/a	n/a	n/a	ShowChoice	Mixed
315.722	1.0	0.016	415.741	21.0	1	-4.0	-4.0	24.6812	955.0	0.3	Certain	-9.68	0.7	0.0	No	n/a	10.3793884484711	n/a	n/a	n/a	ShowResult	Mixed
316.738	3.555	0.016	416.757	21.0	1	-4.0	-4.0	24.6812	955.0	0.3	Certain	-9.68	0.7	0.0	No	n/a	10.3793884484711	n/a	n/a	n/a	ISITrial	Mixed
320.32	3.0	0.027	420.339	22.0	1	-2.88	-2.0	24.3212	955.0	0.3	Outcome2	-1.3	-2.88	3.2195	Yes	2.0	-1.5847489618724	2.151	322.471	n/a	GetAnswer	Mixed
322.486	4.0	0.014	422.505	22.0	1	-2.88	-2.0	24.3212	955.0	0.3	Outcome2	-1.3	-2.88	3.2195	Yes	n/a	-1.5847489618724	n/a	n/a	n/a	ShowChoice	Mixed
326.501	1.0	0.015	426.52	22.0	1	-2.88	-2.0	24.3212	955.0	0.3	Outcome2	-1.3	-2.88	3.2195	Yes	n/a	-1.5847489618724	n/a	n/a	n/a	ShowResult	Mixed
327.518	6.793	0.017	427.537	22.0	1	-2.88	-2.0	24.3212	955.0	0.3	Outcome2	-1.3	-2.88	3.2195	Yes	n/a	-1.5847489618724	n/a	n/a	n/a	ISITrial	Mixed
334.332	3.22	0.021	434.351	22.0	1	-2.88	-2.0	24.3212	955.0	0.3	Outcome2	-1.3	-2.88	3.2195	Yes	n/a	-1.5847489618724	n/a	n/a	n/a	TrialHappPreview	Mixed
337.581	4.015	0.029	437.6	22.0	1	-2.88	-2.0	24.3212	955.0	0.3	Outcome2	-1.3	-2.88	3.2195	Yes	n/a	-1.5847489618724	n/a	n/a	652.0	TrialHappiness	Mixed
337.581	2.497	n/a	438.009	22.0	1	-2.88	-2.0	24.3212	955.0	0.3	Outcome2	-1.3	-2.88	3.2195	Yes	n/a	-1.5847489618724	n/a	n/a	652.0	TrialHappinessSliderResponse	Mixed
341.596	4.878	4.015	441.615	22.0	1	-2.88	-2.0	24.3212	955.0	0.3	Outcome2	-1.3	-2.88	3.2195	Yes	n/a	-1.5847489618724	n/a	n/a	n/a	ISIRate	Mixed
346.494	3.0	0.02	446.513	23.0	1	9.93	4.96	25.5624	955.0	3.16	Outcome1	9.93	11.7	0.0	No	2.0	-1.77189505473764	1.018	347.512	n/a	GetAnswer	Loss
347.527	4.0	0.015	447.546	23.0	1	9.93	4.96	25.5624	955.0	3.16	Outcome1	9.93	11.7	0.0	No	n/a	-1.77189505473764	n/a	n/a	n/a	ShowChoice	Loss
351.542	1.0	0.015	451.561	23.0	1	9.93	4.96	25.5624	955.0	3.16	Outcome1	9.93	11.7	0.0	No	n/a	-1.77189505473764	n/a	n/a	n/a	ShowResult	Loss
352.559	8.0	0.017	452.578	23.0	1	9.93	4.96	25.5624	955.0	3.16	Outcome1	9.93	11.7	0.0	No	n/a	-1.77189505473764	n/a	n/a	n/a	ISITrial	Loss
360.589	3.0	0.03	460.608	24.0	1	-1.0	-1.0	25.4374	955.0	2.0	Certain	4.3	-7.7	3.255	Yes	4.0	11.9977349943375	1.64	362.229	n/a	GetAnswer	Mixed
362.255	4.0	0.026	462.274	24.0	1	-1.0	-1.0	25.4374	955.0	2.0	Certain	4.3	-7.7	3.255	Yes	n/a	11.9977349943375	n/a	n/a	n/a	ShowChoice	Mixed
366.271	1.0	0.016	466.29	24.0	1	-1.0	-1.0	25.4374	955.0	2.0	Certain	4.3	-7.7	3.255	Yes	n/a	11.9977349943375	n/a	n/a	n/a	ShowResult	Mixed
367.287	2.0	0.016	467.306	24.0	1	-1.0	-1.0	25.4374	955.0	2.0	Certain	4.3	-7.7	3.255	Yes	n/a	11.9977349943375	n/a	n/a	n/a	ISITrial	Mixed
369.303	3.255	0.016	469.322	24.0	1	-1.0	-1.0	25.4374	955.0	2.0	Certain	4.3	-7.7	3.255	Yes	n/a	11.9977349943375	n/a	n/a	n/a	TrialHappPreview	Mixed
372.585	4.015	0.027	472.604	24.0	1	-1.0	-1.0	25.4374	955.0	2.0	Certain	4.3	-7.7	3.255	Yes	n/a	11.9977349943375	n/a	n/a	672.0	TrialHappiness	Mixed
372.586	2.427	n/a	473.326	24.0	1	-1.0	-1.0	25.4374	955.0	2.0	Certain	4.3	-7.7	3.255	Yes	n/a	11.9977349943375	n/a	n/a	672.0	TrialHappinessSliderResponse	Mixed
376.6	5.02	4.015	476.619	24.0	1	-1.0	-1.0	25.4374	955.0	2.0	Certain	4.3	-7.7	3.255	Yes	n/a	11.9977349943375	n/a	n/a	n/a	ISIRate	Mixed
381.648	3.0	0.028	481.667	25.0	1	-3.0	-3.0	25.0624	955.0	2.0	Certain	2.3	-9.7	0.0	No	4.0	12.001132502831302	1.321	382.969	n/a	GetAnswer	Mixed
382.981	4.0	0.012	483.0	25.0	1	-3.0	-3.0	25.0624	955.0	2.0	Certain	2.3	-9.7	0.0	No	n/a	12.001132502831302	n/a	n/a	n/a	ShowChoice	Mixed
386.997	1.0	0.016	487.016	25.0	1	-3.0	-3.0	25.0624	955.0	2.0	Certain	2.3	-9.7	0.0	No	n/a	12.001132502831302	n/a	n/a	n/a	ShowResult	Mixed
388.013	3.749	0.016	488.032	25.0	1	-3.0	-3.0	25.0624	955.0	2.0	Certain	2.3	-9.7	0.0	No	n/a	12.001132502831302	n/a	n/a	n/a	ISITrial	Mixed
391.778	3.0	0.016	491.797	26.0	1	-4.0	-4.0	24.5624	955.0	1.5	Certain	-10.22	2.1	0.0	No	4.0	12.321630804077	1.469	393.247	n/a	GetAnswer	Mixed
393.261	4.0	0.014	493.28	26.0	1	-4.0	-4.0	24.5624	955.0	1.5	Certain	-10.22	2.1	0.0	No	n/a	12.321630804077	n/a	n/a	n/a	ShowChoice	Mixed
397.276	1.0	0.015	497.295	26.0	1	-4.0	-4.0	24.5624	955.0	1.5	Certain	-10.22	2.1	0.0	No	n/a	12.321630804077	n/a	n/a	n/a	ShowResult	Mixed
398.293	7.834	0.017	498.312	26.0	1	-4.0	-4.0	24.5624	955.0	1.5	Certain	-10.22	2.1	0.0	No	n/a	12.321630804077	n/a	n/a	n/a	ISITrial	Mixed
406.157	3.0	0.03	506.176	27.0	1	1.9	0.95	24.7999	955.0	1.0	Outcome1	1.9	3.7	2.54975	Yes	2.0	-1.80134012835032	1.3	407.457	n/a	GetAnswer	Mixed
407.473	4.0	0.016	507.492	27.0	1	1.9	0.95	24.7999	955.0	1.0	Outcome1	1.9	3.7	2.54975	Yes	n/a	-1.80134012835032	n/a	n/a	n/a	ShowChoice	Mixed
411.488	1.0	0.015	511.507	27.0	1	1.9	0.95	24.7999	955.0	1.0	Outcome1	1.9	3.7	2.54975	Yes	n/a	-1.80134012835032	n/a	n/a	n/a	ShowResult	Mixed
412.504	4.225	0.016	512.523	27.0	1	1.9	0.95	24.7999	955.0	1.0	Outcome1	1.9	3.7	2.54975	Yes	n/a	-1.80134012835032	n/a	n/a	n/a	ISITrial	Mixed
416.753	2.55	0.024	516.772	27.0	1	1.9	0.95	24.7999	955.0	1.0	Outcome1	1.9	3.7	2.54975	Yes	n/a	-1.80134012835032	n/a	n/a	n/a	TrialHappPreview	Mixed
419.319	4.015	0.016	519.338	27.0	1	1.9	0.95	24.7999	955.0	1.0	Outcome1	1.9	3.7	2.54975	Yes	n/a	-1.80134012835032	n/a	n/a	696.0	TrialHappiness	Mixed
419.319	1.124	n/a	519.704	27.0	1	1.9	0.95	24.7999	955.0	1.0	Outcome1	1.9	3.7	2.54975	Yes	n/a	-1.80134012835032	n/a	n/a	696.0	TrialHappinessSliderResponse	Mixed
423.334	2.199	4.015	523.353	27.0	1	1.9	0.95	24.7999	955.0	1.0	Outcome1	1.9	3.7	2.54975	Yes	n/a	-1.80134012835032	n/a	n/a	n/a	ISIRate	Mixed
510.97	0.39	n/a	611.354	n/a	1	n/a	n/a	n/a	n/a	n/a	n/a	n/a	n/a	n/a	n/a	n/a	n/a	n/a	n/a	632.0	BlockStartHappinessSliderResponse	n/a
-96.132	-0.001	0.017	525.569	n/a	2	n/a	n/a	n/a	n/a	n/a	n/a	n/a	n/a	n/a	n/a	{SPACE}	n/a	81.381	-14.751	n/a	Rest	n/a
-14.728	4.0	0.023	606.973	n/a	2	n/a	n/a	n/a	n/a	n/a	n/a	n/a	n/a	n/a	n/a	n/a	n/a	n/a	n/a	n/a	BlockHappyPreview	n/a
-10.712	0.755	0.016	610.989	n/a	2	n/a	n/a	n/a	n/a	n/a	n/a	n/a	n/a	n/a	n/a	n/a	n/a	n/a	n/a	632.0	BlockStartHappiness	n/a
-3.348	-0.001	0.011	618.353	n/a	2	n/a	n/a	n/a	n/a	n/a	n/a	n/a	n/a	n/a	n/a	5.0	n/a	3.326	-0.022	n/a	ScanWait	n/a
0.0	10.0	0.022	621.701	n/a	2	n/a	n/a	n/a	n/a	n/a	n/a	n/a	n/a	n/a	n/a	n/a	n/a	n/a	n/a	n/a	GetReady	n/a
10.014	3.0	0.014	631.715	28.0	2	1.0	1.0	24.9249	70.0	3.6	Certain	-0.3	1.98	0.0	No	4.0	2.28325774754346	0.981	10.995	n/a	GetAnswer	Gain
11.013	4.0	0.018	632.714	28.0	2	1.0	1.0	24.9249	70.0	3.6	Certain	-0.3	1.98	0.0	No	n/a	2.28325774754346	n/a	n/a	n/a	ShowChoice	Gain
15.029	1.0	0.016	636.73	28.0	2	1.0	1.0	24.9249	70.0	3.6	Certain	-0.3	1.98	0.0	No	n/a	2.28325774754346	n/a	n/a	n/a	ShowResult	Gain
16.045	3.575	0.016	637.746	28.0	2	1.0	1.0	24.9249	70.0	3.6	Certain	-0.3	1.98	0.0	No	n/a	2.28325774754346	n/a	n/a	n/a	ISITrial	Gain
19.644	3.0	0.024	641.345	29.0	2	-8.7	-3.0	23.8374	70.0	0.82	Outcome1	-8.7	1.5	3.529	Yes	2.0	-10.1950113378685	1.098	20.742	n/a	GetAnswer	Mixed
20.76	4.0	0.018	642.461	29.0	2	-8.7	-3.0	23.8374	70.0	0.82	Outcome1	-8.7	1.5	3.529	Yes	n/a	-10.1950113378685	n/a	n/a	n/a	ShowChoice	Mixed
24.775	1.0	0.015	646.476	29.0	2	-8.7	-3.0	23.8374	70.0	0.82	Outcome1	-8.7	1.5	3.529	Yes	n/a	-10.1950113378685	n/a	n/a	n/a	ShowResult	Mixed
25.791	3.955	0.016	647.492	29.0	2	-8.7	-3.0	23.8374	70.0	0.82	Outcome1	-8.7	1.5	3.529	Yes	n/a	-10.1950113378685	n/a	n/a	n/a	ISITrial	Mixed
29.757	3.529	0.011	651.458	29.0	2	-8.7	-3.0	23.8374	70.0	0.82	Outcome1	-8.7	1.5	3.529	Yes	n/a	-10.1950113378685	n/a	n/a	n/a	TrialHappPreview	Mixed
33.305	4.016	0.019	655.006	29.0	2	-8.7	-3.0	23.8374	70.0	0.82	Outcome1	-8.7	1.5	3.529	Yes	n/a	-10.1950113378685	n/a	n/a	648.0	TrialHappiness	Mixed
33.306	0.432	n/a	655.348	29.0	2	-8.7	-3.0	23.8374	70.0	0.82	Outcome1	-8.7	1.5	3.529	Yes	n/a	-10.1950113378685	n/a	n/a	648.0	TrialHappinessSliderResponse	Mixed
37.321	6.116	4.016	659.022	29.0	2	-8.7	-3.0	23.8374	70.0	0.82	Outcome1	-8.7	1.5	3.529	Yes	n/a	-10.1950113378685	n/a	n/a	n/a	ISIRate	Mixed
43.469	3.0	0.032	665.17	30.0	2	-1.0	-1.0	23.7124	70.0	1.68	Certain	-6.6	4.5	0.0	No	4.0	-11.1043083900227	1.921	45.39	n/a	GetAnswer	Gain
45.401	4.0	0.011	667.102	30.0	2	-1.0	-1.0	23.7124	70.0	1.68	Certain	-6.6	4.5	0.0	No	n/a	-11.1043083900227	n/a	n/a	n/a	ShowChoice	Gain
49.416	1.0	0.015	671.117	30.0	2	-1.0	-1.0	23.7124	70.0	1.68	Certain	-6.6	4.5	0.0	No	n/a	-11.1043083900227	n/a	n/a	n/a	ShowResult	Gain
50.433	4.453	0.017	672.134	30.0	2	-1.0	-1.0	23.7124	70.0	1.68	Certain	-6.6	4.5	0.0	No	n/a	-11.1043083900227	n/a	n/a	n/a	ISITrial	Gain
54.914	3.0	0.028	676.615	31.0	2	-0.83	-0.83	23.6086	70.0	4.2	Certain	10.1	-1.66	2.50325	Yes	4.0	-11.7596371882086	1.274	56.188	n/a	GetAnswer	Gain
56.214	4.0	0.025	677.915	31.0	2	-0.83	-0.83	23.6086	70.0	4.2	Certain	10.1	-1.66	2.50325	Yes	n/a	-11.7596371882086	n/a	n/a	n/a	ShowChoice	Gain
60.229	1.0	0.015	681.93	31.0	2	-0.83	-0.83	23.6086	70.0	4.2	Certain	10.1	-1.66	2.50325	Yes	n/a	-11.7596371882086	n/a	n/a	n/a	ShowResult	Gain
61.246	4.786	0.017	682.947	31.0	2	-0.83	-0.83	23.6086	70.0	4.2	Certain	10.1	-1.66	2.50325	Yes	n/a	-11.7596371882086	n/a	n/a	n/a	ISITrial	Gain
66.044	2.503	0.012	687.745	31.0	2	-0.83	-0.83	23.6086	70.0	4.2	Certain	10.1	-1.66	2.50325	Yes	n/a	-11.7596371882086	n/a	n/a	n/a	TrialHappPreview	Gain
68.576	4.016	0.029	690.277	31.0	2	-0.83	-0.83	23.6086	70.0	4.2	Certain	10.1	-1.66	2.50325	Yes	n/a	-11.7596371882086	n/a	n/a	652.0	TrialHappiness	Gain
68.577	1.713	n/a	690.916	31.0	2	-0.83	-0.83	23.6086	70.0	4.2	Certain	10.1	-1.66	2.50325	Yes	n/a	-11.7596371882086	n/a	n/a	652.0	TrialHappinessSliderResponse	Gain
72.592	2.013	4.016	694.293	31.0	2	-0.83	-0.83	23.6086	70.0	4.2	Certain	10.1	-1.66	2.50325	Yes	n/a	-11.7596371882086	n/a	n/a	n/a	ISIRate	Gain
74.624	3.0	0.019	696.325	32.0	2	-0.79	-0.79	23.5098	70.0	2.0	Certain	-1.58	10.9	0.0	No	4.0	-12.4829931972789	1.432	76.056	n/a	GetAnswer	Loss
76.074	4.0	0.018	697.775	32.0	2	-0.79	-0.79	23.5098	70.0	2.0	Certain	-1.58	10.9	0.0	No	n/a	-12.4829931972789	n/a	n/a	n/a	ShowChoice	Loss
80.089	1.0	0.015	701.79	32.0	2	-0.79	-0.79	23.5098	70.0	2.0	Certain	-1.58	10.9	0.0	No	n/a	-12.4829931972789	n/a	n/a	n/a	ShowResult	Loss
81.105	2.0	0.016	702.806	32.0	2	-0.79	-0.79	23.5098	70.0	2.0	Certain	-1.58	10.9	0.0	No	n/a	-12.4829931972789	n/a	n/a	n/a	ISITrial	Loss
83.121	3.0	0.016	704.822	33.0	2	-0.64	-0.32	23.4298	70.0	1.68	Outcome2	12.5	-0.64	0.0	No	2.0	-13.142857142857098	1.631	84.752	n/a	GetAnswer	Loss
84.771	4.0	0.019	706.472	33.0	2	-0.64	-0.32	23.4298	70.0	1.68	Outcome2	12.5	-0.64	0.0	No	n/a	-13.142857142857098	n/a	n/a	n/a	ShowChoice	Loss
88.786	1.0	0.015	710.487	33.0	2	-0.64	-0.32	23.4298	70.0	1.68	Outcome2	12.5	-0.64	0.0	No	n/a	-13.142857142857098	n/a	n/a	n/a	ShowResult	Loss
89.802	5.099	0.016	711.503	33.0	2	-0.64	-0.32	23.4298	70.0	1.68	Outcome2	12.5	-0.64	0.0	No	n/a	-13.142857142857098	n/a	n/a	n/a	ISITrial	Loss
94.917	3.0	0.016	716.618	34.0	2	-1.0	-1.0	23.3048	70.0	2.8	Certain	5.5	-8.3	3.2315	Yes	4.0	-13.8027210884354	1.546	96.463	n/a	GetAnswer	Gain
96.483	4.0	0.02	718.184	34.0	2	-1.0	-1.0	23.3048	70.0	2.8	Certain	5.5	-8.3	3.2315	Yes	n/a	-13.8027210884354	n/a	n/a	n/a	ShowChoice	Gain
100.498	1.0	0.015	722.199	34.0	2	-1.0	-1.0	23.3048	70.0	2.8	Certain	5.5	-8.3	3.2315	Yes	n/a	-13.8027210884354	n/a	n/a	n/a	ShowResult	Gain
101.515	4.784	0.017	723.216	34.0	2	-1.0	-1.0	23.3048	70.0	2.8	Certain	5.5	-8.3	3.2315	Yes	n/a	-13.8027210884354	n/a	n/a	n/a	ISITrial	Gain
106.313	3.232	0.014	728.014	34.0	2	-1.0	-1.0	23.3048	70.0	2.8	Certain	5.5	-8.3	3.2315	Yes	n/a	-13.8027210884354	n/a	n/a	n/a	TrialHappPreview	Gain
109.562	4.015	0.017	731.263	34.0	2	-1.0	-1.0	23.3048	70.0	2.8	Certain	5.5	-8.3	3.2315	Yes	n/a	-13.8027210884354	n/a	n/a	700.0	TrialHappiness	Gain
109.563	3.1	n/a	731.587	34.0	2	-1.0	-1.0	23.3048	70.0	2.8	Certain	5.5	-8.3	3.2315	Yes	n/a	-13.8027210884354	n/a	n/a	700.0	TrialHappinessSliderResponse	Gain
113.577	4.926	4.015	735.278	34.0	2	-1.0	-1.0	23.3048	70.0	2.8	Certain	5.5	-8.3	3.2315	Yes	n/a	-13.8027210884354	n/a	n/a	n/a	ISIRate	Gain
118.525	3.0	0.022	740.226	35.0	2	0.0	0.0	23.3048	70.0	3.16	Certain	-7.58	7.7	0.0	No	4.0	-15.2789115646259	0.914	119.439	n/a	GetAnswer	Gain
119.458	4.0	0.019	741.159	35.0	2	0.0	0.0	23.3048	70.0	3.16	Certain	-7.58	7.7	0.0	No	n/a	-15.2789115646259	n/a	n/a	n/a	ShowChoice	Gain
123.474	1.0	0.016	745.175	35.0	2	0.0	0.0	23.3048	70.0	3.16	Certain	-7.58	7.7	0.0	No	n/a	-15.2789115646259	n/a	n/a	n/a	ShowResult	Gain
124.49	2.098	0.016	746.191	35.0	2	0.0	0.0	23.3048	70.0	3.16	Certain	-7.58	7.7	0.0	No	n/a	-15.2789115646259	n/a	n/a	n/a	ISITrial	Gain
126.606	3.0	0.018	748.307	36.0	2	1.0	1.0	23.4298	70.0	2.22	Certain	2.28	-0.72	3.33575	Yes	4.0	2.99943310657596	1.407	128.013	n/a	GetAnswer	Gain
128.039	4.0	0.026	749.74	36.0	2	1.0	1.0	23.4298	70.0	2.22	Certain	2.28	-0.72	3.33575	Yes	n/a	2.99943310657596	n/a	n/a	n/a	ShowChoice	Gain
132.054	1.0	0.015	753.755	36.0	2	1.0	1.0	23.4298	70.0	2.22	Certain	2.28	-0.72	3.33575	Yes	n/a	2.99943310657596	n/a	n/a	n/a	ShowResult	Gain
133.07	5.156	0.016	754.771	36.0	2	1.0	1.0	23.4298	70.0	2.22	Certain	2.28	-0.72	3.33575	Yes	n/a	2.99943310657596	n/a	n/a	n/a	ISITrial	Gain
138.252	3.336	0.026	759.953	36.0	2	1.0	1.0	23.4298	70.0	2.22	Certain	2.28	-0.72	3.33575	Yes	n/a	2.99943310657596	n/a	n/a	n/a	TrialHappPreview	Gain
141.617	4.016	0.029	763.318	36.0	2	1.0	1.0	23.4298	70.0	2.22	Certain	2.28	-0.72	3.33575	Yes	n/a	2.99943310657596	n/a	n/a	668.0	TrialHappiness	Gain
141.618	1.724	n/a	764.499	36.0	2	1.0	1.0	23.4298	70.0	2.22	Certain	2.28	-0.72	3.33575	Yes	n/a	2.99943310657596	n/a	n/a	668.0	TrialHappinessSliderResponse	Gain
145.633	5.343	4.016	767.334	36.0	2	1.0	1.0	23.4298	70.0	2.22	Certain	2.28	-0.72	3.33575	Yes	n/a	2.99943310657596	n/a	n/a	n/a	ISIRate	Gain
150.997	3.0	0.021	772.698	37.0	2	-2.0	-2.0	23.1798	70.0	3.16	Certain	-10.46	5.7	0.0	No	4.0	-16.1632653061225	1.53	152.527	n/a	GetAnswer	Gain
152.547	4.0	0.02	774.248	37.0	2	-2.0	-2.0	23.1798	70.0	3.16	Certain	-10.46	5.7	0.0	No	n/a	-16.1632653061225	n/a	n/a	n/a	ShowChoice	Gain
156.562	1.0	0.015	778.263	37.0	2	-2.0	-2.0	23.1798	70.0	3.16	Certain	-10.46	5.7	0.0	No	n/a	-16.1632653061225	n/a	n/a	n/a	ShowResult	Gain
157.578	3.598	0.016	779.279	37.0	2	-2.0	-2.0	23.1798	70.0	3.16	Certain	-10.46	5.7	0.0	No	n/a	-16.1632653061225	n/a	n/a	n/a	ISITrial	Gain
161.194	3.0	0.018	782.895	38.0	2	2.58	1.0	23.5023	70.0	5.0	Outcome1	2.58	-0.41	0.0	No	2.0	2.98544973544974	1.599	162.793	n/a	GetAnswer	Gain
162.826	4.0	0.033	784.527	38.0	2	2.58	1.0	23.5023	70.0	5.0	Outcome1	2.58	-0.41	0.0	No	n/a	2.98544973544974	n/a	n/a	n/a	ShowChoice	Gain
166.842	1.0	0.016	788.543	38.0	2	2.58	1.0	23.5023	70.0	5.0	Outcome1	2.58	-0.41	0.0	No	n/a	2.98544973544974	n/a	n/a	n/a	ShowResult	Gain
167.858	4.787	0.016	789.559	38.0	2	2.58	1.0	23.5023	70.0	5.0	Outcome1	2.58	-0.41	0.0	No	n/a	2.98544973544974	n/a	n/a	n/a	ISITrial	Gain
172.673	3.0	0.028	794.374	39.0	2	0.0	0.0	23.5023	70.0	5.0	Certain	-9.22	8.3	2.86425	Yes	4.0	-17.519274376417197	1.197	173.87	n/a	GetAnswer	Gain
173.889	4.0	0.019	795.59	39.0	2	0.0	0.0	23.5023	70.0	5.0	Certain	-9.22	8.3	2.86425	Yes	n/a	-17.519274376417197	n/a	n/a	n/a	ShowChoice	Gain
177.904	1.0	0.015	799.605	39.0	2	0.0	0.0	23.5023	70.0	5.0	Certain	-9.22	8.3	2.86425	Yes	n/a	-17.519274376417197	n/a	n/a	n/a	ShowResult	Gain
178.921	2.348	0.017	800.622	39.0	2	0.0	0.0	23.5023	70.0	5.0	Certain	-9.22	8.3	2.86425	Yes	n/a	-17.519274376417197	n/a	n/a	n/a	ISITrial	Gain
181.287	2.864	0.018	802.988	39.0	2	0.0	0.0	23.5023	70.0	5.0	Certain	-9.22	8.3	2.86425	Yes	n/a	-17.519274376417197	n/a	n/a	n/a	TrialHappPreview	Gain
184.169	4.015	0.018	805.87	39.0	2	0.0	0.0	23.5023	70.0	5.0	Certain	-9.22	8.3	2.86425	Yes	2{-2}2{-2}	-17.519274376417197	2.789	186.958	672.0	TrialHappiness	Gain
184.17	2.124	n/a	806.536	39.0	2	0.0	0.0	23.5023	70.0	5.0	Certain	-9.22	8.3	2.86425	Yes	n/a	-17.519274376417197	n/a	n/a	672.0	TrialHappinessSliderResponse	Gain
188.184	3.457	4.015	809.885	39.0	2	0.0	0.0	23.5023	70.0	5.0	Certain	-9.22	8.3	2.86425	Yes	n/a	-17.519274376417197	n/a	n/a	n/a	ISIRate	Gain
191.666	3.0	0.025	813.367	40.0	2	0.0	0.0	23.5023	70.0	0.66	Certain	0.82	-2.29	0.0	No	4.0	3.11470143613001	1.11	192.776	n/a	GetAnswer	Mixed
192.799	4.0	0.023	814.5	40.0	2	0.0	0.0	23.5023	70.0	0.66	Certain	0.82	-2.29	0.0	No	n/a	3.11470143613001	n/a	n/a	n/a	ShowChoice	Mixed
196.814	1.0	0.015	818.515	40.0	2	0.0	0.0	23.5023	70.0	0.66	Certain	0.82	-2.29	0.0	No	n/a	3.11470143613001	n/a	n/a	n/a	ShowResult	Mixed
197.831	3.158	0.017	819.532	40.0	2	0.0	0.0	23.5023	70.0	0.66	Certain	0.82	-2.29	0.0	No	n/a	3.11470143613001	n/a	n/a	n/a	ISITrial	Mixed
201.013	3.0	0.024	822.714	41.0	2	-1.0	-1.0	23.3773	70.0	0.2	Certain	0.62	-2.55	4.0	Yes	4.0	3.1715797430083104	1.559	202.572	n/a	GetAnswer	Mixed
202.596	4.0	0.024	824.297	41.0	2	-1.0	-1.0	23.3773	70.0	0.2	Certain	0.62	-2.55	4.0	Yes	n/a	3.1715797430083104	n/a	n/a	n/a	ShowChoice	Mixed
206.611	1.0	0.015	828.312	41.0	2	-1.0	-1.0	23.3773	70.0	0.2	Certain	0.62	-2.55	4.0	Yes	n/a	3.1715797430083104	n/a	n/a	n/a	ShowResult	Mixed
207.627	4.506	0.016	829.328	41.0	2	-1.0	-1.0	23.3773	70.0	0.2	Certain	0.62	-2.55	4.0	Yes	n/a	3.1715797430083104	n/a	n/a	n/a	ISITrial	Mixed
212.159	4.0	0.026	833.86	41.0	2	-1.0	-1.0	23.3773	70.0	0.2	Certain	0.62	-2.55	4.0	Yes	n/a	3.1715797430083104	n/a	n/a	n/a	TrialHappPreview	Mixed
216.174	4.016	0.015	837.875	41.0	2	-1.0	-1.0	23.3773	70.0	0.2	Certain	0.62	-2.55	4.0	Yes	n/a	3.1715797430083104	n/a	n/a	672.0	TrialHappiness	Mixed
216.175	0.85	n/a	838.212	41.0	2	-1.0	-1.0	23.3773	70.0	0.2	Certain	0.62	-2.55	4.0	Yes	n/a	3.1715797430083104	n/a	n/a	672.0	TrialHappinessSliderResponse	Mixed
220.19	8.0	4.016	841.891	41.0	2	-1.0	-1.0	23.3773	70.0	0.2	Certain	0.62	-2.55	4.0	Yes	n/a	3.1715797430083104	n/a	n/a	n/a	ISIRate	Mixed
228.22	3.0	0.03	849.921	42.0	2	0.0	0.0	23.3773	70.0	2.0	Certain	-2.0	1.23	0.0	No	4.0	3.22845804988662	1.171	229.391	n/a	GetAnswer	Gain
229.403	4.0	0.012	851.104	42.0	2	0.0	0.0	23.3773	70.0	2.0	Certain	-2.0	1.23	0.0	No	n/a	3.22845804988662	n/a	n/a	n/a	ShowChoice	Gain
233.418	1.0	0.015	855.119	42.0	2	0.0	0.0	23.3773	70.0	2.0	Certain	-2.0	1.23	0.0	No	n/a	3.22845804988662	n/a	n/a	n/a	ShowResult	Gain
234.435	6.248	0.017	856.136	42.0	2	0.0	0.0	23.3773	70.0	2.0	Certain	-2.0	1.23	0.0	No	n/a	3.22845804988662	n/a	n/a	n/a	ISITrial	Gain
240.699	3.0	0.016	862.4	43.0	2	-7.0	-7.0	22.5023	70.0	0.3	Certain	-17.61	2.7	2.77575	Yes	4.0	-20.312925170068	1.143	241.842	n/a	GetAnswer	Mixed
241.865	4.0	0.023	863.566	43.0	2	-7.0	-7.0	22.5023	70.0	0.3	Certain	-17.61	2.7	2.77575	Yes	n/a	-20.312925170068	n/a	n/a	n/a	ShowChoice	Mixed
245.881	1.0	0.016	867.582	43.0	2	-7.0	-7.0	22.5023	70.0	0.3	Certain	-17.61	2.7	2.77575	Yes	n/a	-20.312925170068	n/a	n/a	n/a	ShowResult	Mixed
246.897	4.596	0.016	868.598	43.0	2	-7.0	-7.0	22.5023	70.0	0.3	Certain	-17.61	2.7	2.77575	Yes	n/a	-20.312925170068	n/a	n/a	n/a	ISITrial	Mixed
251.512	2.776	0.019	873.213	43.0	2	-7.0	-7.0	22.5023	70.0	0.3	Certain	-17.61	2.7	2.77575	Yes	n/a	-20.312925170068	n/a	n/a	n/a	TrialHappPreview	Mixed
254.311	4.015	0.023	876.012	43.0	2	-7.0	-7.0	22.5023	70.0	0.3	Certain	-17.61	2.7	2.77575	Yes	n/a	-20.312925170068	n/a	n/a	696.0	TrialHappiness	Mixed
254.311	0.523	n/a	876.495	43.0	2	-7.0	-7.0	22.5023	70.0	0.3	Certain	-17.61	2.7	2.77575	Yes	n/a	-20.312925170068	n/a	n/a	696.0	TrialHappinessSliderResponse	Mixed
258.326	3.103	4.015	880.027	43.0	2	-7.0	-7.0	22.5023	70.0	0.3	Certain	-17.61	2.7	2.77575	Yes	n/a	-20.312925170068	n/a	n/a	n/a	ISIRate	Mixed
261.458	3.0	0.029	883.159	44.0	2	-7.0	-7.0	21.6273	70.0	0.52	Certain	-18.3	3.1	0.0	No	4.0	-21.4036281179138	1.002	262.46	n/a	GetAnswer	Mixed
262.475	4.0	0.015	884.176	44.0	2	-7.0	-7.0	21.6273	70.0	0.52	Certain	-18.3	3.1	0.0	No	n/a	-21.4036281179138	n/a	n/a	n/a	ShowChoice	Mixed
266.49	1.0	0.015	888.191	44.0	2	-7.0	-7.0	21.6273	70.0	0.52	Certain	-18.3	3.1	0.0	No	n/a	-21.4036281179138	n/a	n/a	n/a	ShowResult	Mixed
267.506	2.42	0.016	889.207	44.0	2	-7.0	-7.0	21.6273	70.0	0.52	Certain	-18.3	3.1	0.0	No	n/a	-21.4036281179138	n/a	n/a	n/a	ISITrial	Mixed
269.955	3.0	0.029	891.656	45.0	2	0.0	0.0	21.6273	70.0	1.68	Certain	1.62	-1.88	0.0	No	4.0	3.49886621315193	1.114	271.069	n/a	GetAnswer	Gain
271.088	4.0	0.018	892.789	45.0	2	0.0	0.0	21.6273	70.0	1.68	Certain	1.62	-1.88	0.0	No	n/a	3.49886621315193	n/a	n/a	n/a	ShowChoice	Gain
275.104	1.0	0.016	896.805	45.0	2	0.0	0.0	21.6273	70.0	1.68	Certain	1.62	-1.88	0.0	No	n/a	3.49886621315193	n/a	n/a	n/a	ShowResult	Gain
276.12	3.144	0.016	897.821	45.0	2	0.0	0.0	21.6273	70.0	1.68	Certain	1.62	-1.88	0.0	No	n/a	3.49886621315193	n/a	n/a	n/a	ISITrial	Gain
279.285	3.0	0.021	900.986	46.0	2	-11.0	-11.0	20.2523	70.0	1.2	Certain	-22.92	-0.1	3.84125	Yes	4.0	-22.823129251700696	1.649	280.934	n/a	GetAnswer	Mixed
280.952	4.0	0.018	902.653	46.0	2	-11.0	-11.0	20.2523	70.0	1.2	Certain	-22.92	-0.1	3.84125	Yes	n/a	-22.823129251700696	n/a	n/a	n/a	ShowChoice	Mixed
284.967	1.0	0.015	906.668	46.0	2	-11.0	-11.0	20.2523	70.0	1.2	Certain	-22.92	-0.1	3.84125	Yes	n/a	-22.823129251700696	n/a	n/a	n/a	ShowResult	Mixed
285.983	2.246	0.016	907.684	46.0	2	-11.0	-11.0	20.2523	70.0	1.2	Certain	-22.92	-0.1	3.84125	Yes	n/a	-22.823129251700696	n/a	n/a	n/a	ISITrial	Mixed
288.249	3.841	0.02	909.95	46.0	2	-11.0	-11.0	20.2523	70.0	1.2	Certain	-22.92	-0.1	3.84125	Yes	n/a	-22.823129251700696	n/a	n/a	n/a	TrialHappPreview	Mixed
292.114	4.015	0.024	913.815	46.0	2	-11.0	-11.0	20.2523	70.0	1.2	Certain	-22.92	-0.1	3.84125	Yes	n/a	-22.823129251700696	n/a	n/a	680.0	TrialHappiness	Mixed
292.115	0.501	n/a	914.07	46.0	2	-11.0	-11.0	20.2523	70.0	1.2	Certain	-22.92	-0.1	3.84125	Yes	n/a	-22.823129251700696	n/a	n/a	680.0	TrialHappinessSliderResponse	Mixed
296.129	7.365	4.015	917.83	46.0	2	-11.0	-11.0	20.2523	70.0	1.2	Certain	-22.92	-0.1	3.84125	Yes	n/a	-22.823129251700696	n/a	n/a	n/a	ISIRate	Mixed
303.527	3.0	0.033	925.228	47.0	2	-12.0	-12.0	18.7523	70.0	0.4	Certain	-24.36	-1.1	0.0	No	4.0	-23.2607709750567	1.035	304.562	n/a	GetAnswer	Mixed
304.577	4.0	0.015	926.278	47.0	2	-12.0	-12.0	18.7523	70.0	0.4	Certain	-24.36	-1.1	0.0	No	n/a	-23.2607709750567	n/a	n/a	n/a	ShowChoice	Mixed
308.592	1.0	0.015	930.293	47.0	2	-12.0	-12.0	18.7523	70.0	0.4	Certain	-24.36	-1.1	0.0	No	n/a	-23.2607709750567	n/a	n/a	n/a	ShowResult	Mixed
309.608	2.0	0.016	931.309	47.0	2	-12.0	-12.0	18.7523	70.0	0.4	Certain	-24.36	-1.1	0.0	No	n/a	-23.2607709750567	n/a	n/a	n/a	ISITrial	Mixed
311.641	3.0	0.033	933.342	48.0	2	0.0	0.0	18.7523	70.0	1.68	Certain	2.12	-1.49	2.83175	Yes	4.0	3.60978835978836	1.35	312.991	n/a	GetAnswer	Gain
313.007	4.0	0.016	934.708	48.0	2	0.0	0.0	18.7523	70.0	1.68	Certain	2.12	-1.49	2.83175	Yes	n/a	3.60978835978836	n/a	n/a	n/a	ShowChoice	Gain
317.022	1.0	0.015	938.723	48.0	2	0.0	0.0	18.7523	70.0	1.68	Certain	2.12	-1.49	2.83175	Yes	n/a	3.60978835978836	n/a	n/a	n/a	ShowResult	Gain
318.038	3.692	0.016	939.739	48.0	2	0.0	0.0	18.7523	70.0	1.68	Certain	2.12	-1.49	2.83175	Yes	n/a	3.60978835978836	n/a	n/a	n/a	ISITrial	Gain
321.754	2.832	0.024	943.455	48.0	2	0.0	0.0	18.7523	70.0	1.68	Certain	2.12	-1.49	2.83175	Yes	n/a	3.60978835978836	n/a	n/a	n/a	TrialHappPreview	Gain
324.603	4.015	0.017	946.304	48.0	2	0.0	0.0	18.7523	70.0	1.68	Certain	2.12	-1.49	2.83175	Yes	n/a	3.60978835978836	n/a	n/a	656.0	TrialHappiness	Gain
324.603	0.453	n/a	946.989	48.0	2	0.0	0.0	18.7523	70.0	1.68	Certain	2.12	-1.49	2.83175	Yes	n/a	3.60978835978836	n/a	n/a	656.0	TrialHappinessSliderResponse	Gain
328.618	3.327	4.015	950.319	48.0	2	0.0	0.0	18.7523	70.0	1.68	Certain	2.12	-1.49	2.83175	Yes	n/a	3.60978835978836	n/a	n/a	n/a	ISIRate	Gain
331.967	3.0	0.022	953.668	49.0	2	-1.0	-1.0	18.6273	70.0	1.2	Certain	-3.09	0.48	0.0	No	4.0	3.56991685563114	1.322	333.289	n/a	GetAnswer	Mixed
333.316	4.0	0.027	955.017	49.0	2	-1.0	-1.0	18.6273	70.0	1.2	Certain	-3.09	0.48	0.0	No	n/a	3.56991685563114	n/a	n/a	n/a	ShowChoice	Mixed
337.332	1.0	0.016	959.033	49.0	2	-1.0	-1.0	18.6273	70.0	1.2	Certain	-3.09	0.48	0.0	No	n/a	3.56991685563114	n/a	n/a	n/a	ShowResult	Mixed
338.348	8.0	0.016	960.049	49.0	2	-1.0	-1.0	18.6273	70.0	1.2	Certain	-3.09	0.48	0.0	No	n/a	3.56991685563114	n/a	n/a	n/a	ISITrial	Mixed
346.378	3.0	0.03	968.079	50.0	2	0.0	0.0	18.6273	70.0	4.2	Certain	12.1	-12.8	3.54725	Yes	4.0	-24.9002267573696	1.509	347.887	n/a	GetAnswer	Loss
347.911	4.0	0.024	969.612	50.0	2	0.0	0.0	18.6273	70.0	4.2	Certain	12.1	-12.8	3.54725	Yes	n/a	-24.9002267573696	n/a	n/a	n/a	ShowChoice	Loss
351.927	1.0	0.016	973.628	50.0	2	0.0	0.0	18.6273	70.0	4.2	Certain	12.1	-12.8	3.54725	Yes	n/a	-24.9002267573696	n/a	n/a	n/a	ShowResult	Loss
352.943	7.537	0.016	974.644	50.0	2	0.0	0.0	18.6273	70.0	4.2	Certain	12.1	-12.8	3.54725	Yes	n/a	-24.9002267573696	n/a	n/a	n/a	ISITrial	Loss
360.507	3.547	0.027	982.208	50.0	2	0.0	0.0	18.6273	70.0	4.2	Certain	12.1	-12.8	3.54725	Yes	n/a	-24.9002267573696	n/a	n/a	n/a	TrialHappPreview	Loss
364.072	4.015	0.018	985.773	50.0	2	0.0	0.0	18.6273	70.0	4.2	Certain	12.1	-12.8	3.54725	Yes	n/a	-24.9002267573696	n/a	n/a	672.0	TrialHappiness	Loss
364.073	0.485	n/a	986.278	50.0	2	0.0	0.0	18.6273	70.0	4.2	Certain	12.1	-12.8	3.54725	Yes	n/a	-24.9002267573696	n/a	n/a	672.0	TrialHappinessSliderResponse	Loss
368.087	6.189	4.015	989.788	50.0	2	0.0	0.0	18.6273	70.0	4.2	Certain	12.1	-12.8	3.54725	Yes	n/a	-24.9002267573696	n/a	n/a	n/a	ISIRate	Loss
374.302	3.0	0.026	996.003	51.0	2	-3.0	-3.0	18.2523	70.0	3.6	Certain	9.9	-15.94	0.0	No	4.0	-25.8367346938776	1.195	375.497	n/a	GetAnswer	Gain
375.518	4.0	0.021	997.219	51.0	2	-3.0	-3.0	18.2523	70.0	3.6	Certain	9.9	-15.94	0.0	No	n/a	-25.8367346938776	n/a	n/a	n/a	ShowChoice	Gain
379.533	1.0	0.015	1001.234	51.0	2	-3.0	-3.0	18.2523	70.0	3.6	Certain	9.9	-15.94	0.0	No	n/a	-25.8367346938776	n/a	n/a	n/a	ShowResult	Gain
380.55	5.508	0.017	1002.251	51.0	2	-3.0	-3.0	18.2523	70.0	3.6	Certain	9.9	-15.94	0.0	No	n/a	-25.8367346938776	n/a	n/a	n/a	ISITrial	Gain
386.081	3.0	0.023	1007.782	52.0	2	-2.0	-2.0	18.0023	70.0	2.0	Certain	0.08	-3.72	0.0	No	4.0	3.8025321239607	1.433	387.514	n/a	GetAnswer	Mixed
387.531	4.0	0.017	1009.232	52.0	2	-2.0	-2.0	18.0023	70.0	2.0	Certain	0.08	-3.72	0.0	No	n/a	3.8025321239607	n/a	n/a	n/a	ShowChoice	Mixed
391.546	1.0	0.015	1013.247	52.0	2	-2.0	-2.0	18.0023	70.0	2.0	Certain	0.08	-3.72	0.0	No	n/a	3.8025321239607	n/a	n/a	n/a	ShowResult	Mixed
392.562	5.913	0.016	1014.263	52.0	2	-2.0	-2.0	18.0023	70.0	2.0	Certain	0.08	-3.72	0.0	No	n/a	3.8025321239607	n/a	n/a	n/a	ISITrial	Mixed
398.493	3.0	0.018	1020.194	53.0	2	0.0	0.0	18.0023	70.0	2.22	Certain	13.1	-14.1	2.99675	Yes	4.0	-27.2018140589569	1.655	400.148	n/a	GetAnswer	Loss
400.16	4.0	0.012	1021.861	53.0	2	0.0	0.0	18.0023	70.0	2.22	Certain	13.1	-14.1	2.99675	Yes	n/a	-27.2018140589569	n/a	n/a	n/a	ShowChoice	Loss
404.175	1.0	0.015	1025.876	53.0	2	0.0	0.0	18.0023	70.0	2.22	Certain	13.1	-14.1	2.99675	Yes	n/a	-27.2018140589569	n/a	n/a	n/a	ShowResult	Loss
405.191	3.66	0.016	1026.892	53.0	2	0.0	0.0	18.0023	70.0	2.22	Certain	13.1	-14.1	2.99675	Yes	n/a	-27.2018140589569	n/a	n/a	n/a	ISITrial	Loss
408.873	2.997	0.022	1030.574	53.0	2	0.0	0.0	18.0023	70.0	2.22	Certain	13.1	-14.1	2.99675	Yes	n/a	-27.2018140589569	n/a	n/a	n/a	TrialHappPreview	Loss
411.889	4.015	0.019	1033.59	53.0	2	0.0	0.0	18.0023	70.0	2.22	Certain	13.1	-14.1	2.99675	Yes	n/a	-27.2018140589569	n/a	n/a	680.0	TrialHappiness	Loss
411.889	0.5	n/a	1033.929	53.0	2	0.0	0.0	18.0023	70.0	2.22	Certain	13.1	-14.1	2.99675	Yes	n/a	-27.2018140589569	n/a	n/a	680.0	TrialHappinessSliderResponse	Loss
415.904	3.987	4.015	1037.605	53.0	2	0.0	0.0	18.0023	70.0	2.22	Certain	13.1	-14.1	2.99675	Yes	n/a	-27.2018140589569	n/a	n/a	n/a	ISIRate	Loss
419.919	3.0	0.028	1041.62	54.0	2	-4.0	-4.0	17.5023	70.0	3.16	Certain	-18.32	9.7	0.0	No	4.0	-28.0204081632653	1.208	421.127	n/a	GetAnswer	Gain
421.152	4.0	0.025	1042.853	54.0	2	-4.0	-4.0	17.5023	70.0	3.16	Certain	-18.32	9.7	0.0	No	n/a	-28.0204081632653	n/a	n/a	n/a	ShowChoice	Gain
425.167	1.0	0.015	1046.868	54.0	2	-4.0	-4.0	17.5023	70.0	3.16	Certain	-18.32	9.7	0.0	No	n/a	-28.0204081632653	n/a	n/a	n/a	ShowResult	Gain
426.184	8.0	0.017	1047.885	54.0	2	-4.0	-4.0	17.5023	70.0	3.16	Certain	-18.32	9.7	0.0	No	n/a	-28.0204081632653	n/a	n/a	n/a	ISITrial	Gain
468.469	0.45	n/a	1090.492	n/a	2	n/a	n/a	n/a	n/a	n/a	n/a	n/a	n/a	n/a	n/a	n/a	n/a	n/a	n/a	656.0	BlockStartHappinessSliderResponse	n/a
-53.465	-0.001	0.03	1055.915	n/a	3	n/a	n/a	n/a	n/a	n/a	n/a	n/a	n/a	n/a	n/a	{SPACE}	n/a	30.224	-23.241	n/a	Rest	n/a
-23.225	4.0	0.016	1086.155	n/a	3	n/a	n/a	n/a	n/a	n/a	n/a	n/a	n/a	n/a	n/a	n/a	n/a	n/a	n/a	n/a	BlockHappyPreview	n/a
-19.21	0.772	0.015	1090.17	n/a	3	n/a	n/a	n/a	n/a	n/a	n/a	n/a	n/a	n/a	n/a	n/a	n/a	n/a	n/a	656.0	BlockStartHappiness	n/a
-7.381	-0.001	0.02	1101.999	n/a	3	n/a	n/a	n/a	n/a	n/a	n/a	n/a	n/a	n/a	n/a	5.0	n/a	7.362	-0.019	n/a	ScanWait	n/a
0.0	10.0	0.018	1109.38	n/a	3	n/a	n/a	n/a	n/a	n/a	n/a	n/a	n/a	n/a	n/a	n/a	n/a	n/a	n/a	n/a	GetReady	n/a
10.013	3.0	0.013	1119.393	55.0	3	8.7	1.81	18.5898	955.0	1.82	Outcome1	8.7	3.62	2.53325	Yes	2.0	5.0792751981879904	1.006	11.019	n/a	GetAnswer	Gain
11.046	4.0	0.027	1120.426	55.0	3	8.7	1.81	18.5898	955.0	1.82	Outcome1	8.7	3.62	2.53325	Yes	n/a	5.0792751981879904	n/a	n/a	n/a	ShowChoice	Gain
15.061	1.0	0.015	1124.441	55.0	3	8.7	1.81	18.5898	955.0	1.82	Outcome1	8.7	3.62	2.53325	Yes	n/a	5.0792751981879904	n/a	n/a	n/a	ShowResult	Gain
16.077	7.709	0.016	1125.457	55.0	3	8.7	1.81	18.5898	955.0	1.82	Outcome1	8.7	3.62	2.53325	Yes	n/a	5.0792751981879904	n/a	n/a	n/a	ISITrial	Gain
23.808	2.533	0.022	1133.188	55.0	3	8.7	1.81	18.5898	955.0	1.82	Outcome1	8.7	3.62	2.53325	Yes	n/a	5.0792751981879904	n/a	n/a	n/a	TrialHappPreview	Gain
26.357	4.015	0.016	1135.737	55.0	3	8.7	1.81	18.5898	955.0	1.82	Outcome1	8.7	3.62	2.53325	Yes	n/a	5.0792751981879904	n/a	n/a	680.0	TrialHappiness	Gain
26.358	0.493	n/a	1136.367	55.0	3	8.7	1.81	18.5898	955.0	1.82	Outcome1	8.7	3.62	2.53325	Yes	n/a	5.0792751981879904	n/a	n/a	680.0	TrialHappinessSliderResponse	Gain
30.372	2.133	4.015	1139.752	55.0	3	8.7	1.81	18.5898	955.0	1.82	Outcome1	8.7	3.62	2.53325	Yes	n/a	5.0792751981879904	n/a	n/a	n/a	ISIRate	Gain
32.522	3.0	0.017	1141.902	56.0	3	-1.0	-1.0	18.4648	955.0	1.0	Certain	-0.3	-1.44	0.0	No	4.0	-1.1442053605134	1.063	33.585	n/a	GetAnswer	Mixed
33.605	4.0	0.02	1142.985	56.0	3	-1.0	-1.0	18.4648	955.0	1.0	Certain	-0.3	-1.44	0.0	No	n/a	-1.1442053605134	n/a	n/a	n/a	ShowChoice	Mixed
37.62	1.0	0.015	1147.0	56.0	3	-1.0	-1.0	18.4648	955.0	1.0	Certain	-0.3	-1.44	0.0	No	n/a	-1.1442053605134	n/a	n/a	n/a	ShowResult	Mixed
38.636	4.697	0.016	1148.016	56.0	3	-1.0	-1.0	18.4648	955.0	1.0	Certain	-0.3	-1.44	0.0	No	n/a	-1.1442053605134	n/a	n/a	n/a	ISITrial	Mixed
43.351	3.0	0.018	1152.731	57.0	3	8.1	1.39	19.4773	955.0	4.2	Outcome2	2.78	8.1	0.0	No	2.0	5.321630804077009	1.218	44.569	n/a	GetAnswer	Gain
44.584	4.0	0.015	1153.964	57.0	3	8.1	1.39	19.4773	955.0	4.2	Outcome2	2.78	8.1	0.0	No	n/a	5.321630804077009	n/a	n/a	n/a	ShowChoice	Gain
48.599	1.0	0.015	1157.979	57.0	3	8.1	1.39	19.4773	955.0	4.2	Outcome2	2.78	8.1	0.0	No	n/a	5.321630804077009	n/a	n/a	n/a	ShowResult	Gain
49.616	4.291	0.017	1158.996	57.0	3	8.1	1.39	19.4773	955.0	4.2	Outcome2	2.78	8.1	0.0	No	n/a	5.321630804077009	n/a	n/a	n/a	ISITrial	Gain
53.931	3.0	0.024	1163.311	58.0	3	7.3	0.84	20.3898	955.0	2.48	Outcome2	1.67	7.3	3.04575	Yes	2.0	5.63306908267271	1.016	54.947	n/a	GetAnswer	Gain
54.964	4.0	0.017	1164.344	58.0	3	7.3	0.84	20.3898	955.0	2.48	Outcome2	1.67	7.3	3.04575	Yes	n/a	5.63306908267271	n/a	n/a	n/a	ShowChoice	Gain
58.979	1.0	0.015	1168.359	58.0	3	7.3	0.84	20.3898	955.0	2.48	Outcome2	1.67	7.3	3.04575	Yes	n/a	5.63306908267271	n/a	n/a	n/a	ShowResult	Gain
59.995	2.037	0.016	1169.375	58.0	3	7.3	0.84	20.3898	955.0	2.48	Outcome2	1.67	7.3	3.04575	Yes	n/a	5.63306908267271	n/a	n/a	n/a	ISITrial	Gain
62.045	3.046	0.013	1171.425	58.0	3	7.3	0.84	20.3898	955.0	2.48	Outcome2	1.67	7.3	3.04575	Yes	n/a	5.63306908267271	n/a	n/a	n/a	TrialHappPreview	Gain
65.11	4.015	0.019	1174.49	58.0	3	7.3	0.84	20.3898	955.0	2.48	Outcome2	1.67	7.3	3.04575	Yes	n/a	5.63306908267271	n/a	n/a	676.0	TrialHappiness	Gain
65.111	0.973	n/a	1174.849	58.0	3	7.3	0.84	20.3898	955.0	2.48	Outcome2	1.67	7.3	3.04575	Yes	n/a	5.63306908267271	n/a	n/a	676.0	TrialHappinessSliderResponse	Gain
69.125	4.183	4.015	1178.505	58.0	3	7.3	0.84	20.3898	955.0	2.48	Outcome2	1.67	7.3	3.04575	Yes	n/a	5.63306908267271	n/a	n/a	n/a	ISIRate	Gain
73.341	3.0	0.033	1182.721	59.0	3	11.66	5.83	21.8473	955.0	2.0	Outcome1	11.66	12.9	0.0	No	2.0	-1.23829747074368	1.134	74.475	n/a	GetAnswer	Loss
74.49	4.0	0.015	1183.87	59.0	3	11.66	5.83	21.8473	955.0	2.0	Outcome1	11.66	12.9	0.0	No	n/a	-1.23829747074368	n/a	n/a	n/a	ShowChoice	Loss
78.505	1.0	0.015	1187.885	59.0	3	11.66	5.83	21.8473	955.0	2.0	Outcome1	11.66	12.9	0.0	No	n/a	-1.23829747074368	n/a	n/a	n/a	ShowResult	Loss
79.522	5.064	0.017	1188.902	59.0	3	11.66	5.83	21.8473	955.0	2.0	Outcome1	11.66	12.9	0.0	No	n/a	-1.23829747074368	n/a	n/a	n/a	ISITrial	Loss
84.603	3.0	0.017	1193.983	60.0	3	5.1	2.0	22.4848	955.0	2.22	Outcome2	-1.23	5.1	3.5625	Yes	2.0	6.32842582106455	0.266	84.869	n/a	GetAnswer	Gain
84.886	4.0	0.017	1194.266	60.0	3	5.1	2.0	22.4848	955.0	2.22	Outcome2	-1.23	5.1	3.5625	Yes	n/a	6.32842582106455	n/a	n/a	n/a	ShowChoice	Gain
88.902	1.0	0.016	1198.282	60.0	3	5.1	2.0	22.4848	955.0	2.22	Outcome2	-1.23	5.1	3.5625	Yes	n/a	6.32842582106455	n/a	n/a	n/a	ShowResult	Gain
89.918	8.0	0.016	1199.298	60.0	3	5.1	2.0	22.4848	955.0	2.22	Outcome2	-1.23	5.1	3.5625	Yes	n/a	6.32842582106455	n/a	n/a	n/a	ISITrial	Gain
97.932	3.562	0.014	1207.312	60.0	3	5.1	2.0	22.4848	955.0	2.22	Outcome2	-1.23	5.1	3.5625	Yes	n/a	6.32842582106455	n/a	n/a	n/a	TrialHappPreview	Gain
101.514	4.015	0.02	1210.894	60.0	3	5.1	2.0	22.4848	955.0	2.22	Outcome2	-1.23	5.1	3.5625	Yes	n/a	6.32842582106455	n/a	n/a	680.0	TrialHappiness	Gain
101.515	0.485	n/a	1211.282	60.0	3	5.1	2.0	22.4848	955.0	2.22	Outcome2	-1.23	5.1	3.5625	Yes	n/a	6.32842582106455	n/a	n/a	680.0	TrialHappinessSliderResponse	Gain
105.529	6.25	4.015	1214.909	60.0	3	5.1	2.0	22.4848	955.0	2.22	Outcome2	-1.23	5.1	3.5625	Yes	n/a	6.32842582106455	n/a	n/a	n/a	ISIRate	Gain
111.81	3.0	0.031	1221.19	61.0	3	10.5	1.96	23.7973	955.0	1.68	Outcome1	10.5	3.92	0.0	No	2.0	6.576443941109849	1.24	113.05	n/a	GetAnswer	Loss
113.077	4.0	0.027	1222.457	61.0	3	10.5	1.96	23.7973	955.0	1.68	Outcome1	10.5	3.92	0.0	No	n/a	6.576443941109849	n/a	n/a	n/a	ShowChoice	Loss
117.092	1.0	0.015	1226.472	61.0	3	10.5	1.96	23.7973	955.0	1.68	Outcome1	10.5	3.92	0.0	No	n/a	6.576443941109849	n/a	n/a	n/a	ShowResult	Loss
118.108	4.586	0.016	1227.488	61.0	3	10.5	1.96	23.7973	955.0	1.68	Outcome1	10.5	3.92	0.0	No	n/a	6.576443941109849	n/a	n/a	n/a	ISITrial	Loss
122.723	3.0	0.029	1232.103	62.0	3	-2.0	-2.0	23.5473	955.0	0.4	Certain	0.9	-5.99	3.74875	Yes	4.0	6.887882219705549	1.175	123.898	n/a	GetAnswer	Mixed
123.923	4.0	0.025	1233.303	62.0	3	-2.0	-2.0	23.5473	955.0	0.4	Certain	0.9	-5.99	3.74875	Yes	n/a	6.887882219705549	n/a	n/a	n/a	ShowChoice	Mixed
127.938	1.0	0.015	1237.318	62.0	3	-2.0	-2.0	23.5473	955.0	0.4	Certain	0.9	-5.99	3.74875	Yes	n/a	6.887882219705549	n/a	n/a	n/a	ShowResult	Mixed
128.954	5.212	0.016	1238.334	62.0	3	-2.0	-2.0	23.5473	955.0	0.4	Certain	0.9	-5.99	3.74875	Yes	n/a	6.887882219705549	n/a	n/a	n/a	ISITrial	Mixed
134.186	3.749	0.02	1243.566	62.0	3	-2.0	-2.0	23.5473	955.0	0.4	Certain	0.9	-5.99	3.74875	Yes	n/a	6.887882219705549	n/a	n/a	n/a	TrialHappPreview	Mixed
137.951	4.015	0.016	1247.331	62.0	3	-2.0	-2.0	23.5473	955.0	0.4	Certain	0.9	-5.99	3.74875	Yes	n/a	6.887882219705549	n/a	n/a	704.0	TrialHappiness	Mixed
137.952	0.541	n/a	1247.863	62.0	3	-2.0	-2.0	23.5473	955.0	0.4	Certain	0.9	-5.99	3.74875	Yes	n/a	6.887882219705549	n/a	n/a	704.0	TrialHappinessSliderResponse	Mixed
141.966	6.995	4.015	1251.346	62.0	3	-2.0	-2.0	23.5473	955.0	0.4	Certain	0.9	-5.99	3.74875	Yes	n/a	6.887882219705549	n/a	n/a	n/a	ISIRate	Mixed
148.981	3.0	0.02	1258.361	63.0	3	0.0	0.0	23.5473	955.0	0.52	Certain	1.1	-0.13	0.0	No	4.0	-1.22923744809362	1.155	150.136	n/a	GetAnswer	Mixed
150.147	4.0	0.011	1259.527	63.0	3	0.0	0.0	23.5473	955.0	0.52	Certain	1.1	-0.13	0.0	No	n/a	-1.22923744809362	n/a	n/a	n/a	ShowChoice	Mixed
154.162	1.0	0.015	1263.542	63.0	3	0.0	0.0	23.5473	955.0	0.52	Certain	1.1	-0.13	0.0	No	n/a	-1.22923744809362	n/a	n/a	n/a	ShowResult	Mixed
155.178	5.595	0.016	1264.558	63.0	3	0.0	0.0	23.5473	955.0	0.52	Certain	1.1	-0.13	0.0	No	n/a	-1.22923744809362	n/a	n/a	n/a	ISITrial	Mixed
160.793	3.0	0.02	1270.173	64.0	3	-0.09	-0.09	23.536	955.0	2.0	Certain	-0.18	6.9	0.0	No	4.0	7.07587768969422	1.518	162.311	n/a	GetAnswer	Gain
162.326	4.0	0.015	1271.706	64.0	3	-0.09	-0.09	23.536	955.0	2.0	Certain	-0.18	6.9	0.0	No	n/a	7.07587768969422	n/a	n/a	n/a	ShowChoice	Gain
166.341	1.0	0.015	1275.721	64.0	3	-0.09	-0.09	23.536	955.0	2.0	Certain	-0.18	6.9	0.0	No	n/a	7.07587768969422	n/a	n/a	n/a	ShowResult	Gain
167.357	5.47	0.016	1276.737	64.0	3	-0.09	-0.09	23.536	955.0	2.0	Certain	-0.18	6.9	0.0	No	n/a	7.07587768969422	n/a	n/a	n/a	ISITrial	Gain
172.855	3.0	0.028	1282.235	65.0	3	-2.0	-2.0	23.286	955.0	1.0	Certain	1.7	-5.66	2.99675	Yes	4.0	7.36013590033975	1.334	174.189	n/a	GetAnswer	Mixed
174.205	4.0	0.016	1283.585	65.0	3	-2.0	-2.0	23.286	955.0	1.0	Certain	1.7	-5.66	2.99675	Yes	n/a	7.36013590033975	n/a	n/a	n/a	ShowChoice	Mixed
178.22	1.0	0.015	1287.6	65.0	3	-2.0	-2.0	23.286	955.0	1.0	Certain	1.7	-5.66	2.99675	Yes	n/a	7.36013590033975	n/a	n/a	n/a	ShowResult	Mixed
179.237	3.344	0.017	1288.617	65.0	3	-2.0	-2.0	23.286	955.0	1.0	Certain	1.7	-5.66	2.99675	Yes	n/a	7.36013590033975	n/a	n/a	n/a	ISITrial	Mixed
182.602	2.997	0.021	1291.982	65.0	3	-2.0	-2.0	23.286	955.0	1.0	Certain	1.7	-5.66	2.99675	Yes	n/a	7.36013590033975	n/a	n/a	n/a	TrialHappPreview	Mixed
185.618	4.015	0.019	1294.998	65.0	3	-2.0	-2.0	23.286	955.0	1.0	Certain	1.7	-5.66	2.99675	Yes	n/a	7.36013590033975	n/a	n/a	656.0	TrialHappiness	Mixed
185.618	2.726	n/a	1295.612	65.0	3	-2.0	-2.0	23.286	955.0	1.0	Certain	1.7	-5.66	2.99675	Yes	n/a	7.36013590033975	n/a	n/a	656.0	TrialHappinessSliderResponse	Mixed
189.633	3.987	4.015	1299.013	65.0	3	-2.0	-2.0	23.286	955.0	1.0	Certain	1.7	-5.66	2.99675	Yes	n/a	7.36013590033975	n/a	n/a	n/a	ISIRate	Mixed
193.648	3.0	0.028	1303.028	66.0	3	-4.0	-4.0	22.786	955.0	0.82	Certain	-8.96	-0.5	0.0	No	4.0	8.45979614949037	1.067	194.715	n/a	GetAnswer	Mixed
194.731	4.0	0.016	1304.111	66.0	3	-4.0	-4.0	22.786	955.0	0.82	Certain	-8.96	-0.5	0.0	No	n/a	8.45979614949037	n/a	n/a	n/a	ShowChoice	Mixed
198.746	1.0	0.015	1308.126	66.0	3	-4.0	-4.0	22.786	955.0	0.82	Certain	-8.96	-0.5	0.0	No	n/a	8.45979614949037	n/a	n/a	n/a	ShowResult	Mixed
199.763	3.959	0.017	1309.143	66.0	3	-4.0	-4.0	22.786	955.0	0.82	Certain	-8.96	-0.5	0.0	No	n/a	8.45979614949037	n/a	n/a	n/a	ISITrial	Mixed
203.745	3.0	0.023	1313.125	67.0	3	-5.0	-5.0	22.161	955.0	0.66	Certain	-9.5	-0.7	2.9185	Yes	4.0	8.79841449603624	1.026	204.771	n/a	GetAnswer	Mixed
204.794	4.0	0.023	1314.174	67.0	3	-5.0	-5.0	22.161	955.0	0.66	Certain	-9.5	-0.7	2.9185	Yes	n/a	8.79841449603624	n/a	n/a	n/a	ShowChoice	Mixed
208.809	1.0	0.015	1318.189	67.0	3	-5.0	-5.0	22.161	955.0	0.66	Certain	-9.5	-0.7	2.9185	Yes	n/a	8.79841449603624	n/a	n/a	n/a	ShowResult	Mixed
209.826	4.199	0.017	1319.206	67.0	3	-5.0	-5.0	22.161	955.0	0.66	Certain	-9.5	-0.7	2.9185	Yes	n/a	8.79841449603624	n/a	n/a	n/a	ISITrial	Mixed
214.041	2.918	0.016	1323.421	67.0	3	-5.0	-5.0	22.161	955.0	0.66	Certain	-9.5	-0.7	2.9185	Yes	n/a	8.79841449603624	n/a	n/a	n/a	TrialHappPreview	Mixed
216.99	4.015	0.031	1326.37	67.0	3	-5.0	-5.0	22.161	955.0	0.66	Certain	-9.5	-0.7	2.9185	Yes	n/a	8.79841449603624	n/a	n/a	692.0	TrialHappiness	Mixed
216.991	0.982	n/a	1326.875	67.0	3	-5.0	-5.0	22.161	955.0	0.66	Certain	-9.5	-0.7	2.9185	Yes	n/a	8.79841449603624	n/a	n/a	692.0	TrialHappinessSliderResponse	Mixed
221.005	3.674	4.015	1330.385	67.0	3	-5.0	-5.0	22.161	955.0	0.66	Certain	-9.5	-0.7	2.9185	Yes	n/a	8.79841449603624	n/a	n/a	n/a	ISIRate	Mixed
224.704	3.0	0.025	1334.084	68.0	3	2.08	2.08	22.421	955.0	1.82	Certain	4.17	12.7	0.0	No	4.0	8.525481313703281	0.963	225.667	n/a	GetAnswer	Loss
225.687	4.0	0.02	1335.067	68.0	3	2.08	2.08	22.421	955.0	1.82	Certain	4.17	12.7	0.0	No	n/a	8.525481313703281	n/a	n/a	n/a	ShowChoice	Loss
229.702	1.0	0.015	1339.082	68.0	3	2.08	2.08	22.421	955.0	1.82	Certain	4.17	12.7	0.0	No	n/a	8.525481313703281	n/a	n/a	n/a	ShowResult	Loss
230.718	2.185	0.016	1340.098	68.0	3	2.08	2.08	22.421	955.0	1.82	Certain	4.17	12.7	0.0	No	n/a	8.525481313703281	n/a	n/a	n/a	ISITrial	Loss
232.934	3.0	0.031	1342.314	69.0	3	5.3	1.0	23.0835	955.0	2.48	Outcome2	-3.52	5.3	0.0	No	2.0	8.8233295583239	1.604	234.538	n/a	GetAnswer	Gain
234.55	4.0	0.012	1343.93	69.0	3	5.3	1.0	23.0835	955.0	2.48	Outcome2	-3.52	5.3	0.0	No	n/a	8.8233295583239	n/a	n/a	n/a	ShowChoice	Gain
238.566	1.0	0.016	1347.946	69.0	3	5.3	1.0	23.0835	955.0	2.48	Outcome2	-3.52	5.3	0.0	No	n/a	8.8233295583239	n/a	n/a	n/a	ShowResult	Gain
239.582	2.0	0.016	1348.962	69.0	3	5.3	1.0	23.0835	955.0	2.48	Outcome2	-3.52	5.3	0.0	No	n/a	8.8233295583239	n/a	n/a	n/a	ISITrial	Gain
241.598	3.0	0.016	1350.978	70.0	3	5.9	1.0	23.821	955.0	3.6	Outcome1	5.9	-3.22	3.65125	Yes	2.0	9.12117780294451	1.7	243.298	n/a	GetAnswer	Gain
243.314	4.0	0.016	1352.694	70.0	3	5.9	1.0	23.821	955.0	3.6	Outcome1	5.9	-3.22	3.65125	Yes	n/a	9.12117780294451	n/a	n/a	n/a	ShowChoice	Gain
247.329	1.0	0.015	1356.709	70.0	3	5.9	1.0	23.821	955.0	3.6	Outcome1	5.9	-3.22	3.65125	Yes	n/a	9.12117780294451	n/a	n/a	n/a	ShowResult	Gain
248.346	2.623	0.017	1357.726	70.0	3	5.9	1.0	23.821	955.0	3.6	Outcome1	5.9	-3.22	3.65125	Yes	n/a	9.12117780294451	n/a	n/a	n/a	ISITrial	Gain
250.995	3.651	0.026	1360.375	70.0	3	5.9	1.0	23.821	955.0	3.6	Outcome1	5.9	-3.22	3.65125	Yes	n/a	9.12117780294451	n/a	n/a	n/a	TrialHappPreview	Gain
254.677	4.015	0.031	1364.057	70.0	3	5.9	1.0	23.821	955.0	3.6	Outcome1	5.9	-3.22	3.65125	Yes	n/a	9.12117780294451	n/a	n/a	672.0	TrialHappiness	Gain
254.677	0.485	n/a	1364.427	70.0	3	5.9	1.0	23.821	955.0	3.6	Outcome1	5.9	-3.22	3.65125	Yes	n/a	9.12117780294451	n/a	n/a	672.0	TrialHappinessSliderResponse	Gain
258.692	6.605	4.015	1368.072	70.0	3	5.9	1.0	23.821	955.0	3.6	Outcome1	5.9	-3.22	3.65125	Yes	n/a	9.12117780294451	n/a	n/a	n/a	ISIRate	Gain
265.323	3.0	0.026	1374.703	71.0	3	9.3	-0.23	24.9835	955.0	2.48	Outcome1	9.3	-0.46	0.0	No	2.0	9.75877689694224	1.57	266.893	n/a	GetAnswer	Gain
266.906	4.0	0.013	1376.286	71.0	3	9.3	-0.23	24.9835	955.0	2.48	Outcome1	9.3	-0.46	0.0	No	n/a	9.75877689694224	n/a	n/a	n/a	ShowChoice	Gain
270.921	1.0	0.015	1380.301	71.0	3	9.3	-0.23	24.9835	955.0	2.48	Outcome1	9.3	-0.46	0.0	No	n/a	9.75877689694224	n/a	n/a	n/a	ShowResult	Gain
271.937	5.499	0.016	1381.317	71.0	3	9.3	-0.23	24.9835	955.0	2.48	Outcome1	9.3	-0.46	0.0	No	n/a	9.75877689694224	n/a	n/a	n/a	ISITrial	Gain
277.469	3.0	0.033	1386.849	72.0	3	4.7	0.0	25.571	955.0	1.82	Outcome2	-5.38	4.7	3.0805	Yes	2.0	10.079275198188	1.612	279.081	n/a	GetAnswer	Gain
279.101	4.0	0.02	1388.481	72.0	3	4.7	0.0	25.571	955.0	1.82	Outcome2	-5.38	4.7	3.0805	Yes	n/a	10.079275198188	n/a	n/a	n/a	ShowChoice	Gain
283.117	1.0	0.016	1392.497	72.0	3	4.7	0.0	25.571	955.0	1.82	Outcome2	-5.38	4.7	3.0805	Yes	n/a	10.079275198188	n/a	n/a	n/a	ShowResult	Gain
284.133	5.672	0.016	1393.513	72.0	3	4.7	0.0	25.571	955.0	1.82	Outcome2	-5.38	4.7	3.0805	Yes	n/a	10.079275198188	n/a	n/a	n/a	ISITrial	Gain
289.831	3.08	0.026	1399.211	72.0	3	4.7	0.0	25.571	955.0	1.82	Outcome2	-5.38	4.7	3.0805	Yes	n/a	10.079275198188	n/a	n/a	n/a	TrialHappPreview	Gain
292.93	4.015	0.019	1402.31	72.0	3	4.7	0.0	25.571	955.0	1.82	Outcome2	-5.38	4.7	3.0805	Yes	n/a	10.079275198188	n/a	n/a	656.0	TrialHappiness	Gain
292.93	0.448	n/a	1402.968	72.0	3	4.7	0.0	25.571	955.0	1.82	Outcome2	-5.38	4.7	3.0805	Yes	n/a	10.079275198188	n/a	n/a	656.0	TrialHappinessSliderResponse	Gain
296.945	4.322	4.015	1406.325	72.0	3	4.7	0.0	25.571	955.0	1.82	Outcome2	-5.38	4.7	3.0805	Yes	n/a	10.079275198188	n/a	n/a	n/a	ISIRate	Gain
301.294	3.0	0.027	1410.674	73.0	3	4.62	2.31	26.1485	955.0	5.0	Outcome1	4.62	6.3	0.0	No	2.0	-1.6794073235183102	1.185	302.479	n/a	GetAnswer	Gain
302.493	4.0	0.014	1411.873	73.0	3	4.62	2.31	26.1485	955.0	5.0	Outcome1	4.62	6.3	0.0	No	n/a	-1.6794073235183102	n/a	n/a	n/a	ShowChoice	Gain
306.508	1.0	0.015	1415.888	73.0	3	4.62	2.31	26.1485	955.0	5.0	Outcome1	4.62	6.3	0.0	No	n/a	-1.6794073235183102	n/a	n/a	n/a	ShowResult	Gain
307.525	4.616	0.017	1416.905	73.0	3	4.62	2.31	26.1485	955.0	5.0	Outcome1	4.62	6.3	0.0	No	n/a	-1.6794073235183102	n/a	n/a	n/a	ISITrial	Gain
312.173	3.0	0.032	1421.553	74.0	3	-1.0	-1.0	26.0235	955.0	1.2	Certain	-7.11	3.9	3.05625	Yes	4.0	11.0101925254813	1.165	313.338	n/a	GetAnswer	Mixed
313.356	4.0	0.018	1422.736	74.0	3	-1.0	-1.0	26.0235	955.0	1.2	Certain	-7.11	3.9	3.05625	Yes	n/a	11.0101925254813	n/a	n/a	n/a	ShowChoice	Mixed
317.371	1.0	0.015	1426.751	74.0	3	-1.0	-1.0	26.0235	955.0	1.2	Certain	-7.11	3.9	3.05625	Yes	n/a	11.0101925254813	n/a	n/a	n/a	ShowResult	Mixed
318.388	3.909	0.017	1427.768	74.0	3	-1.0	-1.0	26.0235	955.0	1.2	Certain	-7.11	3.9	3.05625	Yes	n/a	11.0101925254813	n/a	n/a	n/a	ISITrial	Mixed
322.319	3.056	0.022	1431.699	74.0	3	-1.0	-1.0	26.0235	955.0	1.2	Certain	-7.11	3.9	3.05625	Yes	n/a	11.0101925254813	n/a	n/a	n/a	TrialHappPreview	Mixed
325.402	4.015	0.027	1434.782	74.0	3	-1.0	-1.0	26.0235	955.0	1.2	Certain	-7.11	3.9	3.05625	Yes	n/a	11.0101925254813	n/a	n/a	696.0	TrialHappiness	Mixed
325.402	1.107	n/a	1435.248	74.0	3	-1.0	-1.0	26.0235	955.0	1.2	Certain	-7.11	3.9	3.05625	Yes	n/a	11.0101925254813	n/a	n/a	696.0	TrialHappinessSliderResponse	Mixed
329.417	4.225	4.015	1438.797	74.0	3	-1.0	-1.0	26.0235	955.0	1.2	Certain	-7.11	3.9	3.05625	Yes	n/a	11.0101925254813	n/a	n/a	n/a	ISIRate	Mixed
333.665	3.0	0.023	1443.045	75.0	3	-5.0	-5.0	25.3985	955.0	1.5	Certain	-10.57	0.1	0.0	No	4.0	10.6693091732729	1.157	334.822	n/a	GetAnswer	Mixed
334.848	4.0	0.026	1444.228	75.0	3	-5.0	-5.0	25.3985	955.0	1.5	Certain	-10.57	0.1	0.0	No	n/a	10.6693091732729	n/a	n/a	n/a	ShowChoice	Mixed
338.864	1.0	0.016	1448.244	75.0	3	-5.0	-5.0	25.3985	955.0	1.5	Certain	-10.57	0.1	0.0	No	n/a	10.6693091732729	n/a	n/a	n/a	ShowResult	Mixed
339.88	4.979	0.016	1449.26	75.0	3	-5.0	-5.0	25.3985	955.0	1.5	Certain	-10.57	0.1	0.0	No	n/a	10.6693091732729	n/a	n/a	n/a	ISITrial	Mixed
344.878	3.0	0.019	1454.258	76.0	3	5.9	2.95	26.136	955.0	2.8	Outcome1	5.9	7.5	0.0	No	2.0	-1.59796149490374	1.05	345.928	n/a	GetAnswer	Gain
345.944	4.0	0.016	1455.324	76.0	3	5.9	2.95	26.136	955.0	2.8	Outcome1	5.9	7.5	0.0	No	n/a	-1.59796149490374	n/a	n/a	n/a	ShowChoice	Gain
349.96	1.0	0.016	1459.34	76.0	3	5.9	2.95	26.136	955.0	2.8	Outcome1	5.9	7.5	0.0	No	n/a	-1.59796149490374	n/a	n/a	n/a	ShowResult	Gain
350.976	3.931	0.016	1460.356	76.0	3	5.9	2.95	26.136	955.0	2.8	Outcome1	5.9	7.5	0.0	No	n/a	-1.59796149490374	n/a	n/a	n/a	ISITrial	Gain
354.925	3.0	0.018	1464.305	77.0	3	1.0	1.0	26.261	955.0	1.82	Certain	-4.56	6.7	4.0	Yes	4.0	11.255945639864098	1.016	355.941	n/a	GetAnswer	Gain
355.958	4.0	0.017	1465.338	77.0	3	1.0	1.0	26.261	955.0	1.82	Certain	-4.56	6.7	4.0	Yes	n/a	11.255945639864098	n/a	n/a	n/a	ShowChoice	Gain
359.973	1.0	0.015	1469.353	77.0	3	1.0	1.0	26.261	955.0	1.82	Certain	-4.56	6.7	4.0	Yes	n/a	11.255945639864098	n/a	n/a	n/a	ShowResult	Gain
360.989	7.022	0.016	1470.369	77.0	3	1.0	1.0	26.261	955.0	1.82	Certain	-4.56	6.7	4.0	Yes	n/a	11.255945639864098	n/a	n/a	n/a	ISITrial	Gain
368.037	4.0	0.026	1477.417	77.0	3	1.0	1.0	26.261	955.0	1.82	Certain	-4.56	6.7	4.0	Yes	n/a	11.255945639864098	n/a	n/a	n/a	TrialHappPreview	Gain
372.069	4.015	0.032	1481.449	77.0	3	1.0	1.0	26.261	955.0	1.82	Certain	-4.56	6.7	4.0	Yes	n/a	11.255945639864098	n/a	n/a	716.0	TrialHappiness	Gain
372.069	2.046	n/a	1481.849	77.0	3	1.0	1.0	26.261	955.0	1.82	Certain	-4.56	6.7	4.0	Yes	n/a	11.255945639864098	n/a	n/a	716.0	TrialHappinessSliderResponse	Gain
376.084	8.0	4.015	1485.464	77.0	3	1.0	1.0	26.261	955.0	1.82	Certain	-4.56	6.7	4.0	Yes	n/a	11.255945639864098	n/a	n/a	n/a	ISIRate	Gain
384.114	3.0	0.03	1493.494	78.0	3	-0.26	-0.26	26.2285	955.0	1.82	Certain	-0.51	10.7	0.0	No	4.0	11.209513023782598	1.237	385.351	n/a	GetAnswer	Loss
385.364	4.0	0.012	1494.744	78.0	3	-0.26	-0.26	26.2285	955.0	1.82	Certain	-0.51	10.7	0.0	No	n/a	11.209513023782598	n/a	n/a	n/a	ShowChoice	Loss
389.379	1.0	0.015	1498.759	78.0	3	-0.26	-0.26	26.2285	955.0	1.82	Certain	-0.51	10.7	0.0	No	n/a	11.209513023782598	n/a	n/a	n/a	ShowResult	Loss
390.395	2.078	0.016	1499.775	78.0	3	-0.26	-0.26	26.2285	955.0	1.82	Certain	-0.51	10.7	0.0	No	n/a	11.209513023782598	n/a	n/a	n/a	ISITrial	Loss
392.495	3.0	0.022	1501.875	79.0	3	6.5	1.0	27.041	955.0	1.68	Outcome1	6.5	-4.98	2.7295	Yes	2.0	11.480181200453	1.608	394.103	n/a	GetAnswer	Gain
394.128	4.0	0.025	1503.508	79.0	3	6.5	1.0	27.041	955.0	1.68	Outcome1	6.5	-4.98	2.7295	Yes	n/a	11.480181200453	n/a	n/a	n/a	ShowChoice	Gain
398.143	1.0	0.015	1507.523	79.0	3	6.5	1.0	27.041	955.0	1.68	Outcome1	6.5	-4.98	2.7295	Yes	n/a	11.480181200453	n/a	n/a	n/a	ShowResult	Gain
399.159	3.829	0.016	1508.539	79.0	3	6.5	1.0	27.041	955.0	1.68	Outcome1	6.5	-4.98	2.7295	Yes	n/a	11.480181200453	n/a	n/a	n/a	ISITrial	Gain
403.008	2.73	0.02	1512.388	79.0	3	6.5	1.0	27.041	955.0	1.68	Outcome1	6.5	-4.98	2.7295	Yes	n/a	11.480181200453	n/a	n/a	n/a	TrialHappPreview	Gain
405.757	4.015	0.019	1515.137	79.0	3	6.5	1.0	27.041	955.0	1.68	Outcome1	6.5	-4.98	2.7295	Yes	n/a	11.480181200453	n/a	n/a	672.0	TrialHappiness	Gain
405.757	0.485	n/a	1515.591	79.0	3	6.5	1.0	27.041	955.0	1.68	Outcome1	6.5	-4.98	2.7295	Yes	n/a	11.480181200453	n/a	n/a	672.0	TrialHappinessSliderResponse	Gain
409.772	2.918	4.015	1519.152	79.0	3	6.5	1.0	27.041	955.0	1.68	Outcome1	6.5	-4.98	2.7295	Yes	n/a	11.480181200453	n/a	n/a	n/a	ISIRate	Gain
412.721	3.0	0.031	1522.101	80.0	3	-6.0	-6.0	26.291	955.0	2.0	Certain	0.3	-12.2	0.0	No	4.0	12.4983012457531	1.412	414.133	n/a	GetAnswer	Mixed
414.154	4.0	0.021	1523.534	80.0	3	-6.0	-6.0	26.291	955.0	2.0	Certain	0.3	-12.2	0.0	No	n/a	12.4983012457531	n/a	n/a	n/a	ShowChoice	Mixed
418.169	1.0	0.015	1527.549	80.0	3	-6.0	-6.0	26.291	955.0	2.0	Certain	0.3	-12.2	0.0	No	n/a	12.4983012457531	n/a	n/a	n/a	ShowResult	Mixed
419.185	3.336	0.016	1528.565	80.0	3	-6.0	-6.0	26.291	955.0	2.0	Certain	0.3	-12.2	0.0	No	n/a	12.4983012457531	n/a	n/a	n/a	ISITrial	Mixed
422.551	3.0	0.03	1531.931	81.0	3	11.5	-0.66	27.7285	955.0	2.8	Outcome1	11.5	-1.32	3.92375	Yes	2.0	12.818799546998902	1.482	424.033	n/a	GetAnswer	Loss
424.05	4.0	0.017	1533.43	81.0	3	11.5	-0.66	27.7285	955.0	2.8	Outcome1	11.5	-1.32	3.92375	Yes	n/a	12.818799546998902	n/a	n/a	n/a	ShowChoice	Loss
428.066	1.0	0.016	1537.446	81.0	3	11.5	-0.66	27.7285	955.0	2.8	Outcome1	11.5	-1.32	3.92375	Yes	n/a	12.818799546998902	n/a	n/a	n/a	ShowResult	Loss
429.082	3.919	0.016	1538.462	81.0	3	11.5	-0.66	27.7285	955.0	2.8	Outcome1	11.5	-1.32	3.92375	Yes	n/a	12.818799546998902	n/a	n/a	n/a	ISITrial	Loss
433.014	3.924	0.013	1542.394	81.0	3	11.5	-0.66	27.7285	955.0	2.8	Outcome1	11.5	-1.32	3.92375	Yes	n/a	12.818799546998902	n/a	n/a	n/a	TrialHappPreview	Loss
436.962	4.016	0.024	1546.342	81.0	3	11.5	-0.66	27.7285	955.0	2.8	Outcome1	11.5	-1.32	3.92375	Yes	2{-2}2{-2}2{-2}	12.818799546998902	2.416	439.378	660.0	TrialHappiness	Loss
436.963	1.746	n/a	1547.013	81.0	3	11.5	-0.66	27.7285	955.0	2.8	Outcome1	11.5	-1.32	3.92375	Yes	n/a	12.818799546998902	n/a	n/a	660.0	TrialHappinessSliderResponse	Loss
440.978	7.695	4.016	1550.358	81.0	3	11.5	-0.66	27.7285	955.0	2.8	Outcome1	11.5	-1.32	3.92375	Yes	n/a	12.818799546998902	n/a	n/a	n/a	ISIRate	Loss
448.692	3.0	0.019	1558.072	n/a	3	n/a	n/a	n/a	n/a	n/a	n/a	n/a	n/a	n/a	n/a	n/a	n/a	n/a	n/a	n/a	CurrentEarnings	n/a
451.707	-0.001	0.015	1561.087	n/a	3	n/a	n/a	n/a	n/a	n/a	n/a	n/a	n/a	n/a	n/a	{SPACE}	n/a	10.545	462.252	n/a	Goodbye	n/a
