onset	duration	onset_delay	onset_unadjusted	trial_number	block	amount_change	certain_amount	current_amount	mood_target	multiplier	outcome	outcome1_amount	outcome2_amount	question_duration	rating	response	rpe	rt	rt_time	slider_response	trial_phase	trial_type
-71.514	-0.001	0.021	35.235	n/a	0	n/a	n/a	n/a	n/a	n/a	n/a	n/a	n/a	n/a	n/a	{SPACE}	n/a	2.656	-68.858	n/a	Welcome	n/a
-68.839	5.0	0.019	37.91	n/a	0	n/a	n/a	n/a	n/a	n/a	n/a	n/a	n/a	n/a	n/a	n/a	n/a	n/a	n/a	n/a	LifeHappyPreview	n/a
-63.807	3.006	0.032	42.942	n/a	0	n/a	n/a	n/a	n/a	n/a	n/a	n/a	n/a	n/a	n/a	n/a	n/a	n/a	n/a	720.0	LifeHappiness	n/a
-63.807	2.438	n/a	43.51	n/a	0	n/a	n/a	n/a	n/a	n/a	n/a	n/a	n/a	n/a	n/a	n/a	n/a	n/a	n/a	720.0	LifeHappinessSliderResponse	n/a
-50.601	4.0	0.018	56.148	n/a	0	n/a	n/a	n/a	n/a	n/a	n/a	n/a	n/a	n/a	n/a	n/a	n/a	n/a	n/a	n/a	BlockHappyPreview	n/a
-46.589	0.82	0.012	60.16	n/a	0	n/a	n/a	n/a	n/a	n/a	n/a	n/a	n/a	n/a	n/a	n/a	n/a	n/a	n/a	512.0	BlockStartHappiness	n/a
-46.588	0.0	n/a	60.981	n/a	0	n/a	n/a	n/a	n/a	n/a	n/a	n/a	n/a	n/a	n/a	n/a	n/a	n/a	n/a	512.0	BlockStartHappinessSliderResponse	n/a
-13.39	-0.001	0.013	93.359	n/a	0	n/a	n/a	n/a	n/a	n/a	n/a	n/a	n/a	n/a	n/a	5.0	n/a	13.367	-0.023	n/a	ScanWait	n/a
0.0	10.0	0.023	106.749	n/a	1	n/a	n/a	n/a	n/a	n/a	n/a	n/a	n/a	n/a	n/a	n/a	n/a	n/a	n/a	n/a	GetReady	n/a
10.03	3.0	0.03	116.779	1.0	1	3.5	0.0	10.4375	955.0	0.82	Outcome1	3.5	-4.03	0.0	No	2.0	7.52548131370328	1.41	11.44	n/a	GetAnswer	Mixed
11.468	4.0	0.028	118.217	1.0	1	3.5	0.0	10.4375	955.0	0.82	Outcome1	3.5	-4.03	0.0	No	n/a	7.52548131370328	n/a	n/a	n/a	ShowChoice	Mixed
15.48	1.0	0.012	122.229	1.0	1	3.5	0.0	10.4375	955.0	0.82	Outcome1	3.5	-4.03	0.0	No	n/a	7.52548131370328	n/a	n/a	n/a	ShowResult	Mixed
16.5	2.431	0.02	123.249	1.0	1	3.5	0.0	10.4375	955.0	0.82	Outcome1	3.5	-4.03	0.0	No	n/a	7.52548131370328	n/a	n/a	n/a	ISITrial	Mixed
18.957	3.0	0.026	125.706	2.0	1	1.3	-2.0	10.6	955.0	0.66	Outcome2	-6.73	1.3	0.0	No	2.0	8.02718006795017	2.657	21.614	n/a	GetAnswer	Mixed
21.632	4.0	0.018	128.381	2.0	1	1.3	-2.0	10.6	955.0	0.66	Outcome2	-6.73	1.3	0.0	No	n/a	8.02718006795017	n/a	n/a	n/a	ShowChoice	Mixed
25.66	1.0	0.028	132.409	2.0	1	1.3	-2.0	10.6	955.0	0.66	Outcome2	-6.73	1.3	0.0	No	n/a	8.02718006795017	n/a	n/a	n/a	ShowResult	Mixed
26.68	4.568	0.02	133.429	2.0	1	1.3	-2.0	10.6	955.0	0.66	Outcome2	-6.73	1.3	0.0	No	n/a	8.02718006795017	n/a	n/a	n/a	ISITrial	Mixed
31.277	3.0	0.029	138.026	3.0	1	-2.0	-2.0	10.35	955.0	0.3	Certain	-1.3	-3.18	2.868	Yes	4.0	-1.88137032842582	2.394	33.671	n/a	GetAnswer	Mixed
33.701	4.0	0.03	140.45	3.0	1	-2.0	-2.0	10.35	955.0	0.3	Certain	-1.3	-3.18	2.868	Yes	n/a	-1.88137032842582	n/a	n/a	n/a	ShowChoice	Mixed
37.713	1.0	0.012	144.462	3.0	1	-2.0	-2.0	10.35	955.0	0.3	Certain	-1.3	-3.18	2.868	Yes	n/a	-1.88137032842582	n/a	n/a	n/a	ShowResult	Mixed
38.733	3.243	0.02	145.482	3.0	1	-2.0	-2.0	10.35	955.0	0.3	Certain	-1.3	-3.18	2.868	Yes	n/a	-1.88137032842582	n/a	n/a	n/a	ISITrial	Mixed
41.992	2.868	0.016	148.741	3.0	1	-2.0	-2.0	10.35	955.0	0.3	Certain	-1.3	-3.18	2.868	Yes	n/a	-1.88137032842582	n/a	n/a	n/a	TrialHappPreview	Mixed
44.884	4.029	0.024	151.633	3.0	1	-2.0	-2.0	10.35	955.0	0.3	Certain	-1.3	-3.18	2.868	Yes	n/a	-1.88137032842582	n/a	n/a	544.0	TrialHappiness	Mixed
44.885	0.215	n/a	153.25	3.0	1	-2.0	-2.0	10.35	955.0	0.3	Certain	-1.3	-3.18	2.868	Yes	n/a	-1.88137032842582	n/a	n/a	544.0	TrialHappinessSliderResponse	Mixed
48.913	3.472	4.029	155.662	3.0	1	-2.0	-2.0	10.35	955.0	0.3	Certain	-1.3	-3.18	2.868	Yes	n/a	-1.88137032842582	n/a	n/a	n/a	ISIRate	Mixed
52.407	3.0	0.022	159.156	4.0	1	2.1	-2.0	10.6125	955.0	1.5	Outcome2	-6.39	2.1	0.0	No	2.0	8.486976217440539	1.936	54.343	n/a	GetAnswer	Mixed
54.363	4.0	0.02	161.112	4.0	1	2.1	-2.0	10.6125	955.0	1.5	Outcome2	-6.39	2.1	0.0	No	n/a	8.486976217440539	n/a	n/a	n/a	ShowChoice	Mixed
58.375	1.0	0.012	165.124	4.0	1	2.1	-2.0	10.6125	955.0	1.5	Outcome2	-6.39	2.1	0.0	No	n/a	8.486976217440539	n/a	n/a	n/a	ShowResult	Mixed
59.395	2.011	0.02	166.144	4.0	1	2.1	-2.0	10.6125	955.0	1.5	Outcome2	-6.39	2.1	0.0	No	n/a	8.486976217440539	n/a	n/a	n/a	ISITrial	Mixed
61.434	3.0	0.028	168.183	5.0	1	9.9	0.48	11.85	955.0	3.6	Outcome1	9.9	0.95	2.5825	Yes	2.0	8.9524348810872	2.01	63.444	n/a	GetAnswer	Gain
63.473	4.0	0.029	170.222	5.0	1	9.9	0.48	11.85	955.0	3.6	Outcome1	9.9	0.95	2.5825	Yes	n/a	8.9524348810872	n/a	n/a	n/a	ShowChoice	Gain
67.485	1.0	0.012	174.234	5.0	1	9.9	0.48	11.85	955.0	3.6	Outcome1	9.9	0.95	2.5825	Yes	n/a	8.9524348810872	n/a	n/a	n/a	ShowResult	Gain
68.505	5.129	0.02	175.254	5.0	1	9.9	0.48	11.85	955.0	3.6	Outcome1	9.9	0.95	2.5825	Yes	n/a	8.9524348810872	n/a	n/a	n/a	ISITrial	Gain
73.654	2.582	0.02	180.403	5.0	1	9.9	0.48	11.85	955.0	3.6	Outcome1	9.9	0.95	2.5825	Yes	n/a	8.9524348810872	n/a	n/a	n/a	TrialHappPreview	Gain
76.262	4.028	0.026	183.011	5.0	1	9.9	0.48	11.85	955.0	3.6	Outcome1	9.9	0.95	2.5825	Yes	n/a	8.9524348810872	n/a	n/a	584.0	TrialHappiness	Gain
76.262	0.306	n/a	185.069	5.0	1	9.9	0.48	11.85	955.0	3.6	Outcome1	9.9	0.95	2.5825	Yes	n/a	8.9524348810872	n/a	n/a	584.0	TrialHappinessSliderResponse	Gain
80.29	2.33	4.028	187.039	5.0	1	9.9	0.48	11.85	955.0	3.6	Outcome1	9.9	0.95	2.5825	Yes	n/a	8.9524348810872	n/a	n/a	n/a	ISIRate	Gain
82.647	3.0	0.027	189.396	6.0	1	12.9	2.08	13.4625	955.0	2.0	Outcome2	4.16	12.9	0.0	No	2.0	8.73839184597962	1.356	84.003	n/a	GetAnswer	Loss
84.018	4.0	0.015	190.767	6.0	1	12.9	2.08	13.4625	955.0	2.0	Outcome2	4.16	12.9	0.0	No	n/a	8.73839184597962	n/a	n/a	n/a	ShowChoice	Loss
88.047	1.0	0.029	194.796	6.0	1	12.9	2.08	13.4625	955.0	2.0	Outcome2	4.16	12.9	0.0	No	n/a	8.73839184597962	n/a	n/a	n/a	ShowResult	Loss
89.067	6.232	0.02	195.816	6.0	1	12.9	2.08	13.4625	955.0	2.0	Outcome2	4.16	12.9	0.0	No	n/a	8.73839184597962	n/a	n/a	n/a	ISITrial	Loss
95.319	3.0	0.02	202.068	7.0	1	10.3	0.57	14.75	955.0	5.0	Outcome1	10.3	1.14	0.0	No	2.0	9.15855039637599	1.382	96.701	n/a	GetAnswer	Gain
96.723	4.0	0.022	203.472	7.0	1	10.3	0.57	14.75	955.0	5.0	Outcome1	10.3	1.14	0.0	No	n/a	9.15855039637599	n/a	n/a	n/a	ShowChoice	Gain
100.735	1.0	0.012	207.484	7.0	1	10.3	0.57	14.75	955.0	5.0	Outcome1	10.3	1.14	0.0	No	n/a	9.15855039637599	n/a	n/a	n/a	ShowResult	Gain
101.755	2.305	0.02	208.504	7.0	1	10.3	0.57	14.75	955.0	5.0	Outcome1	10.3	1.14	0.0	No	n/a	9.15855039637599	n/a	n/a	n/a	ISITrial	Gain
104.078	3.0	0.018	210.827	8.0	1	9.5	-0.04	15.9375	955.0	2.8	Outcome2	-0.08	9.5	3.1125	Yes	2.0	9.57870894677237	2.526	106.604	n/a	GetAnswer	Gain
106.619	4.0	0.015	213.368	8.0	1	9.5	-0.04	15.9375	955.0	2.8	Outcome2	-0.08	9.5	3.1125	Yes	n/a	9.57870894677237	n/a	n/a	n/a	ShowChoice	Gain
110.631	1.0	0.012	217.38	8.0	1	9.5	-0.04	15.9375	955.0	2.8	Outcome2	-0.08	9.5	3.1125	Yes	n/a	9.57870894677237	n/a	n/a	n/a	ShowResult	Gain
111.651	3.506	0.02	218.4	8.0	1	9.5	-0.04	15.9375	955.0	2.8	Outcome2	-0.08	9.5	3.1125	Yes	n/a	9.57870894677237	n/a	n/a	n/a	ISITrial	Gain
115.178	3.112	0.021	221.927	8.0	1	9.5	-0.04	15.9375	955.0	2.8	Outcome2	-0.08	9.5	3.1125	Yes	n/a	9.57870894677237	n/a	n/a	n/a	TrialHappPreview	Gain
118.321	4.028	0.031	225.07	8.0	1	9.5	-0.04	15.9375	955.0	2.8	Outcome2	-0.08	9.5	3.1125	Yes	n/a	9.57870894677237	n/a	n/a	472.0	TrialHappiness	Gain
118.321	0.237	n/a	227.531	8.0	1	9.5	-0.04	15.9375	955.0	2.8	Outcome2	-0.08	9.5	3.1125	Yes	n/a	9.57870894677237	n/a	n/a	472.0	TrialHappinessSliderResponse	Gain
122.349	4.45	4.028	229.098	8.0	1	9.5	-0.04	15.9375	955.0	2.8	Outcome2	-0.08	9.5	3.1125	Yes	n/a	9.57870894677237	n/a	n/a	n/a	ISIRate	Gain
126.829	3.0	0.03	233.578	9.0	1	-6.0	-6.0	15.1875	955.0	1.2	Certain	-0.1	-12.0	0.0	No	4.0	11.901472253680598	2.202	129.031	n/a	GetAnswer	Mixed
129.053	4.0	0.022	235.802	9.0	1	-6.0	-6.0	15.1875	955.0	1.2	Certain	-0.1	-12.0	0.0	No	n/a	11.901472253680598	n/a	n/a	n/a	ShowChoice	Mixed
133.065	1.0	0.012	239.814	9.0	1	-6.0	-6.0	15.1875	955.0	1.2	Certain	-0.1	-12.0	0.0	No	n/a	11.901472253680598	n/a	n/a	n/a	ShowResult	Mixed
134.084	2.0	0.019	240.833	9.0	1	-6.0	-6.0	15.1875	955.0	1.2	Certain	-0.1	-12.0	0.0	No	n/a	11.901472253680598	n/a	n/a	n/a	ISITrial	Mixed
136.107	3.0	0.023	242.856	10.0	1	8.99	4.5	16.3113	955.0	2.48	Outcome2	11.3	8.99	4.0	Yes	2.0	-2.31370328425821	0.995	137.102	n/a	GetAnswer	Loss
137.127	4.0	0.025	243.876	10.0	1	8.99	4.5	16.3113	955.0	2.48	Outcome2	11.3	8.99	4.0	Yes	n/a	-2.31370328425821	n/a	n/a	n/a	ShowChoice	Loss
141.139	1.0	0.012	247.888	10.0	1	8.99	4.5	16.3113	955.0	2.48	Outcome2	11.3	8.99	4.0	Yes	n/a	-2.31370328425821	n/a	n/a	n/a	ShowResult	Loss
142.159	2.0	0.02	248.908	10.0	1	8.99	4.5	16.3113	955.0	2.48	Outcome2	11.3	8.99	4.0	Yes	n/a	-2.31370328425821	n/a	n/a	n/a	ISITrial	Loss
144.181	4.0	0.022	250.93	10.0	1	8.99	4.5	16.3113	955.0	2.48	Outcome2	11.3	8.99	4.0	Yes	n/a	-2.31370328425821	n/a	n/a	n/a	TrialHappPreview	Loss
148.21	4.029	0.029	254.959	10.0	1	8.99	4.5	16.3113	955.0	2.48	Outcome2	11.3	8.99	4.0	Yes	n/a	-2.31370328425821	n/a	n/a	528.0	TrialHappiness	Loss
148.211	0.699	n/a	255.706	10.0	1	8.99	4.5	16.3113	955.0	2.48	Outcome2	11.3	8.99	4.0	Yes	n/a	-2.31370328425821	n/a	n/a	528.0	TrialHappinessSliderResponse	Loss
152.239	8.0	4.029	258.988	10.0	1	8.99	4.5	16.3113	955.0	2.48	Outcome2	11.3	8.99	4.0	Yes	n/a	-2.31370328425821	n/a	n/a	n/a	ISIRate	Loss
160.263	3.0	0.024	267.012	11.0	1	9.77	4.88	17.5326	955.0	3.6	Outcome2	11.9	9.77	0.0	No	2.0	-2.13203095507739	1.175	161.438	n/a	GetAnswer	Loss
161.466	4.0	0.028	268.215	11.0	1	9.77	4.88	17.5326	955.0	3.6	Outcome2	11.9	9.77	0.0	No	n/a	-2.13203095507739	n/a	n/a	n/a	ShowChoice	Loss
165.478	1.0	0.012	272.227	11.0	1	9.77	4.88	17.5326	955.0	3.6	Outcome2	11.9	9.77	0.0	No	n/a	-2.13203095507739	n/a	n/a	n/a	ShowResult	Loss
166.498	3.324	0.02	273.247	11.0	1	9.77	4.88	17.5326	955.0	3.6	Outcome2	11.9	9.77	0.0	No	n/a	-2.13203095507739	n/a	n/a	n/a	ISITrial	Loss
169.841	3.0	0.019	276.59	12.0	1	3.93	1.96	18.0238	955.0	4.2	Outcome2	6.1	3.93	2.61875	Yes	2.0	-2.17232918082295	1.176	171.017	n/a	GetAnswer	Gain
171.045	4.0	0.028	277.794	12.0	1	3.93	1.96	18.0238	955.0	4.2	Outcome2	6.1	3.93	2.61875	Yes	n/a	-2.17232918082295	n/a	n/a	n/a	ShowChoice	Gain
175.057	1.0	0.012	281.806	12.0	1	3.93	1.96	18.0238	955.0	4.2	Outcome2	6.1	3.93	2.61875	Yes	n/a	-2.17232918082295	n/a	n/a	n/a	ShowResult	Gain
176.077	6.642	0.02	282.826	12.0	1	3.93	1.96	18.0238	955.0	4.2	Outcome2	6.1	3.93	2.61875	Yes	n/a	-2.17232918082295	n/a	n/a	n/a	ISITrial	Gain
182.747	2.619	0.028	289.496	12.0	1	3.93	1.96	18.0238	955.0	4.2	Outcome2	6.1	3.93	2.61875	Yes	n/a	-2.17232918082295	n/a	n/a	n/a	TrialHappPreview	Gain
185.388	4.029	0.022	292.137	12.0	1	3.93	1.96	18.0238	955.0	4.2	Outcome2	6.1	3.93	2.61875	Yes	n/a	-2.17232918082295	n/a	n/a	512.0	TrialHappiness	Gain
185.388	0.0	n/a	292.137	12.0	1	3.93	1.96	18.0238	955.0	4.2	Outcome2	6.1	3.93	2.61875	Yes	n/a	-2.17232918082295	n/a	n/a	512.0	TrialHappinessSliderResponse	Gain
189.417	2.475	4.029	296.166	12.0	1	3.93	1.96	18.0238	955.0	4.2	Outcome2	6.1	3.93	2.61875	Yes	n/a	-2.17232918082295	n/a	n/a	n/a	ISIRate	Gain
191.924	3.0	0.032	298.673	13.0	1	-0.3	-7.0	17.9863	955.0	1.0	Outcome1	-0.3	-13.58	0.0	No	2.0	13.2831257078143	2.159	194.083	n/a	GetAnswer	Mixed
194.097	4.0	0.014	300.846	13.0	1	-0.3	-7.0	17.9863	955.0	1.0	Outcome1	-0.3	-13.58	0.0	No	n/a	13.2831257078143	n/a	n/a	n/a	ShowChoice	Mixed
198.109	1.0	0.012	304.858	13.0	1	-0.3	-7.0	17.9863	955.0	1.0	Outcome1	-0.3	-13.58	0.0	No	n/a	13.2831257078143	n/a	n/a	n/a	ShowResult	Mixed
199.129	3.48	0.02	305.878	13.0	1	-0.3	-7.0	17.9863	955.0	1.0	Outcome1	-0.3	-13.58	0.0	No	n/a	13.2831257078143	n/a	n/a	n/a	ISITrial	Mixed
202.639	3.0	0.03	309.388	14.0	1	1.98	0.99	18.2338	955.0	2.0	Outcome2	4.3	1.98	0.0	No	2.0	-2.3193657984145	1.235	203.874	n/a	GetAnswer	Mixed
203.893	4.0	0.019	310.642	14.0	1	1.98	0.99	18.2338	955.0	2.0	Outcome2	4.3	1.98	0.0	No	n/a	-2.3193657984145	n/a	n/a	n/a	ShowChoice	Mixed
207.922	1.0	0.029	314.671	14.0	1	1.98	0.99	18.2338	955.0	2.0	Outcome2	4.3	1.98	0.0	No	n/a	-2.3193657984145	n/a	n/a	n/a	ShowResult	Mixed
208.942	5.019	0.02	315.691	14.0	1	1.98	0.99	18.2338	955.0	2.0	Outcome2	4.3	1.98	0.0	No	n/a	-2.3193657984145	n/a	n/a	n/a	ISITrial	Mixed
213.99	3.0	0.029	320.739	15.0	1	8.3	1.0	19.2713	955.0	5.0	Outcome1	8.3	-5.99	3.3485	Yes	2.0	14.286523216308	2.738	216.728	n/a	GetAnswer	Gain
216.748	4.0	0.02	323.497	15.0	1	8.3	1.0	19.2713	955.0	5.0	Outcome1	8.3	-5.99	3.3485	Yes	n/a	14.286523216308	n/a	n/a	n/a	ShowChoice	Gain
220.777	1.0	0.029	327.526	15.0	1	8.3	1.0	19.2713	955.0	5.0	Outcome1	8.3	-5.99	3.3485	Yes	n/a	14.286523216308	n/a	n/a	n/a	ShowResult	Gain
221.797	7.614	0.02	328.546	15.0	1	8.3	1.0	19.2713	955.0	5.0	Outcome1	8.3	-5.99	3.3485	Yes	n/a	14.286523216308	n/a	n/a	n/a	ISITrial	Gain
229.436	3.348	0.025	336.185	15.0	1	8.3	1.0	19.2713	955.0	5.0	Outcome1	8.3	-5.99	3.3485	Yes	n/a	14.286523216308	n/a	n/a	n/a	TrialHappPreview	Gain
232.813	4.012	0.029	339.562	15.0	1	8.3	1.0	19.2713	955.0	5.0	Outcome1	8.3	-5.99	3.3485	Yes	n/a	14.286523216308	n/a	n/a	576.0	TrialHappiness	Gain
232.814	1.525	n/a	339.951	15.0	1	8.3	1.0	19.2713	955.0	5.0	Outcome1	8.3	-5.99	3.3485	Yes	n/a	14.286523216308	n/a	n/a	576.0	TrialHappinessSliderResponse	Gain
236.825	5.394	4.012	343.574	15.0	1	8.3	1.0	19.2713	955.0	5.0	Outcome1	8.3	-5.99	3.3485	Yes	n/a	14.286523216308	n/a	n/a	n/a	ISIRate	Gain
242.241	3.0	0.022	348.99	16.0	1	-1.1	-8.0	19.1338	955.0	0.4	Outcome2	-14.8	-1.1	0.0	No	n/a	13.701019252548098	n/a	n/a	n/a	GetAnswer	Mixed
245.267	4.0	0.026	352.016	16.0	1	-1.1	-8.0	19.1338	955.0	0.4	Outcome2	-14.8	-1.1	0.0	No	n/a	13.701019252548098	n/a	n/a	n/a	ShowChoice	Mixed
249.279	1.0	0.012	356.028	16.0	1	-1.1	-8.0	19.1338	955.0	0.4	Outcome2	-14.8	-1.1	0.0	No	n/a	13.701019252548098	n/a	n/a	n/a	ShowResult	Mixed
250.299	3.008	0.02	357.048	16.0	1	-1.1	-8.0	19.1338	955.0	0.4	Outcome2	-14.8	-1.1	0.0	No	n/a	13.701019252548098	n/a	n/a	n/a	ISITrial	Mixed
253.324	3.0	0.017	360.073	17.0	1	0.92	2.0	19.2488	955.0	0.52	Outcome1	0.92	3.1	3.0415	Yes	2.0	-2.17902982257456	1.781	255.105	n/a	GetAnswer	Mixed
255.13	4.0	0.025	361.879	17.0	1	0.92	2.0	19.2488	955.0	0.52	Outcome1	0.92	3.1	3.0415	Yes	n/a	-2.17902982257456	n/a	n/a	n/a	ShowChoice	Mixed
259.142	1.0	0.012	365.891	17.0	1	0.92	2.0	19.2488	955.0	0.52	Outcome1	0.92	3.1	3.0415	Yes	n/a	-2.17902982257456	n/a	n/a	n/a	ShowResult	Mixed
260.161	3.566	0.019	366.91	17.0	1	0.92	2.0	19.2488	955.0	0.52	Outcome1	0.92	3.1	3.0415	Yes	n/a	-2.17902982257456	n/a	n/a	n/a	ISITrial	Mixed
263.739	3.042	0.012	370.488	17.0	1	0.92	2.0	19.2488	955.0	0.52	Outcome1	0.92	3.1	3.0415	Yes	n/a	-2.17902982257456	n/a	n/a	n/a	TrialHappPreview	Mixed
266.798	4.012	0.017	373.547	17.0	1	0.92	2.0	19.2488	955.0	0.52	Outcome1	0.92	3.1	3.0415	Yes	n/a	-2.17902982257456	n/a	n/a	560.0	TrialHappiness	Mixed
266.799	0.252	n/a	375.293	17.0	1	0.92	2.0	19.2488	955.0	0.52	Outcome1	0.92	3.1	3.0415	Yes	n/a	-2.17902982257456	n/a	n/a	560.0	TrialHappinessSliderResponse	Mixed
270.81	4.166	4.012	377.559	17.0	1	0.92	2.0	19.2488	955.0	0.52	Outcome1	0.92	3.1	3.0415	Yes	n/a	-2.17902982257456	n/a	n/a	n/a	ISIRate	Mixed
275.006	3.0	0.03	381.755	18.0	1	0.1	-7.0	19.2613	955.0	1.5	Outcome1	0.1	-14.73	0.0	No	n/a	14.8312570781427	n/a	n/a	n/a	GetAnswer	Mixed
278.032	4.0	0.026	384.781	18.0	1	0.1	-7.0	19.2613	955.0	1.5	Outcome1	0.1	-14.73	0.0	No	n/a	14.8312570781427	n/a	n/a	n/a	ShowChoice	Mixed
282.044	1.0	0.012	388.793	18.0	1	0.1	-7.0	19.2613	955.0	1.5	Outcome1	0.1	-14.73	0.0	No	n/a	14.8312570781427	n/a	n/a	n/a	ShowResult	Mixed
283.063	6.787	0.019	389.812	18.0	1	0.1	-7.0	19.2613	955.0	1.5	Outcome1	0.1	-14.73	0.0	No	n/a	14.8312570781427	n/a	n/a	n/a	ISITrial	Mixed
289.867	3.0	0.017	396.616	19.0	1	6.58	3.29	20.0838	955.0	2.0	Outcome1	6.58	8.9	0.0	No	2.0	-2.31700641751604	1.254	291.121	n/a	GetAnswer	Gain
291.137	4.0	0.016	397.886	19.0	1	6.58	3.29	20.0838	955.0	2.0	Outcome1	6.58	8.9	0.0	No	n/a	-2.31700641751604	n/a	n/a	n/a	ShowChoice	Gain
295.149	1.0	0.012	401.898	19.0	1	6.58	3.29	20.0838	955.0	2.0	Outcome1	6.58	8.9	0.0	No	n/a	-2.31700641751604	n/a	n/a	n/a	ShowResult	Gain
296.169	2.0	0.02	402.918	19.0	1	6.58	3.29	20.0838	955.0	2.0	Outcome1	6.58	8.9	0.0	No	n/a	-2.31700641751604	n/a	n/a	n/a	ISITrial	Gain
298.192	3.0	0.023	404.941	20.0	1	-1.0	-1.0	19.9588	955.0	5.0	Certain	6.3	-9.43	2.92125	Yes	4.0	15.7259343148358	2.058	300.25	n/a	GetAnswer	Gain
300.265	4.0	0.015	407.014	20.0	1	-1.0	-1.0	19.9588	955.0	5.0	Certain	6.3	-9.43	2.92125	Yes	n/a	15.7259343148358	n/a	n/a	n/a	ShowChoice	Gain
304.277	1.0	0.012	411.026	20.0	1	-1.0	-1.0	19.9588	955.0	5.0	Certain	6.3	-9.43	2.92125	Yes	n/a	15.7259343148358	n/a	n/a	n/a	ShowResult	Gain
305.296	8.0	0.019	412.045	20.0	1	-1.0	-1.0	19.9588	955.0	5.0	Certain	6.3	-9.43	2.92125	Yes	n/a	15.7259343148358	n/a	n/a	n/a	ISITrial	Gain
313.32	2.921	0.024	420.069	20.0	1	-1.0	-1.0	19.9588	955.0	5.0	Certain	6.3	-9.43	2.92125	Yes	n/a	15.7259343148358	n/a	n/a	n/a	TrialHappPreview	Gain
316.263	4.012	0.022	423.012	20.0	1	-1.0	-1.0	19.9588	955.0	5.0	Certain	6.3	-9.43	2.92125	Yes	n/a	15.7259343148358	n/a	n/a	456.0	TrialHappiness	Gain
316.263	0.268	n/a	425.275	20.0	1	-1.0	-1.0	19.9588	955.0	5.0	Certain	6.3	-9.43	2.92125	Yes	n/a	15.7259343148358	n/a	n/a	456.0	TrialHappinessSliderResponse	Gain
320.275	3.685	4.012	427.024	20.0	1	-1.0	-1.0	19.9588	955.0	5.0	Certain	6.3	-9.43	2.92125	Yes	n/a	15.7259343148358	n/a	n/a	n/a	ISIRate	Gain
323.986	3.0	0.026	430.735	21.0	1	4.89	2.44	20.5701	955.0	3.16	Outcome1	4.89	7.7	0.0	No	2.0	-2.81360890902227	1.359	325.345	n/a	GetAnswer	Gain
325.373	4.0	0.028	432.122	21.0	1	4.89	2.44	20.5701	955.0	3.16	Outcome1	4.89	7.7	0.0	No	n/a	-2.81360890902227	n/a	n/a	n/a	ShowChoice	Gain
329.385	1.0	0.012	436.134	21.0	1	4.89	2.44	20.5701	955.0	3.16	Outcome1	4.89	7.7	0.0	No	n/a	-2.81360890902227	n/a	n/a	n/a	ShowResult	Gain
330.405	3.555	0.02	437.154	21.0	1	4.89	2.44	20.5701	955.0	3.16	Outcome1	4.89	7.7	0.0	No	n/a	-2.81360890902227	n/a	n/a	n/a	ISITrial	Gain
333.982	3.0	0.022	440.731	22.0	1	5.7	-3.0	21.2826	955.0	3.16	Outcome1	5.7	-12.81	3.2195	Yes	2.0	18.5050962627407	2.233	336.215	n/a	GetAnswer	Gain
336.239	4.0	0.024	442.988	22.0	1	5.7	-3.0	21.2826	955.0	3.16	Outcome1	5.7	-12.81	3.2195	Yes	n/a	18.5050962627407	n/a	n/a	n/a	ShowChoice	Gain
340.251	1.0	0.012	447.0	22.0	1	5.7	-3.0	21.2826	955.0	3.16	Outcome1	5.7	-12.81	3.2195	Yes	n/a	18.5050962627407	n/a	n/a	n/a	ShowResult	Gain
341.271	6.793	0.02	448.02	22.0	1	5.7	-3.0	21.2826	955.0	3.16	Outcome1	5.7	-12.81	3.2195	Yes	n/a	18.5050962627407	n/a	n/a	n/a	ISITrial	Gain
348.074	3.22	0.01	454.823	22.0	1	5.7	-3.0	21.2826	955.0	3.16	Outcome1	5.7	-12.81	3.2195	Yes	n/a	18.5050962627407	n/a	n/a	n/a	TrialHappPreview	Gain
351.317	4.012	0.023	458.066	22.0	1	5.7	-3.0	21.2826	955.0	3.16	Outcome1	5.7	-12.81	3.2195	Yes	n/a	18.5050962627407	n/a	n/a	520.0	TrialHappiness	Gain
351.318	1.321	n/a	459.796	22.0	1	5.7	-3.0	21.2826	955.0	3.16	Outcome1	5.7	-12.81	3.2195	Yes	n/a	18.5050962627407	n/a	n/a	520.0	TrialHappinessSliderResponse	Gain
355.329	4.878	4.012	462.078	22.0	1	5.7	-3.0	21.2826	955.0	3.16	Outcome1	5.7	-12.81	3.2195	Yes	n/a	18.5050962627407	n/a	n/a	n/a	ISIRate	Gain
360.227	3.0	0.02	466.976	23.0	1	-2.0	-2.0	21.0326	955.0	1.68	Certain	6.5	-11.48	0.0	No	4.0	17.983012457531103	2.556	362.783	n/a	GetAnswer	Gain
362.802	4.0	0.019	469.551	23.0	1	-2.0	-2.0	21.0326	955.0	1.68	Certain	6.5	-11.48	0.0	No	n/a	17.983012457531103	n/a	n/a	n/a	ShowChoice	Gain
366.814	1.0	0.012	473.563	23.0	1	-2.0	-2.0	21.0326	955.0	1.68	Certain	6.5	-11.48	0.0	No	n/a	17.983012457531103	n/a	n/a	n/a	ShowResult	Gain
367.833	8.0	0.019	474.582	23.0	1	-2.0	-2.0	21.0326	955.0	1.68	Certain	6.5	-11.48	0.0	No	n/a	17.983012457531103	n/a	n/a	n/a	ISITrial	Gain
375.857	3.0	0.024	482.606	24.0	1	0.0	0.0	21.0326	955.0	3.16	Certain	9.7	-8.78	3.255	Yes	4.0	18.475651189128	2.322	378.179	n/a	GetAnswer	Gain
378.198	4.0	0.019	484.947	24.0	1	0.0	0.0	21.0326	955.0	3.16	Certain	9.7	-8.78	3.255	Yes	n/a	18.475651189128	n/a	n/a	n/a	ShowChoice	Gain
382.21	1.0	0.012	488.959	24.0	1	0.0	0.0	21.0326	955.0	3.16	Certain	9.7	-8.78	3.255	Yes	n/a	18.475651189128	n/a	n/a	n/a	ShowResult	Gain
383.229	2.0	0.019	489.978	24.0	1	0.0	0.0	21.0326	955.0	3.16	Certain	9.7	-8.78	3.255	Yes	n/a	18.475651189128	n/a	n/a	n/a	ISITrial	Gain
385.252	3.255	0.023	492.001	24.0	1	0.0	0.0	21.0326	955.0	3.16	Certain	9.7	-8.78	3.255	Yes	n/a	18.475651189128	n/a	n/a	n/a	TrialHappPreview	Gain
388.529	4.012	0.022	495.278	24.0	1	0.0	0.0	21.0326	955.0	3.16	Certain	9.7	-8.78	3.255	Yes	n/a	18.475651189128	n/a	n/a	548.0	TrialHappiness	Gain
388.529	2.224	n/a	496.927	24.0	1	0.0	0.0	21.0326	955.0	3.16	Certain	9.7	-8.78	3.255	Yes	n/a	18.475651189128	n/a	n/a	548.0	TrialHappinessSliderResponse	Gain
392.541	5.02	4.012	499.29	24.0	1	0.0	0.0	21.0326	955.0	3.16	Certain	9.7	-8.78	3.255	Yes	n/a	18.475651189128	n/a	n/a	n/a	ISIRate	Gain
397.589	3.0	0.028	504.338	25.0	1	11.7	2.0	22.4951	955.0	3.16	Outcome2	-6.79	11.7	0.0	No	2.0	18.4926387315968	1.907	399.496	n/a	GetAnswer	Loss
399.511	4.0	0.015	506.26	25.0	1	11.7	2.0	22.4951	955.0	3.16	Outcome2	-6.79	11.7	0.0	No	n/a	18.4926387315968	n/a	n/a	n/a	ShowChoice	Loss
403.523	1.0	0.012	510.272	25.0	1	11.7	2.0	22.4951	955.0	3.16	Outcome2	-6.79	11.7	0.0	No	n/a	18.4926387315968	n/a	n/a	n/a	ShowResult	Loss
404.543	3.749	0.02	511.292	25.0	1	11.7	2.0	22.4951	955.0	3.16	Outcome2	-6.79	11.7	0.0	No	n/a	18.4926387315968	n/a	n/a	n/a	ISITrial	Loss
408.321	3.0	0.029	515.07	26.0	1	2.24	1.12	22.7751	955.0	2.0	Outcome1	2.24	4.9	0.0	No	2.0	-2.65496413741034	1.426	409.747	n/a	GetAnswer	Gain
409.775	4.0	0.028	516.524	26.0	1	2.24	1.12	22.7751	955.0	2.0	Outcome1	2.24	4.9	0.0	No	n/a	-2.65496413741034	n/a	n/a	n/a	ShowChoice	Gain
413.787	1.0	0.012	520.536	26.0	1	2.24	1.12	22.7751	955.0	2.0	Outcome1	2.24	4.9	0.0	No	n/a	-2.65496413741034	n/a	n/a	n/a	ShowResult	Gain
414.807	7.834	0.02	521.556	26.0	1	2.24	1.12	22.7751	955.0	2.0	Outcome1	2.24	4.9	0.0	No	n/a	-2.65496413741034	n/a	n/a	n/a	ISITrial	Gain
422.664	3.0	0.023	529.413	27.0	1	-3.19	-2.0	22.3763	955.0	0.82	Outcome2	-0.5	-3.19	2.54975	Yes	n/a	-2.69337485843715	n/a	n/a	n/a	GetAnswer	Mixed
425.69	4.0	0.026	532.439	27.0	1	-3.19	-2.0	22.3763	955.0	0.82	Outcome2	-0.5	-3.19	2.54975	Yes	n/a	-2.69337485843715	n/a	n/a	n/a	ShowChoice	Mixed
429.702	1.0	0.012	536.451	27.0	1	-3.19	-2.0	22.3763	955.0	0.82	Outcome2	-0.5	-3.19	2.54975	Yes	n/a	-2.69337485843715	n/a	n/a	n/a	ShowResult	Mixed
430.721	4.225	0.019	537.47	27.0	1	-3.19	-2.0	22.3763	955.0	0.82	Outcome2	-0.5	-3.19	2.54975	Yes	n/a	-2.69337485843715	n/a	n/a	n/a	ISITrial	Mixed
434.967	2.55	0.021	541.716	27.0	1	-3.19	-2.0	22.3763	955.0	0.82	Outcome2	-0.5	-3.19	2.54975	Yes	n/a	-2.69337485843715	n/a	n/a	n/a	TrialHappPreview	Mixed
437.542	4.012	0.025	544.291	27.0	1	-3.19	-2.0	22.3763	955.0	0.82	Outcome2	-0.5	-3.19	2.54975	Yes	n/a	-2.69337485843715	n/a	n/a	552.0	TrialHappiness	Mixed
437.542	0.22	n/a	544.663	27.0	1	-3.19	-2.0	22.3763	955.0	0.82	Outcome2	-0.5	-3.19	2.54975	Yes	n/a	-2.69337485843715	n/a	n/a	552.0	TrialHappinessSliderResponse	Mixed
441.554	2.199	4.012	548.303	27.0	1	-3.19	-2.0	22.3763	955.0	0.82	Outcome2	-0.5	-3.19	2.54975	Yes	n/a	-2.69337485843715	n/a	n/a	n/a	ISIRate	Mixed
477.395	0.319	n/a	586.021	n/a	1	n/a	n/a	n/a	n/a	n/a	n/a	n/a	n/a	n/a	n/a	n/a	n/a	n/a	n/a	592.0	BlockStartHappinessSliderResponse	n/a
-55.683	-0.001	0.024	550.526	n/a	2	n/a	n/a	n/a	n/a	n/a	n/a	n/a	n/a	n/a	n/a	{SPACE}	n/a	29.576	-26.107	n/a	Rest	n/a
-26.078	4.0	0.029	580.131	n/a	2	n/a	n/a	n/a	n/a	n/a	n/a	n/a	n/a	n/a	n/a	n/a	n/a	n/a	n/a	n/a	BlockHappyPreview	n/a
-22.066	2.196	0.012	584.143	n/a	2	n/a	n/a	n/a	n/a	n/a	n/a	n/a	n/a	n/a	n/a	n/a	n/a	n/a	n/a	592.0	BlockStartHappiness	n/a
-3.611	-0.001	0.016	602.598	n/a	2	n/a	n/a	n/a	n/a	n/a	n/a	n/a	n/a	n/a	n/a	5.0	n/a	3.592	-0.019	n/a	ScanWait	n/a
0.0	10.0	0.019	606.209	n/a	2	n/a	n/a	n/a	n/a	n/a	n/a	n/a	n/a	n/a	n/a	n/a	n/a	n/a	n/a	n/a	GetReady	n/a
10.014	3.0	0.014	616.223	28.0	2	-7.98	-3.0	21.3788	70.0	0.4	Outcome2	0.9	-7.98	0.0	No	2.0	-8.877551020408161	1.693	11.707	n/a	GetAnswer	Mixed
11.719	4.0	0.012	617.928	28.0	2	-7.98	-3.0	21.3788	70.0	0.4	Outcome2	0.9	-7.98	0.0	No	n/a	-8.877551020408161	n/a	n/a	n/a	ShowChoice	Mixed
15.731	1.0	0.012	621.94	28.0	2	-7.98	-3.0	21.3788	70.0	0.4	Outcome2	0.9	-7.98	0.0	No	n/a	-8.877551020408161	n/a	n/a	n/a	ShowResult	Mixed
16.75	3.575	0.019	622.959	28.0	2	-7.98	-3.0	21.3788	70.0	0.4	Outcome2	0.9	-7.98	0.0	No	n/a	-8.877551020408161	n/a	n/a	n/a	ISITrial	Mixed
20.344	3.0	0.019	626.553	29.0	2	2.03	1.01	21.6326	70.0	2.8	Outcome2	11.5	2.03	3.529	Yes	2.0	-9.46938775510204	1.449	21.793	n/a	GetAnswer	Loss
21.815	4.0	0.022	628.024	29.0	2	2.03	1.01	21.6326	70.0	2.8	Outcome2	11.5	2.03	3.529	Yes	n/a	-9.46938775510204	n/a	n/a	n/a	ShowChoice	Loss
25.827	1.0	0.012	632.036	29.0	2	2.03	1.01	21.6326	70.0	2.8	Outcome2	11.5	2.03	3.529	Yes	n/a	-9.46938775510204	n/a	n/a	n/a	ShowResult	Loss
26.847	3.955	0.02	633.056	29.0	2	2.03	1.01	21.6326	70.0	2.8	Outcome2	11.5	2.03	3.529	Yes	n/a	-9.46938775510204	n/a	n/a	n/a	ISITrial	Loss
30.826	3.529	0.024	637.035	29.0	2	2.03	1.01	21.6326	70.0	2.8	Outcome2	11.5	2.03	3.529	Yes	n/a	-9.46938775510204	n/a	n/a	n/a	TrialHappPreview	Loss
34.37	4.028	0.015	640.579	29.0	2	2.03	1.01	21.6326	70.0	2.8	Outcome2	11.5	2.03	3.529	Yes	n/a	-9.46938775510204	n/a	n/a	448.0	TrialHappiness	Loss
34.37	0.275	n/a	641.664	29.0	2	2.03	1.01	21.6326	70.0	2.8	Outcome2	11.5	2.03	3.529	Yes	n/a	-9.46938775510204	n/a	n/a	448.0	TrialHappinessSliderResponse	Loss
38.398	6.116	4.028	644.607	29.0	2	2.03	1.01	21.6326	70.0	2.8	Outcome2	11.5	2.03	3.529	Yes	n/a	-9.46938775510204	n/a	n/a	n/a	ISIRate	Loss
44.533	3.0	0.019	650.742	30.0	2	6.29	3.14	22.4188	70.0	3.6	Outcome2	13.9	6.29	0.0	No	2.0	-7.6122448979591795	1.269	45.802	n/a	GetAnswer	Loss
45.821	4.0	0.019	652.03	30.0	2	6.29	3.14	22.4188	70.0	3.6	Outcome2	13.9	6.29	0.0	No	n/a	-7.6122448979591795	n/a	n/a	n/a	ShowChoice	Loss
49.833	1.0	0.012	656.042	30.0	2	6.29	3.14	22.4188	70.0	3.6	Outcome2	13.9	6.29	0.0	No	n/a	-7.6122448979591795	n/a	n/a	n/a	ShowResult	Loss
50.852	4.453	0.019	657.061	30.0	2	6.29	3.14	22.4188	70.0	3.6	Outcome2	13.9	6.29	0.0	No	n/a	-7.6122448979591795	n/a	n/a	n/a	ISITrial	Loss
55.332	3.0	0.027	661.541	31.0	2	0.0	0.0	22.4188	70.0	0.52	Certain	0.28	-1.39	2.50325	Yes	4.0	1.67006802721088	2.272	57.604	n/a	GetAnswer	Mixed
57.623	4.0	0.019	663.832	31.0	2	0.0	0.0	22.4188	70.0	0.52	Certain	0.28	-1.39	2.50325	Yes	n/a	1.67006802721088	n/a	n/a	n/a	ShowChoice	Mixed
61.635	1.0	0.012	667.844	31.0	2	0.0	0.0	22.4188	70.0	0.52	Certain	0.28	-1.39	2.50325	Yes	n/a	1.67006802721088	n/a	n/a	n/a	ShowResult	Mixed
62.654	4.786	0.019	668.863	31.0	2	0.0	0.0	22.4188	70.0	0.52	Certain	0.28	-1.39	2.50325	Yes	n/a	1.67006802721088	n/a	n/a	n/a	ISITrial	Mixed
67.469	2.503	0.029	673.678	31.0	2	0.0	0.0	22.4188	70.0	0.52	Certain	0.28	-1.39	2.50325	Yes	n/a	1.67006802721088	n/a	n/a	n/a	TrialHappPreview	Mixed
69.993	4.012	0.021	676.202	31.0	2	0.0	0.0	22.4188	70.0	0.52	Certain	0.28	-1.39	2.50325	Yes	n/a	1.67006802721088	n/a	n/a	504.0	TrialHappiness	Mixed
69.993	3.317	n/a	676.604	31.0	2	0.0	0.0	22.4188	70.0	0.52	Certain	0.28	-1.39	2.50325	Yes	n/a	1.67006802721088	n/a	n/a	504.0	TrialHappinessSliderResponse	Mixed
74.005	2.013	4.012	680.214	31.0	2	0.0	0.0	22.4188	70.0	0.52	Certain	0.28	-1.39	2.50325	Yes	n/a	1.67006802721088	n/a	n/a	n/a	ISIRate	Mixed
76.044	3.0	0.026	682.253	32.0	2	-0.22	-1.0	22.3913	70.0	0.52	Outcome1	-0.22	-2.15	0.0	No	2.0	1.9332955404384	2.572	78.616	n/a	GetAnswer	Mixed
78.635	4.0	0.019	684.844	32.0	2	-0.22	-1.0	22.3913	70.0	0.52	Outcome1	-0.22	-2.15	0.0	No	n/a	1.9332955404384	n/a	n/a	n/a	ShowChoice	Mixed
82.647	1.0	0.012	688.856	32.0	2	-0.22	-1.0	22.3913	70.0	0.52	Outcome1	-0.22	-2.15	0.0	No	n/a	1.9332955404384	n/a	n/a	n/a	ShowResult	Mixed
83.667	2.0	0.02	689.876	32.0	2	-0.22	-1.0	22.3913	70.0	0.52	Outcome1	-0.22	-2.15	0.0	No	n/a	1.9332955404384	n/a	n/a	n/a	ISITrial	Mixed
85.69	3.0	0.023	691.899	33.0	2	-9.41	-4.0	21.2151	70.0	0.2	Outcome1	-9.41	0.5	0.0	No	2.0	-9.913832199546489	2.026	87.716	n/a	GetAnswer	Mixed
87.729	4.0	0.013	693.938	33.0	2	-9.41	-4.0	21.2151	70.0	0.2	Outcome1	-9.41	0.5	0.0	No	n/a	-9.913832199546489	n/a	n/a	n/a	ShowChoice	Mixed
91.741	1.0	0.012	697.95	33.0	2	-9.41	-4.0	21.2151	70.0	0.2	Outcome1	-9.41	0.5	0.0	No	n/a	-9.913832199546489	n/a	n/a	n/a	ShowResult	Mixed
92.761	5.099	0.02	698.97	33.0	2	-9.41	-4.0	21.2151	70.0	0.2	Outcome1	-9.41	0.5	0.0	No	n/a	-9.913832199546489	n/a	n/a	n/a	ISITrial	Mixed
97.876	3.0	0.016	704.085	34.0	2	1.0	1.0	21.3401	70.0	2.22	Certain	-0.24	1.78	3.2315	Yes	4.0	2.01530612244898	1.983	99.859	n/a	GetAnswer	Gain
99.882	4.0	0.023	706.091	34.0	2	1.0	1.0	21.3401	70.0	2.22	Certain	-0.24	1.78	3.2315	Yes	n/a	2.01530612244898	n/a	n/a	n/a	ShowChoice	Gain
103.894	1.0	0.012	710.103	34.0	2	1.0	1.0	21.3401	70.0	2.22	Certain	-0.24	1.78	3.2315	Yes	n/a	2.01530612244898	n/a	n/a	n/a	ShowResult	Gain
104.914	4.784	0.02	711.123	34.0	2	1.0	1.0	21.3401	70.0	2.22	Certain	-0.24	1.78	3.2315	Yes	n/a	2.01530612244898	n/a	n/a	n/a	ISITrial	Gain
109.712	3.232	0.014	715.921	34.0	2	1.0	1.0	21.3401	70.0	2.22	Certain	-0.24	1.78	3.2315	Yes	n/a	2.01530612244898	n/a	n/a	n/a	TrialHappPreview	Gain
112.971	4.012	0.027	719.18	34.0	2	1.0	1.0	21.3401	70.0	2.22	Certain	-0.24	1.78	3.2315	Yes	n/a	2.01530612244898	n/a	n/a	488.0	TrialHappiness	Gain
112.972	0.196	n/a	722.135	34.0	2	1.0	1.0	21.3401	70.0	2.22	Certain	-0.24	1.78	3.2315	Yes	n/a	2.01530612244898	n/a	n/a	488.0	TrialHappinessSliderResponse	Gain
116.983	4.926	4.012	723.192	34.0	2	1.0	1.0	21.3401	70.0	2.22	Certain	-0.24	1.78	3.2315	Yes	n/a	2.01530612244898	n/a	n/a	n/a	ISIRate	Gain
121.931	3.0	0.022	728.14	35.0	2	1.47	0.74	21.5239	70.0	4.2	Outcome1	1.47	12.1	0.0	No	2.0	-10.6258503401361	1.228	123.159	n/a	GetAnswer	Loss
123.185	4.0	0.026	729.394	35.0	2	1.47	0.74	21.5239	70.0	4.2	Outcome1	1.47	12.1	0.0	No	n/a	-10.6258503401361	n/a	n/a	n/a	ShowChoice	Loss
127.197	1.0	0.012	733.406	35.0	2	1.47	0.74	21.5239	70.0	4.2	Outcome1	1.47	12.1	0.0	No	n/a	-10.6258503401361	n/a	n/a	n/a	ShowResult	Loss
128.217	2.098	0.02	734.426	35.0	2	1.47	0.74	21.5239	70.0	4.2	Outcome1	1.47	12.1	0.0	No	n/a	-10.6258503401361	n/a	n/a	n/a	ISITrial	Loss
130.34	3.0	0.025	736.549	36.0	2	1.88	1.0	21.7589	70.0	2.8	Outcome1	1.88	-0.15	3.33575	Yes	2.0	2.03080120937264	2.517	132.857	n/a	GetAnswer	Gain
132.881	4.0	0.024	739.09	36.0	2	1.88	1.0	21.7589	70.0	2.8	Outcome1	1.88	-0.15	3.33575	Yes	n/a	2.03080120937264	n/a	n/a	n/a	ShowChoice	Gain
136.893	1.0	0.012	743.102	36.0	2	1.88	1.0	21.7589	70.0	2.8	Outcome1	1.88	-0.15	3.33575	Yes	n/a	2.03080120937264	n/a	n/a	n/a	ShowResult	Gain
137.913	5.156	0.02	744.122	36.0	2	1.88	1.0	21.7589	70.0	2.8	Outcome1	1.88	-0.15	3.33575	Yes	n/a	2.03080120937264	n/a	n/a	n/a	ISITrial	Gain
143.095	3.336	0.026	749.304	36.0	2	1.88	1.0	21.7589	70.0	2.8	Outcome1	1.88	-0.15	3.33575	Yes	n/a	2.03080120937264	n/a	n/a	n/a	TrialHappPreview	Gain
146.455	4.012	0.024	752.664	36.0	2	1.88	1.0	21.7589	70.0	2.8	Outcome1	1.88	-0.15	3.33575	Yes	4{-4}	2.03080120937264	2.615	149.07	472.0	TrialHappiness	Gain
146.455	0.226	n/a	755.053	36.0	2	1.88	1.0	21.7589	70.0	2.8	Outcome1	1.88	-0.15	3.33575	Yes	n/a	2.03080120937264	n/a	n/a	472.0	TrialHappinessSliderResponse	Gain
150.467	5.343	4.012	756.676	36.0	2	1.88	1.0	21.7589	70.0	2.8	Outcome1	1.88	-0.15	3.33575	Yes	n/a	2.03080120937264	n/a	n/a	n/a	ISIRate	Gain
155.833	3.0	0.023	762.042	37.0	2	-0.6	-0.3	21.6839	70.0	1.82	Outcome2	10.7	-0.6	0.0	No	2.0	-11.3015873015873	2.434	158.267	n/a	GetAnswer	Loss
158.29	4.0	0.023	764.499	37.0	2	-0.6	-0.3	21.6839	70.0	1.82	Outcome2	10.7	-0.6	0.0	No	n/a	-11.3015873015873	n/a	n/a	n/a	ShowChoice	Loss
162.302	1.0	0.012	768.511	37.0	2	-0.6	-0.3	21.6839	70.0	1.82	Outcome2	10.7	-0.6	0.0	No	n/a	-11.3015873015873	n/a	n/a	n/a	ShowResult	Loss
163.322	3.598	0.02	769.531	37.0	2	-0.6	-0.3	21.6839	70.0	1.82	Outcome2	10.7	-0.6	0.0	No	n/a	-11.3015873015873	n/a	n/a	n/a	ISITrial	Loss
166.949	3.0	0.029	773.158	38.0	2	0.0	0.0	21.6839	70.0	2.0	Certain	0.57	-1.47	0.0	No	4.0	2.04327286470144	2.229	169.178	n/a	GetAnswer	Mixed
169.189	4.0	0.011	775.398	38.0	2	0.0	0.0	21.6839	70.0	2.0	Certain	0.57	-1.47	0.0	No	n/a	2.04327286470144	n/a	n/a	n/a	ShowChoice	Mixed
173.201	1.0	0.012	779.41	38.0	2	0.0	0.0	21.6839	70.0	2.0	Certain	0.57	-1.47	0.0	No	n/a	2.04327286470144	n/a	n/a	n/a	ShowResult	Mixed
174.221	4.787	0.02	780.43	38.0	2	0.0	0.0	21.6839	70.0	2.0	Certain	0.57	-1.47	0.0	No	n/a	2.04327286470144	n/a	n/a	n/a	ISITrial	Mixed
179.036	3.0	0.028	785.245	39.0	2	-3.71	2.0	21.2201	70.0	1.68	Outcome2	8.5	-3.71	2.86425	Yes	2.0	-12.2131519274376	2.974	182.01	n/a	GetAnswer	Gain
182.028	4.0	0.018	788.237	39.0	2	-3.71	2.0	21.2201	70.0	1.68	Outcome2	8.5	-3.71	2.86425	Yes	n/a	-12.2131519274376	n/a	n/a	n/a	ShowChoice	Gain
186.04	1.0	0.012	792.249	39.0	2	-3.71	2.0	21.2201	70.0	1.68	Outcome2	8.5	-3.71	2.86425	Yes	n/a	-12.2131519274376	n/a	n/a	n/a	ShowResult	Gain
187.06	2.348	0.02	793.269	39.0	2	-3.71	2.0	21.2201	70.0	1.68	Outcome2	8.5	-3.71	2.86425	Yes	n/a	-12.2131519274376	n/a	n/a	n/a	ISITrial	Gain
189.433	2.864	0.025	795.642	39.0	2	-3.71	2.0	21.2201	70.0	1.68	Outcome2	8.5	-3.71	2.86425	Yes	n/a	-12.2131519274376	n/a	n/a	n/a	TrialHappPreview	Gain
192.325	4.012	0.028	798.534	39.0	2	-3.71	2.0	21.2201	70.0	1.68	Outcome2	8.5	-3.71	2.86425	Yes	n/a	-12.2131519274376	n/a	n/a	512.0	TrialHappiness	Gain
192.326	0.0	n/a	798.535	39.0	2	-3.71	2.0	21.2201	70.0	1.68	Outcome2	8.5	-3.71	2.86425	Yes	n/a	-12.2131519274376	n/a	n/a	512.0	TrialHappinessSliderResponse	Gain
196.337	3.457	4.012	802.546	39.0	2	-3.71	2.0	21.2201	70.0	1.68	Outcome2	8.5	-3.71	2.86425	Yes	n/a	-12.2131519274376	n/a	n/a	n/a	ISIRate	Gain
199.814	3.0	0.02	806.023	40.0	2	-3.25	-1.62	20.8139	70.0	4.2	Outcome2	10.1	-3.25	0.0	No	2.0	-13.3492063492064	1.24	201.054	n/a	GetAnswer	Gain
201.068	4.0	0.014	807.277	40.0	2	-3.25	-1.62	20.8139	70.0	4.2	Outcome2	10.1	-3.25	0.0	No	n/a	-13.3492063492064	n/a	n/a	n/a	ShowChoice	Gain
205.08	1.0	0.012	811.289	40.0	2	-3.25	-1.62	20.8139	70.0	4.2	Outcome2	10.1	-3.25	0.0	No	n/a	-13.3492063492064	n/a	n/a	n/a	ShowResult	Gain
206.1	3.158	0.02	812.309	40.0	2	-3.25	-1.62	20.8139	70.0	4.2	Outcome2	10.1	-3.25	0.0	No	n/a	-13.3492063492064	n/a	n/a	n/a	ISITrial	Gain
209.276	3.0	0.018	815.485	41.0	2	-0.15	-0.08	20.7951	70.0	3.16	Outcome2	13.7	-0.15	4.0	Yes	2.0	-13.8503401360544	2.639	211.915	n/a	GetAnswer	Loss
211.967	4.0	0.052	818.176	41.0	2	-0.15	-0.08	20.7951	70.0	3.16	Outcome2	13.7	-0.15	4.0	Yes	n/a	-13.8503401360544	n/a	n/a	n/a	ShowChoice	Loss
215.979	1.0	0.012	822.188	41.0	2	-0.15	-0.08	20.7951	70.0	3.16	Outcome2	13.7	-0.15	4.0	Yes	n/a	-13.8503401360544	n/a	n/a	n/a	ShowResult	Loss
216.999	4.506	0.02	823.208	41.0	2	-0.15	-0.08	20.7951	70.0	3.16	Outcome2	13.7	-0.15	4.0	Yes	n/a	-13.8503401360544	n/a	n/a	n/a	ISITrial	Loss
221.529	4.0	0.024	827.738	41.0	2	-0.15	-0.08	20.7951	70.0	3.16	Outcome2	13.7	-0.15	4.0	Yes	n/a	-13.8503401360544	n/a	n/a	n/a	TrialHappPreview	Loss
225.558	4.012	0.029	831.767	41.0	2	-0.15	-0.08	20.7951	70.0	3.16	Outcome2	13.7	-0.15	4.0	Yes	n/a	-13.8503401360544	n/a	n/a	512.0	TrialHappiness	Loss
225.559	0.0	n/a	831.768	41.0	2	-0.15	-0.08	20.7951	70.0	3.16	Outcome2	13.7	-0.15	4.0	Yes	n/a	-13.8503401360544	n/a	n/a	512.0	TrialHappinessSliderResponse	Loss
229.57	8.0	4.012	835.779	41.0	2	-0.15	-0.08	20.7951	70.0	3.16	Outcome2	13.7	-0.15	4.0	Yes	n/a	-13.8503401360544	n/a	n/a	n/a	ISIRate	Loss
237.594	3.0	0.024	843.803	42.0	2	0.0	0.0	20.7951	70.0	1.68	Certain	1.12	-1.25	0.0	No	4.0	2.36526832955404	1.62	239.214	n/a	GetAnswer	Gain
239.232	4.0	0.018	845.441	42.0	2	0.0	0.0	20.7951	70.0	1.68	Certain	1.12	-1.25	0.0	No	n/a	2.36526832955404	n/a	n/a	n/a	ShowChoice	Gain
243.244	1.0	0.012	849.453	42.0	2	0.0	0.0	20.7951	70.0	1.68	Certain	1.12	-1.25	0.0	No	n/a	2.36526832955404	n/a	n/a	n/a	ShowResult	Gain
244.264	6.248	0.02	850.473	42.0	2	0.0	0.0	20.7951	70.0	1.68	Certain	1.12	-1.25	0.0	No	n/a	2.36526832955404	n/a	n/a	n/a	ISITrial	Gain
250.533	3.0	0.021	856.742	43.0	2	-1.55	-0.78	20.6013	70.0	2.48	Outcome2	13.3	-1.55	2.77575	Yes	2.0	-14.8526077097506	1.492	252.025	n/a	GetAnswer	Loss
252.037	4.0	0.012	858.246	43.0	2	-1.55	-0.78	20.6013	70.0	2.48	Outcome2	13.3	-1.55	2.77575	Yes	n/a	-14.8526077097506	n/a	n/a	n/a	ShowChoice	Loss
256.049	1.0	0.012	862.258	43.0	2	-1.55	-0.78	20.6013	70.0	2.48	Outcome2	13.3	-1.55	2.77575	Yes	n/a	-14.8526077097506	n/a	n/a	n/a	ShowResult	Loss
257.069	4.596	0.02	863.278	43.0	2	-1.55	-0.78	20.6013	70.0	2.48	Outcome2	13.3	-1.55	2.77575	Yes	n/a	-14.8526077097506	n/a	n/a	n/a	ISITrial	Loss
261.683	2.776	0.018	867.892	43.0	2	-1.55	-0.78	20.6013	70.0	2.48	Outcome2	13.3	-1.55	2.77575	Yes	n/a	-14.8526077097506	n/a	n/a	n/a	TrialHappPreview	Loss
264.474	4.012	0.015	870.683	43.0	2	-1.55	-0.78	20.6013	70.0	2.48	Outcome2	13.3	-1.55	2.77575	Yes	n/a	-14.8526077097506	n/a	n/a	504.0	TrialHappiness	Loss
264.475	0.163	n/a	871.932	43.0	2	-1.55	-0.78	20.6013	70.0	2.48	Outcome2	13.3	-1.55	2.77575	Yes	n/a	-14.8526077097506	n/a	n/a	504.0	TrialHappinessSliderResponse	Loss
268.486	3.103	4.012	874.695	43.0	2	-1.55	-0.78	20.6013	70.0	2.48	Outcome2	13.3	-1.55	2.77575	Yes	n/a	-14.8526077097506	n/a	n/a	n/a	ISIRate	Loss
271.612	3.0	0.023	877.821	44.0	2	-8.32	0.0	19.5613	70.0	2.0	Outcome1	-8.32	6.9	0.0	No	2.0	-15.2176870748299	2.063	273.675	n/a	GetAnswer	Gain
273.702	4.0	0.027	879.911	44.0	2	-8.32	0.0	19.5613	70.0	2.0	Outcome1	-8.32	6.9	0.0	No	n/a	-15.2176870748299	n/a	n/a	n/a	ShowChoice	Gain
277.714	1.0	0.012	883.923	44.0	2	-8.32	0.0	19.5613	70.0	2.0	Outcome1	-8.32	6.9	0.0	No	n/a	-15.2176870748299	n/a	n/a	n/a	ShowResult	Gain
278.734	2.42	0.02	884.943	44.0	2	-8.32	0.0	19.5613	70.0	2.0	Outcome1	-8.32	6.9	0.0	No	n/a	-15.2176870748299	n/a	n/a	n/a	ISITrial	Gain
281.174	3.0	0.02	887.383	45.0	2	1.0	1.0	19.6863	70.0	2.22	Certain	2.28	-0.18	0.0	No	4.0	2.4572940287226	1.322	282.496	n/a	GetAnswer	Gain
282.512	4.0	0.016	888.721	45.0	2	1.0	1.0	19.6863	70.0	2.22	Certain	2.28	-0.18	0.0	No	n/a	2.4572940287226	n/a	n/a	n/a	ShowChoice	Gain
286.524	1.0	0.012	892.733	45.0	2	1.0	1.0	19.6863	70.0	2.22	Certain	2.28	-0.18	0.0	No	n/a	2.4572940287226	n/a	n/a	n/a	ShowResult	Gain
287.543	3.144	0.019	893.752	45.0	2	1.0	1.0	19.6863	70.0	2.22	Certain	2.28	-0.18	0.0	No	n/a	2.4572940287226	n/a	n/a	n/a	ISITrial	Gain
290.703	3.0	0.016	896.912	46.0	2	-10.7	-2.0	18.3488	70.0	2.8	Outcome2	5.5	-10.7	3.84125	Yes	n/a	-16.2018140589569	n/a	n/a	n/a	GetAnswer	Gain
293.728	4.0	0.025	899.937	46.0	2	-10.7	-2.0	18.3488	70.0	2.8	Outcome2	5.5	-10.7	3.84125	Yes	n/a	-16.2018140589569	n/a	n/a	n/a	ShowChoice	Gain
297.74	1.0	0.012	903.949	46.0	2	-10.7	-2.0	18.3488	70.0	2.8	Outcome2	5.5	-10.7	3.84125	Yes	n/a	-16.2018140589569	n/a	n/a	n/a	ShowResult	Gain
298.76	2.246	0.02	904.969	46.0	2	-10.7	-2.0	18.3488	70.0	2.8	Outcome2	5.5	-10.7	3.84125	Yes	n/a	-16.2018140589569	n/a	n/a	n/a	ISITrial	Gain
301.017	3.841	0.011	907.226	46.0	2	-10.7	-2.0	18.3488	70.0	2.8	Outcome2	5.5	-10.7	3.84125	Yes	n/a	-16.2018140589569	n/a	n/a	n/a	TrialHappPreview	Gain
304.878	4.012	0.02	911.087	46.0	2	-10.7	-2.0	18.3488	70.0	2.8	Outcome2	5.5	-10.7	3.84125	Yes	n/a	-16.2018140589569	n/a	n/a	448.0	TrialHappiness	Gain
304.879	3.4	n/a	911.207	46.0	2	-10.7	-2.0	18.3488	70.0	2.8	Outcome2	5.5	-10.7	3.84125	Yes	n/a	-16.2018140589569	n/a	n/a	448.0	TrialHappinessSliderResponse	Gain
308.89	7.365	4.012	915.099	46.0	2	-10.7	-2.0	18.3488	70.0	2.8	Outcome2	5.5	-10.7	3.84125	Yes	n/a	-16.2018140589569	n/a	n/a	n/a	ISIRate	Gain
316.279	3.0	0.024	922.488	47.0	2	-4.0	-4.0	17.8488	70.0	1.0	Certain	3.7	-12.04	0.0	No	4.0	-15.7414965986395	2.259	318.538	n/a	GetAnswer	Mixed
318.553	4.0	0.015	924.762	47.0	2	-4.0	-4.0	17.8488	70.0	1.0	Certain	3.7	-12.04	0.0	No	n/a	-15.7414965986395	n/a	n/a	n/a	ShowChoice	Mixed
322.565	1.0	0.012	928.774	47.0	2	-4.0	-4.0	17.8488	70.0	1.0	Certain	3.7	-12.04	0.0	No	n/a	-15.7414965986395	n/a	n/a	n/a	ShowResult	Mixed
323.584	2.0	0.019	929.793	47.0	2	-4.0	-4.0	17.8488	70.0	1.0	Certain	3.7	-12.04	0.0	No	n/a	-15.7414965986395	n/a	n/a	n/a	ISITrial	Mixed
325.607	3.0	0.023	931.816	48.0	2	1.68	0.0	18.0588	70.0	1.82	Outcome1	1.68	-0.67	2.83175	Yes	2.0	2.3475056689342404	1.822	327.429	n/a	GetAnswer	Gain
327.446	4.0	0.017	933.655	48.0	2	1.68	0.0	18.0588	70.0	1.82	Outcome1	1.68	-0.67	2.83175	Yes	n/a	2.3475056689342404	n/a	n/a	n/a	ShowChoice	Gain
331.458	1.0	0.012	937.667	48.0	2	1.68	0.0	18.0588	70.0	1.82	Outcome1	1.68	-0.67	2.83175	Yes	n/a	2.3475056689342404	n/a	n/a	n/a	ShowResult	Gain
332.478	3.692	0.02	938.687	48.0	2	1.68	0.0	18.0588	70.0	1.82	Outcome1	1.68	-0.67	2.83175	Yes	n/a	2.3475056689342404	n/a	n/a	n/a	ISITrial	Gain
336.189	2.832	0.019	942.398	48.0	2	1.68	0.0	18.0588	70.0	1.82	Outcome1	1.68	-0.67	2.83175	Yes	n/a	2.3475056689342404	n/a	n/a	n/a	TrialHappPreview	Gain
339.047	4.029	0.026	945.256	48.0	2	1.68	0.0	18.0588	70.0	1.82	Outcome1	1.68	-0.67	2.83175	Yes	n/a	2.3475056689342404	n/a	n/a	492.0	TrialHappiness	Gain
339.048	1.759	n/a	946.324	48.0	2	1.68	0.0	18.0588	70.0	1.82	Outcome1	1.68	-0.67	2.83175	Yes	n/a	2.3475056689342404	n/a	n/a	492.0	TrialHappinessSliderResponse	Gain
343.076	3.327	4.029	949.285	48.0	2	1.68	0.0	18.0588	70.0	1.82	Outcome1	1.68	-0.67	2.83175	Yes	n/a	2.3475056689342404	n/a	n/a	n/a	ISIRate	Gain
346.436	3.0	0.033	952.645	49.0	2	-8.05	0.0	17.0526	70.0	2.48	Outcome1	-8.05	9.3	0.0	No	2.0	-17.3469387755102	1.687	348.123	n/a	GetAnswer	Gain
348.141	4.0	0.018	954.35	49.0	2	-8.05	0.0	17.0526	70.0	2.48	Outcome1	-8.05	9.3	0.0	No	n/a	-17.3469387755102	n/a	n/a	n/a	ShowChoice	Gain
352.153	1.0	0.012	958.362	49.0	2	-8.05	0.0	17.0526	70.0	2.48	Outcome1	-8.05	9.3	0.0	No	n/a	-17.3469387755102	n/a	n/a	n/a	ShowResult	Gain
353.173	8.0	0.02	959.382	49.0	2	-8.05	0.0	17.0526	70.0	2.48	Outcome1	-8.05	9.3	0.0	No	n/a	-17.3469387755102	n/a	n/a	n/a	ISITrial	Gain
361.197	3.0	0.024	967.406	50.0	2	-7.33	1.0	16.1364	70.0	1.68	Outcome2	10.5	-7.33	3.54725	Yes	2.0	-17.8253968253968	2.942	364.139	n/a	GetAnswer	Loss
364.156	4.0	0.017	970.365	50.0	2	-7.33	1.0	16.1364	70.0	1.68	Outcome2	10.5	-7.33	3.54725	Yes	n/a	-17.8253968253968	n/a	n/a	n/a	ShowChoice	Loss
368.184	1.0	0.028	974.393	50.0	2	-7.33	1.0	16.1364	70.0	1.68	Outcome2	10.5	-7.33	3.54725	Yes	n/a	-17.8253968253968	n/a	n/a	n/a	ShowResult	Loss
369.204	7.537	0.02	975.413	50.0	2	-7.33	1.0	16.1364	70.0	1.68	Outcome2	10.5	-7.33	3.54725	Yes	n/a	-17.8253968253968	n/a	n/a	n/a	ISITrial	Loss
376.76	3.547	0.019	982.969	50.0	2	-7.33	1.0	16.1364	70.0	1.68	Outcome2	10.5	-7.33	3.54725	Yes	n/a	-17.8253968253968	n/a	n/a	n/a	TrialHappPreview	Loss
380.337	4.012	0.03	986.546	50.0	2	-7.33	1.0	16.1364	70.0	1.68	Outcome2	10.5	-7.33	3.54725	Yes	n/a	-17.8253968253968	n/a	n/a	488.0	TrialHappiness	Loss
380.338	2.746	n/a	987.319	50.0	2	-7.33	1.0	16.1364	70.0	1.68	Outcome2	10.5	-7.33	3.54725	Yes	n/a	-17.8253968253968	n/a	n/a	488.0	TrialHappinessSliderResponse	Loss
384.349	6.189	4.012	990.558	50.0	2	-7.33	1.0	16.1364	70.0	1.68	Outcome2	10.5	-7.33	3.54725	Yes	n/a	-17.8253968253968	n/a	n/a	n/a	ISIRate	Loss
390.568	3.0	0.03	996.777	51.0	2	1.98	0.0	16.3839	70.0	3.6	Outcome1	1.98	-0.65	0.0	No	2.0	2.6254724111867	1.569	392.137	n/a	GetAnswer	Gain
392.156	4.0	0.019	998.365	51.0	2	1.98	0.0	16.3839	70.0	3.6	Outcome1	1.98	-0.65	0.0	No	n/a	2.6254724111867	n/a	n/a	n/a	ShowChoice	Gain
396.168	1.0	0.012	1002.377	51.0	2	1.98	0.0	16.3839	70.0	3.6	Outcome1	1.98	-0.65	0.0	No	n/a	2.6254724111867	n/a	n/a	n/a	ShowResult	Gain
397.188	5.508	0.02	1003.397	51.0	2	1.98	0.0	16.3839	70.0	3.6	Outcome1	1.98	-0.65	0.0	No	n/a	2.6254724111867	n/a	n/a	n/a	ISITrial	Gain
402.721	3.0	0.025	1008.93	52.0	2	-17.01	-7.0	14.2576	70.0	1.0	Outcome2	1.7	-17.01	0.0	No	2.0	-18.7097505668934	1.937	404.658	n/a	GetAnswer	Mixed
404.677	4.0	0.019	1010.886	52.0	2	-17.01	-7.0	14.2576	70.0	1.0	Outcome2	1.7	-17.01	0.0	No	n/a	-18.7097505668934	n/a	n/a	n/a	ShowChoice	Mixed
408.689	1.0	0.012	1014.898	52.0	2	-17.01	-7.0	14.2576	70.0	1.0	Outcome2	1.7	-17.01	0.0	No	n/a	-18.7097505668934	n/a	n/a	n/a	ShowResult	Mixed
409.709	5.913	0.02	1015.918	52.0	2	-17.01	-7.0	14.2576	70.0	1.0	Outcome2	1.7	-17.01	0.0	No	n/a	-18.7097505668934	n/a	n/a	n/a	ISITrial	Mixed
415.643	3.0	0.021	1021.852	53.0	2	-13.88	-4.0	12.5226	70.0	2.48	Outcome1	-13.88	5.3	2.99675	Yes	2.0	-19.1836734693878	2.544	418.187	n/a	GetAnswer	Gain
418.217	4.0	0.03	1024.426	53.0	2	-13.88	-4.0	12.5226	70.0	2.48	Outcome1	-13.88	5.3	2.99675	Yes	n/a	-19.1836734693878	n/a	n/a	n/a	ShowChoice	Gain
422.246	1.0	0.029	1028.455	53.0	2	-13.88	-4.0	12.5226	70.0	2.48	Outcome1	-13.88	5.3	2.99675	Yes	n/a	-19.1836734693878	n/a	n/a	n/a	ShowResult	Gain
423.266	3.66	0.02	1029.475	53.0	2	-13.88	-4.0	12.5226	70.0	2.48	Outcome1	-13.88	5.3	2.99675	Yes	n/a	-19.1836734693878	n/a	n/a	n/a	ISITrial	Gain
426.943	2.997	0.017	1033.152	53.0	2	-13.88	-4.0	12.5226	70.0	2.48	Outcome1	-13.88	5.3	2.99675	Yes	n/a	-19.1836734693878	n/a	n/a	n/a	TrialHappPreview	Gain
429.969	4.029	0.029	1036.178	53.0	2	-13.88	-4.0	12.5226	70.0	2.48	Outcome1	-13.88	5.3	2.99675	Yes	n/a	-19.1836734693878	n/a	n/a	400.0	TrialHappiness	Gain
429.97	2.526	n/a	1037.182	53.0	2	-13.88	-4.0	12.5226	70.0	2.48	Outcome1	-13.88	5.3	2.99675	Yes	n/a	-19.1836734693878	n/a	n/a	400.0	TrialHappinessSliderResponse	Gain
433.998	3.987	4.029	1040.207	53.0	2	-13.88	-4.0	12.5226	70.0	2.48	Outcome1	-13.88	5.3	2.99675	Yes	n/a	-19.1836734693878	n/a	n/a	n/a	ISIRate	Gain
438.01	3.0	0.025	1044.219	54.0	2	-4.0	-4.0	12.0226	70.0	2.22	Certain	-13.06	5.1	0.0	No	4.0	-18.1609977324263	2.183	440.193	n/a	GetAnswer	Gain
440.216	4.0	0.023	1046.425	54.0	2	-4.0	-4.0	12.0226	70.0	2.22	Certain	-13.06	5.1	0.0	No	n/a	-18.1609977324263	n/a	n/a	n/a	ShowChoice	Gain
444.228	1.0	0.012	1050.437	54.0	2	-4.0	-4.0	12.0226	70.0	2.22	Certain	-13.06	5.1	0.0	No	n/a	-18.1609977324263	n/a	n/a	n/a	ShowResult	Gain
445.248	8.0	0.02	1051.457	54.0	2	-4.0	-4.0	12.0226	70.0	2.22	Certain	-13.06	5.1	0.0	No	n/a	-18.1609977324263	n/a	n/a	n/a	ISITrial	Gain
483.881	3.222	n/a	1090.58	n/a	2	n/a	n/a	n/a	n/a	n/a	n/a	n/a	n/a	n/a	n/a	n/a	n/a	n/a	n/a	516.0	BlockStartHappinessSliderResponse	n/a
-52.373	-0.001	0.024	1059.481	n/a	3	n/a	n/a	n/a	n/a	n/a	n/a	n/a	n/a	n/a	n/a	{SPACE}	n/a	26.577	-25.796	n/a	Rest	n/a
-25.777	4.0	0.019	1086.077	n/a	3	n/a	n/a	n/a	n/a	n/a	n/a	n/a	n/a	n/a	n/a	n/a	n/a	n/a	n/a	n/a	BlockHappyPreview	n/a
-21.765	3.712	0.012	1090.089	n/a	3	n/a	n/a	n/a	n/a	n/a	n/a	n/a	n/a	n/a	n/a	n/a	n/a	n/a	n/a	516.0	BlockStartHappiness	n/a
-1.604	-0.001	0.016	1110.25	n/a	3	n/a	n/a	n/a	n/a	n/a	n/a	n/a	n/a	n/a	n/a	5.0	n/a	1.592	-0.012	n/a	ScanWait	n/a
0.0	10.0	0.012	1111.854	n/a	3	n/a	n/a	n/a	n/a	n/a	n/a	n/a	n/a	n/a	n/a	n/a	n/a	n/a	n/a	n/a	GetReady	n/a
10.014	3.0	0.014	1121.868	55.0	3	2.92	1.46	12.3876	955.0	1.82	Outcome1	2.92	4.7	2.53325	Yes	2.0	-1.78152132880332	1.262	11.276	n/a	GetAnswer	Gain
11.301	4.0	0.025	1123.155	55.0	3	2.92	1.46	12.3876	955.0	1.82	Outcome1	2.92	4.7	2.53325	Yes	n/a	-1.78152132880332	n/a	n/a	n/a	ShowChoice	Gain
15.313	1.0	0.012	1127.167	55.0	3	2.92	1.46	12.3876	955.0	1.82	Outcome1	2.92	4.7	2.53325	Yes	n/a	-1.78152132880332	n/a	n/a	n/a	ShowResult	Gain
16.333	7.709	0.02	1128.187	55.0	3	2.92	1.46	12.3876	955.0	1.82	Outcome1	2.92	4.7	2.53325	Yes	n/a	-1.78152132880332	n/a	n/a	n/a	ISITrial	Gain
24.056	2.533	0.014	1135.91	55.0	3	2.92	1.46	12.3876	955.0	1.82	Outcome1	2.92	4.7	2.53325	Yes	n/a	-1.78152132880332	n/a	n/a	n/a	TrialHappPreview	Gain
26.613	4.012	0.024	1138.467	55.0	3	2.92	1.46	12.3876	955.0	1.82	Outcome1	2.92	4.7	2.53325	Yes	n/a	-1.78152132880332	n/a	n/a	480.0	TrialHappiness	Gain
26.614	0.215	n/a	1142.239	55.0	3	2.92	1.46	12.3876	955.0	1.82	Outcome1	2.92	4.7	2.53325	Yes	n/a	-1.78152132880332	n/a	n/a	480.0	TrialHappinessSliderResponse	Gain
30.625	2.133	4.012	1142.479	55.0	3	2.92	1.46	12.3876	955.0	1.82	Outcome1	2.92	4.7	2.53325	Yes	n/a	-1.78152132880332	n/a	n/a	n/a	ISIRate	Gain
32.782	3.0	0.024	1144.636	56.0	3	3.3	-1.0	12.8001	955.0	0.66	Outcome2	-5.27	3.3	0.0	No	2.0	8.56625141562854	2.096	34.878	n/a	GetAnswer	Mixed
34.905	4.0	0.027	1146.759	56.0	3	3.3	-1.0	12.8001	955.0	0.66	Outcome2	-5.27	3.3	0.0	No	n/a	8.56625141562854	n/a	n/a	n/a	ShowChoice	Mixed
38.917	1.0	0.012	1150.771	56.0	3	3.3	-1.0	12.8001	955.0	0.66	Outcome2	-5.27	3.3	0.0	No	n/a	8.56625141562854	n/a	n/a	n/a	ShowResult	Mixed
39.937	4.697	0.02	1151.791	56.0	3	3.3	-1.0	12.8001	955.0	0.66	Outcome2	-5.27	3.3	0.0	No	n/a	8.56625141562854	n/a	n/a	n/a	ISITrial	Mixed
44.651	3.0	0.017	1156.505	57.0	3	1.9	-2.0	13.0376	955.0	1.2	Outcome1	1.9	-7.2	0.0	No	2.0	9.104190260475647	2.069	46.72	n/a	GetAnswer	Mixed
46.74	4.0	0.02	1158.594	57.0	3	1.9	-2.0	13.0376	955.0	1.2	Outcome1	1.9	-7.2	0.0	No	n/a	9.104190260475647	n/a	n/a	n/a	ShowChoice	Mixed
50.752	1.0	0.012	1162.606	57.0	3	1.9	-2.0	13.0376	955.0	1.2	Outcome1	1.9	-7.2	0.0	No	n/a	9.104190260475647	n/a	n/a	n/a	ShowResult	Mixed
51.772	4.291	0.02	1163.626	57.0	3	1.9	-2.0	13.0376	955.0	1.2	Outcome1	1.9	-7.2	0.0	No	n/a	9.104190260475647	n/a	n/a	n/a	ISITrial	Mixed
56.085	3.0	0.022	1167.939	58.0	3	4.1	0.0	13.5501	955.0	1.5	Outcome2	-5.54	4.1	3.04575	Yes	2.0	9.64212910532276	2.0	58.085	n/a	GetAnswer	Mixed
58.108	4.0	0.023	1169.962	58.0	3	4.1	0.0	13.5501	955.0	1.5	Outcome2	-5.54	4.1	3.04575	Yes	n/a	9.64212910532276	n/a	n/a	n/a	ShowChoice	Mixed
62.12	1.0	0.012	1173.974	58.0	3	4.1	0.0	13.5501	955.0	1.5	Outcome2	-5.54	4.1	3.04575	Yes	n/a	9.64212910532276	n/a	n/a	n/a	ShowResult	Mixed
63.139	2.037	0.019	1174.993	58.0	3	4.1	0.0	13.5501	955.0	1.5	Outcome2	-5.54	4.1	3.04575	Yes	n/a	9.64212910532276	n/a	n/a	n/a	ISITrial	Mixed
65.195	3.046	0.019	1177.049	58.0	3	4.1	0.0	13.5501	955.0	1.5	Outcome2	-5.54	4.1	3.04575	Yes	n/a	9.64212910532276	n/a	n/a	n/a	TrialHappPreview	Mixed
68.271	4.012	0.03	1180.125	58.0	3	4.1	0.0	13.5501	955.0	1.5	Outcome2	-5.54	4.1	3.04575	Yes	n/a	9.64212910532276	n/a	n/a	520.0	TrialHappiness	Mixed
68.272	2.198	n/a	1181.713	58.0	3	4.1	0.0	13.5501	955.0	1.5	Outcome2	-5.54	4.1	3.04575	Yes	n/a	9.64212910532276	n/a	n/a	520.0	TrialHappinessSliderResponse	Mixed
72.283	4.183	4.012	1184.137	58.0	3	4.1	0.0	13.5501	955.0	1.5	Outcome2	-5.54	4.1	3.04575	Yes	n/a	9.64212910532276	n/a	n/a	n/a	ISIRate	Mixed
76.496	3.0	0.03	1188.35	59.0	3	11.1	0.8	14.9376	955.0	2.22	Outcome2	1.6	11.1	0.0	No	2.0	9.50056625141563	1.232	77.728	n/a	GetAnswer	Loss
77.75	4.0	0.022	1189.604	59.0	3	11.1	0.8	14.9376	955.0	2.22	Outcome2	1.6	11.1	0.0	No	n/a	9.50056625141563	n/a	n/a	n/a	ShowChoice	Loss
81.762	1.0	0.012	1193.616	59.0	3	11.1	0.8	14.9376	955.0	2.22	Outcome2	1.6	11.1	0.0	No	n/a	9.50056625141563	n/a	n/a	n/a	ShowResult	Loss
82.781	5.064	0.019	1194.635	59.0	3	11.1	0.8	14.9376	955.0	2.22	Outcome2	1.6	11.1	0.0	No	n/a	9.50056625141563	n/a	n/a	n/a	ISITrial	Loss
87.863	3.0	0.018	1199.717	60.0	3	13.5	1.76	16.6251	955.0	2.8	Outcome2	3.51	13.5	3.5625	Yes	2.0	9.99320498301246	1.076	88.939	n/a	GetAnswer	Loss
88.966	4.0	0.027	1200.82	60.0	3	13.5	1.76	16.6251	955.0	2.8	Outcome2	3.51	13.5	3.5625	Yes	n/a	9.99320498301246	n/a	n/a	n/a	ShowChoice	Loss
92.978	1.0	0.012	1204.832	60.0	3	13.5	1.76	16.6251	955.0	2.8	Outcome2	3.51	13.5	3.5625	Yes	n/a	9.99320498301246	n/a	n/a	n/a	ShowResult	Loss
93.998	8.0	0.02	1205.852	60.0	3	13.5	1.76	16.6251	955.0	2.8	Outcome2	3.51	13.5	3.5625	Yes	n/a	9.99320498301246	n/a	n/a	n/a	ISITrial	Loss
102.022	3.562	0.024	1213.876	60.0	3	13.5	1.76	16.6251	955.0	2.8	Outcome2	3.51	13.5	3.5625	Yes	n/a	9.99320498301246	n/a	n/a	n/a	TrialHappPreview	Loss
105.599	4.013	0.015	1217.453	60.0	3	13.5	1.76	16.6251	955.0	2.8	Outcome2	3.51	13.5	3.5625	Yes	n/a	9.99320498301246	n/a	n/a	552.0	TrialHappiness	Loss
105.6	0.234	n/a	1218.733	60.0	3	13.5	1.76	16.6251	955.0	2.8	Outcome2	3.51	13.5	3.5625	Yes	n/a	9.99320498301246	n/a	n/a	552.0	TrialHappinessSliderResponse	Loss
109.612	6.25	4.013	1221.466	60.0	3	13.5	1.76	16.6251	955.0	2.8	Outcome2	3.51	13.5	3.5625	Yes	n/a	9.99320498301246	n/a	n/a	n/a	ISIRate	Loss
115.88	3.0	0.018	1227.734	61.0	3	1.5	-3.0	16.8126	955.0	0.82	Outcome2	-8.44	1.5	0.0	No	2.0	9.94224235560589	1.962	117.842	n/a	GetAnswer	Mixed
117.87	4.0	0.028	1229.724	61.0	3	1.5	-3.0	16.8126	955.0	0.82	Outcome2	-8.44	1.5	0.0	No	n/a	9.94224235560589	n/a	n/a	n/a	ShowChoice	Mixed
121.882	1.0	0.012	1233.736	61.0	3	1.5	-3.0	16.8126	955.0	0.82	Outcome2	-8.44	1.5	0.0	No	n/a	9.94224235560589	n/a	n/a	n/a	ShowResult	Mixed
122.901	4.586	0.019	1234.755	61.0	3	1.5	-3.0	16.8126	955.0	0.82	Outcome2	-8.44	1.5	0.0	No	n/a	9.94224235560589	n/a	n/a	n/a	ISITrial	Mixed
127.515	3.0	0.028	1239.369	62.0	3	8.7	-0.85	17.9001	955.0	1.82	Outcome2	-1.7	8.7	3.74875	Yes	2.0	10.3986409966025	1.38	128.895	n/a	GetAnswer	Gain
128.919	4.0	0.024	1240.773	62.0	3	8.7	-0.85	17.9001	955.0	1.82	Outcome2	-1.7	8.7	3.74875	Yes	n/a	10.3986409966025	n/a	n/a	n/a	ShowChoice	Gain
132.931	1.0	0.012	1244.785	62.0	3	8.7	-0.85	17.9001	955.0	1.82	Outcome2	-1.7	8.7	3.74875	Yes	n/a	10.3986409966025	n/a	n/a	n/a	ShowResult	Gain
133.951	5.212	0.02	1245.805	62.0	3	8.7	-0.85	17.9001	955.0	1.82	Outcome2	-1.7	8.7	3.74875	Yes	n/a	10.3986409966025	n/a	n/a	n/a	ISITrial	Gain
139.183	3.749	0.02	1251.037	62.0	3	8.7	-0.85	17.9001	955.0	1.82	Outcome2	-1.7	8.7	3.74875	Yes	n/a	10.3986409966025	n/a	n/a	n/a	TrialHappPreview	Gain
142.961	4.012	0.029	1254.815	62.0	3	8.7	-0.85	17.9001	955.0	1.82	Outcome2	-1.7	8.7	3.74875	Yes	n/a	10.3986409966025	n/a	n/a	544.0	TrialHappiness	Gain
142.962	2.009	n/a	1255.684	62.0	3	8.7	-0.85	17.9001	955.0	1.82	Outcome2	-1.7	8.7	3.74875	Yes	n/a	10.3986409966025	n/a	n/a	544.0	TrialHappinessSliderResponse	Gain
146.973	6.995	4.012	1258.827	62.0	3	8.7	-0.85	17.9001	955.0	1.82	Outcome2	-1.7	8.7	3.74875	Yes	n/a	10.3986409966025	n/a	n/a	n/a	ISIRate	Gain
153.994	3.0	0.026	1265.848	63.0	3	-5.0	-5.0	17.2751	955.0	0.3	Certain	-10.29	0.7	0.0	No	4.0	10.9909399773499	1.581	155.575	n/a	GetAnswer	Mixed
155.599	4.0	0.024	1267.453	63.0	3	-5.0	-5.0	17.2751	955.0	0.3	Certain	-10.29	0.7	0.0	No	n/a	10.9909399773499	n/a	n/a	n/a	ShowChoice	Mixed
159.611	1.0	0.012	1271.465	63.0	3	-5.0	-5.0	17.2751	955.0	0.3	Certain	-10.29	0.7	0.0	No	n/a	10.9909399773499	n/a	n/a	n/a	ShowResult	Mixed
160.631	5.595	0.02	1272.485	63.0	3	-5.0	-5.0	17.2751	955.0	0.3	Certain	-10.29	0.7	0.0	No	n/a	10.9909399773499	n/a	n/a	n/a	ISITrial	Mixed
166.248	3.0	0.022	1278.102	64.0	3	10.9	-0.28	18.6376	955.0	2.0	Outcome2	-0.56	10.9	0.0	No	2.0	11.4563986409966	1.447	167.695	n/a	GetAnswer	Loss
167.719	4.0	0.024	1279.573	64.0	3	10.9	-0.28	18.6376	955.0	2.0	Outcome2	-0.56	10.9	0.0	No	n/a	11.4563986409966	n/a	n/a	n/a	ShowChoice	Loss
171.731	1.0	0.012	1283.585	64.0	3	10.9	-0.28	18.6376	955.0	2.0	Outcome2	-0.56	10.9	0.0	No	n/a	11.4563986409966	n/a	n/a	n/a	ShowResult	Loss
172.75	5.47	0.019	1284.604	64.0	3	10.9	-0.28	18.6376	955.0	2.0	Outcome2	-0.56	10.9	0.0	No	n/a	11.4563986409966	n/a	n/a	n/a	ISITrial	Loss
178.25	3.0	0.03	1290.104	65.0	3	10.42	5.21	19.9401	955.0	1.68	Outcome2	12.5	10.42	2.99675	Yes	2.0	-2.0795583238958097	1.153	179.403	n/a	GetAnswer	Loss
179.42	4.0	0.017	1291.274	65.0	3	10.42	5.21	19.9401	955.0	1.68	Outcome2	12.5	10.42	2.99675	Yes	n/a	-2.0795583238958097	n/a	n/a	n/a	ShowChoice	Loss
183.432	1.0	0.012	1295.286	65.0	3	10.42	5.21	19.9401	955.0	1.68	Outcome2	12.5	10.42	2.99675	Yes	n/a	-2.0795583238958097	n/a	n/a	n/a	ShowResult	Loss
184.452	3.344	0.02	1296.306	65.0	3	10.42	5.21	19.9401	955.0	1.68	Outcome2	12.5	10.42	2.99675	Yes	n/a	-2.0795583238958097	n/a	n/a	n/a	ISITrial	Loss
187.812	2.997	0.016	1299.666	65.0	3	10.42	5.21	19.9401	955.0	1.68	Outcome2	12.5	10.42	2.99675	Yes	n/a	-2.0795583238958097	n/a	n/a	n/a	TrialHappPreview	Loss
190.838	4.012	0.029	1302.692	65.0	3	10.42	5.21	19.9401	955.0	1.68	Outcome2	12.5	10.42	2.99675	Yes	n/a	-2.0795583238958097	n/a	n/a	488.0	TrialHappiness	Loss
190.838	3.245	n/a	1303.065	65.0	3	10.42	5.21	19.9401	955.0	1.68	Outcome2	12.5	10.42	2.99675	Yes	n/a	-2.0795583238958097	n/a	n/a	488.0	TrialHappinessSliderResponse	Loss
194.85	3.987	4.012	1306.704	65.0	3	10.42	5.21	19.9401	955.0	1.68	Outcome2	12.5	10.42	2.99675	Yes	n/a	-2.0795583238958097	n/a	n/a	n/a	ISIRate	Loss
198.862	3.0	0.025	1310.716	66.0	3	-2.05	-1.0	19.6838	955.0	2.0	Outcome2	0.3	-2.05	0.0	No	2.0	-2.34560211400529	2.571	201.433	n/a	GetAnswer	Mixed
201.453	4.0	0.02	1313.307	66.0	3	-2.05	-1.0	19.6838	955.0	2.0	Outcome2	0.3	-2.05	0.0	No	n/a	-2.34560211400529	n/a	n/a	n/a	ShowChoice	Mixed
205.465	1.0	0.012	1317.319	66.0	3	-2.05	-1.0	19.6838	955.0	2.0	Outcome2	0.3	-2.05	0.0	No	n/a	-2.34560211400529	n/a	n/a	n/a	ShowResult	Mixed
206.484	3.959	0.019	1318.338	66.0	3	-2.05	-1.0	19.6838	955.0	2.0	Outcome2	0.3	-2.05	0.0	No	n/a	-2.34560211400529	n/a	n/a	n/a	ISITrial	Mixed
210.463	3.0	0.02	1322.317	67.0	3	12.3	-0.78	21.2213	955.0	5.0	Outcome2	-1.57	12.3	2.9185	Yes	2.0	13.8674971687429	1.494	211.957	n/a	GetAnswer	Loss
211.984	4.0	0.027	1323.838	67.0	3	12.3	-0.78	21.2213	955.0	5.0	Outcome2	-1.57	12.3	2.9185	Yes	n/a	13.8674971687429	n/a	n/a	n/a	ShowChoice	Loss
215.996	1.0	0.012	1327.85	67.0	3	12.3	-0.78	21.2213	955.0	5.0	Outcome2	-1.57	12.3	2.9185	Yes	n/a	13.8674971687429	n/a	n/a	n/a	ShowResult	Loss
217.016	4.199	0.02	1328.87	67.0	3	12.3	-0.78	21.2213	955.0	5.0	Outcome2	-1.57	12.3	2.9185	Yes	n/a	13.8674971687429	n/a	n/a	n/a	ISITrial	Loss
221.229	2.918	0.014	1333.083	67.0	3	12.3	-0.78	21.2213	955.0	5.0	Outcome2	-1.57	12.3	2.9185	Yes	n/a	13.8674971687429	n/a	n/a	n/a	TrialHappPreview	Loss
224.171	4.012	0.024	1336.025	67.0	3	12.3	-0.78	21.2213	955.0	5.0	Outcome2	-1.57	12.3	2.9185	Yes	n/a	13.8674971687429	n/a	n/a	568.0	TrialHappiness	Loss
224.171	2.582	n/a	1336.25	67.0	3	12.3	-0.78	21.2213	955.0	5.0	Outcome2	-1.57	12.3	2.9185	Yes	n/a	13.8674971687429	n/a	n/a	568.0	TrialHappinessSliderResponse	Loss
228.183	3.674	4.012	1340.037	67.0	3	12.3	-0.78	21.2213	955.0	5.0	Outcome2	-1.57	12.3	2.9185	Yes	n/a	13.8674971687429	n/a	n/a	n/a	ISIRate	Loss
231.877	3.0	0.02	1343.731	68.0	3	3.9	-2.0	21.7088	955.0	1.2	Outcome2	-9.14	3.9	0.0	No	2.0	13.0373725934315	1.672	233.549	n/a	GetAnswer	Mixed
233.565	4.0	0.016	1345.419	68.0	3	3.9	-2.0	21.7088	955.0	1.2	Outcome2	-9.14	3.9	0.0	No	n/a	13.0373725934315	n/a	n/a	n/a	ShowChoice	Mixed
237.577	1.0	0.012	1349.431	68.0	3	3.9	-2.0	21.7088	955.0	1.2	Outcome2	-9.14	3.9	0.0	No	n/a	13.0373725934315	n/a	n/a	n/a	ShowResult	Mixed
238.597	2.185	0.02	1350.451	68.0	3	3.9	-2.0	21.7088	955.0	1.2	Outcome2	-9.14	3.9	0.0	No	n/a	13.0373725934315	n/a	n/a	n/a	ISITrial	Mixed
240.804	3.0	0.022	1352.658	69.0	3	8.1	1.0	22.7213	955.0	4.2	Outcome1	8.1	-5.38	0.0	No	2.0	13.475651189128	2.093	242.897	n/a	GetAnswer	Gain
242.91	4.0	0.013	1354.764	69.0	3	8.1	1.0	22.7213	955.0	4.2	Outcome1	8.1	-5.38	0.0	No	n/a	13.475651189128	n/a	n/a	n/a	ShowChoice	Gain
246.922	1.0	0.012	1358.776	69.0	3	8.1	1.0	22.7213	955.0	4.2	Outcome1	8.1	-5.38	0.0	No	n/a	13.475651189128	n/a	n/a	n/a	ShowResult	Gain
247.942	2.0	0.02	1359.796	69.0	3	8.1	1.0	22.7213	955.0	4.2	Outcome1	8.1	-5.38	0.0	No	n/a	13.475651189128	n/a	n/a	n/a	ISITrial	Gain
249.964	3.0	0.022	1361.818	70.0	3	0.72	2.0	22.8113	955.0	0.4	Outcome2	2.9	0.72	3.65125	Yes	2.0	-2.18214420536051	1.173	251.137	n/a	GetAnswer	Mixed
251.151	4.0	0.014	1363.005	70.0	3	0.72	2.0	22.8113	955.0	0.4	Outcome2	2.9	0.72	3.65125	Yes	n/a	-2.18214420536051	n/a	n/a	n/a	ShowChoice	Mixed
255.163	1.0	0.012	1367.017	70.0	3	0.72	2.0	22.8113	955.0	0.4	Outcome2	2.9	0.72	3.65125	Yes	n/a	-2.18214420536051	n/a	n/a	n/a	ShowResult	Mixed
256.183	2.623	0.02	1368.037	70.0	3	0.72	2.0	22.8113	955.0	0.4	Outcome2	2.9	0.72	3.65125	Yes	n/a	-2.18214420536051	n/a	n/a	n/a	ISITrial	Mixed
258.824	3.651	0.018	1370.678	70.0	3	0.72	2.0	22.8113	955.0	0.4	Outcome2	2.9	0.72	3.65125	Yes	n/a	-2.18214420536051	n/a	n/a	n/a	TrialHappPreview	Mixed
262.502	4.012	0.027	1374.356	70.0	3	0.72	2.0	22.8113	955.0	0.4	Outcome2	2.9	0.72	3.65125	Yes	{-2}2{-2}4{-4}4{-4}	-2.18214420536051	3.718	266.22	560.0	TrialHappiness	Mixed
262.503	2.235	n/a	1375.84	70.0	3	0.72	2.0	22.8113	955.0	0.4	Outcome2	2.9	0.72	3.65125	Yes	n/a	-2.18214420536051	n/a	n/a	560.0	TrialHappinessSliderResponse	Mixed
266.514	6.605	4.012	1378.368	70.0	3	0.72	2.0	22.8113	955.0	0.4	Outcome2	2.9	0.72	3.65125	Yes	n/a	-2.18214420536051	n/a	n/a	n/a	ISIRate	Mixed
273.134	3.0	0.015	1384.988	71.0	3	0.25	1.0	22.8425	955.0	0.2	Outcome1	0.25	2.5	0.0	No	2.0	-2.25113250283126	1.228	274.362	n/a	GetAnswer	Mixed
274.388	4.0	0.026	1386.242	71.0	3	0.25	1.0	22.8425	955.0	0.2	Outcome1	0.25	2.5	0.0	No	n/a	-2.25113250283126	n/a	n/a	n/a	ShowChoice	Mixed
278.4	1.0	0.012	1390.254	71.0	3	0.25	1.0	22.8425	955.0	0.2	Outcome1	0.25	2.5	0.0	No	n/a	-2.25113250283126	n/a	n/a	n/a	ShowResult	Mixed
279.419	5.499	0.019	1391.273	71.0	3	0.25	1.0	22.8425	955.0	0.2	Outcome1	0.25	2.5	0.0	No	n/a	-2.25113250283126	n/a	n/a	n/a	ISITrial	Mixed
284.936	3.0	0.018	1396.79	72.0	3	-2.0	-2.0	22.5925	955.0	0.66	Certain	-2.99	-0.7	3.0805	Yes	4.0	-2.2884107210268	1.954	286.89	n/a	GetAnswer	Mixed
286.908	4.0	0.018	1398.762	72.0	3	-2.0	-2.0	22.5925	955.0	0.66	Certain	-2.99	-0.7	3.0805	Yes	n/a	-2.2884107210268	n/a	n/a	n/a	ShowChoice	Mixed
290.92	1.0	0.012	1402.774	72.0	3	-2.0	-2.0	22.5925	955.0	0.66	Certain	-2.99	-0.7	3.0805	Yes	n/a	-2.2884107210268	n/a	n/a	n/a	ShowResult	Mixed
291.94	5.672	0.02	1403.794	72.0	3	-2.0	-2.0	22.5925	955.0	0.66	Certain	-2.99	-0.7	3.0805	Yes	n/a	-2.2884107210268	n/a	n/a	n/a	ISITrial	Mixed
297.624	3.08	0.012	1409.478	72.0	3	-2.0	-2.0	22.5925	955.0	0.66	Certain	-2.99	-0.7	3.0805	Yes	n/a	-2.2884107210268	n/a	n/a	n/a	TrialHappPreview	Mixed
300.733	4.012	0.029	1412.587	72.0	3	-2.0	-2.0	22.5925	955.0	0.66	Certain	-2.99	-0.7	3.0805	Yes	n/a	-2.2884107210268	n/a	n/a	544.0	TrialHappiness	Mixed
300.734	3.663	n/a	1412.859	72.0	3	-2.0	-2.0	22.5925	955.0	0.66	Certain	-2.99	-0.7	3.0805	Yes	n/a	-2.2884107210268	n/a	n/a	544.0	TrialHappinessSliderResponse	Mixed
304.745	4.322	4.012	1416.599	72.0	3	-2.0	-2.0	22.5925	955.0	0.66	Certain	-2.99	-0.7	3.0805	Yes	n/a	-2.2884107210268	n/a	n/a	n/a	ISIRate	Mixed
309.091	3.0	0.024	1420.945	73.0	3	2.7	-5.0	22.93	955.0	0.3	Outcome2	-12.95	2.7	0.0	No	2.0	15.6545866364666	1.961	311.052	n/a	GetAnswer	Mixed
311.064	4.0	0.012	1422.918	73.0	3	2.7	-5.0	22.93	955.0	0.3	Outcome2	-12.95	2.7	0.0	No	n/a	15.6545866364666	n/a	n/a	n/a	ShowChoice	Mixed
315.076	1.0	0.012	1426.93	73.0	3	2.7	-5.0	22.93	955.0	0.3	Outcome2	-12.95	2.7	0.0	No	n/a	15.6545866364666	n/a	n/a	n/a	ShowResult	Mixed
316.096	4.616	0.02	1427.95	73.0	3	2.7	-5.0	22.93	955.0	0.3	Outcome2	-12.95	2.7	0.0	No	n/a	15.6545866364666	n/a	n/a	n/a	ISITrial	Mixed
320.743	3.0	0.031	1432.597	74.0	3	13.1	-1.51	24.5675	955.0	2.22	Outcome1	13.1	-3.02	3.05625	Yes	2.0	16.1200453001133	1.151	321.894	n/a	GetAnswer	Loss
321.913	4.0	0.019	1433.767	74.0	3	13.1	-1.51	24.5675	955.0	2.22	Outcome1	13.1	-3.02	3.05625	Yes	n/a	16.1200453001133	n/a	n/a	n/a	ShowChoice	Loss
325.925	1.0	0.012	1437.779	74.0	3	13.1	-1.51	24.5675	955.0	2.22	Outcome1	13.1	-3.02	3.05625	Yes	n/a	16.1200453001133	n/a	n/a	n/a	ShowResult	Loss
326.945	3.909	0.02	1438.799	74.0	3	13.1	-1.51	24.5675	955.0	2.22	Outcome1	13.1	-3.02	3.05625	Yes	n/a	16.1200453001133	n/a	n/a	n/a	ISITrial	Loss
330.873	3.056	0.019	1442.727	74.0	3	13.1	-1.51	24.5675	955.0	2.22	Outcome1	13.1	-3.02	3.05625	Yes	n/a	16.1200453001133	n/a	n/a	n/a	TrialHappPreview	Loss
333.949	4.012	0.02	1445.803	74.0	3	13.1	-1.51	24.5675	955.0	2.22	Outcome1	13.1	-3.02	3.05625	Yes	n/a	16.1200453001133	n/a	n/a	552.0	TrialHappiness	Loss
333.95	1.635	n/a	1446.099	74.0	3	13.1	-1.51	24.5675	955.0	2.22	Outcome1	13.1	-3.02	3.05625	Yes	n/a	16.1200453001133	n/a	n/a	552.0	TrialHappinessSliderResponse	Loss
337.961	4.225	4.012	1449.815	74.0	3	13.1	-1.51	24.5675	955.0	2.22	Outcome1	13.1	-3.02	3.05625	Yes	n/a	16.1200453001133	n/a	n/a	n/a	ISIRate	Loss
342.207	3.0	0.021	1454.061	75.0	3	3.46	1.73	25.0	955.0	3.6	Outcome1	3.46	5.9	0.0	No	2.0	-2.43573046432616	1.067	343.274	n/a	GetAnswer	Gain
343.294	4.0	0.02	1455.148	75.0	3	3.46	1.73	25.0	955.0	3.6	Outcome1	3.46	5.9	0.0	No	n/a	-2.43573046432616	n/a	n/a	n/a	ShowChoice	Gain
347.306	1.0	0.012	1459.16	75.0	3	3.46	1.73	25.0	955.0	3.6	Outcome1	3.46	5.9	0.0	No	n/a	-2.43573046432616	n/a	n/a	n/a	ShowResult	Gain
348.325	4.979	0.019	1460.179	75.0	3	3.46	1.73	25.0	955.0	3.6	Outcome1	3.46	5.9	0.0	No	n/a	-2.43573046432616	n/a	n/a	n/a	ISITrial	Gain
353.324	3.0	0.02	1465.178	76.0	3	7.3	-1.0	25.9125	955.0	2.48	Outcome1	7.3	-9.61	0.0	No	2.0	16.906002265005696	1.742	355.066	n/a	GetAnswer	Gain
355.079	4.0	0.013	1466.933	76.0	3	7.3	-1.0	25.9125	955.0	2.48	Outcome1	7.3	-9.61	0.0	No	n/a	16.906002265005696	n/a	n/a	n/a	ShowChoice	Gain
359.091	1.0	0.012	1470.945	76.0	3	7.3	-1.0	25.9125	955.0	2.48	Outcome1	7.3	-9.61	0.0	No	n/a	16.906002265005696	n/a	n/a	n/a	ShowResult	Gain
360.11	3.931	0.019	1471.964	76.0	3	7.3	-1.0	25.9125	955.0	2.48	Outcome1	7.3	-9.61	0.0	No	n/a	16.906002265005696	n/a	n/a	n/a	ISITrial	Gain
364.072	3.0	0.031	1475.926	77.0	3	-1.5	-10.0	25.725	955.0	0.2	Outcome1	-1.5	-18.86	4.0	Yes	2.0	17.3624009060023	2.39	366.462	n/a	GetAnswer	Mixed
366.48	4.0	0.018	1478.334	77.0	3	-1.5	-10.0	25.725	955.0	0.2	Outcome1	-1.5	-18.86	4.0	Yes	n/a	17.3624009060023	n/a	n/a	n/a	ShowChoice	Mixed
370.492	1.0	0.012	1482.346	77.0	3	-1.5	-10.0	25.725	955.0	0.2	Outcome1	-1.5	-18.86	4.0	Yes	n/a	17.3624009060023	n/a	n/a	n/a	ShowResult	Mixed
371.511	7.022	0.019	1483.365	77.0	3	-1.5	-10.0	25.725	955.0	0.2	Outcome1	-1.5	-18.86	4.0	Yes	n/a	17.3624009060023	n/a	n/a	n/a	ISITrial	Mixed
378.549	4.0	0.016	1490.403	77.0	3	-1.5	-10.0	25.725	955.0	0.2	Outcome1	-1.5	-18.86	4.0	Yes	n/a	17.3624009060023	n/a	n/a	n/a	TrialHappPreview	Mixed
382.578	4.012	0.029	1494.432	77.0	3	-1.5	-10.0	25.725	955.0	0.2	Outcome1	-1.5	-18.86	4.0	Yes	n/a	17.3624009060023	n/a	n/a	508.0	TrialHappiness	Mixed
382.578	2.708	n/a	1495.409	77.0	3	-1.5	-10.0	25.725	955.0	0.2	Outcome1	-1.5	-18.86	4.0	Yes	n/a	17.3624009060023	n/a	n/a	508.0	TrialHappinessSliderResponse	Mixed
386.59	8.0	4.012	1498.444	77.0	3	-1.5	-10.0	25.725	955.0	0.2	Outcome1	-1.5	-18.86	4.0	Yes	n/a	17.3624009060023	n/a	n/a	n/a	ISIRate	Mixed
394.614	3.0	0.024	1506.468	78.0	3	12.7	-2.94	27.3125	955.0	1.82	Outcome2	-5.87	12.7	0.0	No	2.0	18.5662514156285	1.617	396.231	n/a	GetAnswer	Loss
396.252	4.0	0.021	1508.106	78.0	3	12.7	-2.94	27.3125	955.0	1.82	Outcome2	-5.87	12.7	0.0	No	n/a	18.5662514156285	n/a	n/a	n/a	ShowChoice	Loss
400.264	1.0	0.012	1512.118	78.0	3	12.7	-2.94	27.3125	955.0	1.82	Outcome2	-5.87	12.7	0.0	No	n/a	18.5662514156285	n/a	n/a	n/a	ShowResult	Loss
401.284	2.078	0.02	1513.138	78.0	3	12.7	-2.94	27.3125	955.0	1.82	Outcome2	-5.87	12.7	0.0	No	n/a	18.5662514156285	n/a	n/a	n/a	ISITrial	Loss
403.39	3.0	0.028	1515.244	79.0	3	13.1	-2.98	28.95	955.0	2.22	Outcome2	-5.97	13.1	2.7295	Yes	2.0	19.0724801812005	1.209	404.599	n/a	GetAnswer	Loss
404.627	4.0	0.028	1516.481	79.0	3	13.1	-2.98	28.95	955.0	2.22	Outcome2	-5.97	13.1	2.7295	Yes	n/a	19.0724801812005	n/a	n/a	n/a	ShowChoice	Loss
408.639	1.0	0.012	1520.493	79.0	3	13.1	-2.98	28.95	955.0	2.22	Outcome2	-5.97	13.1	2.7295	Yes	n/a	19.0724801812005	n/a	n/a	n/a	ShowResult	Loss
409.659	3.829	0.02	1521.513	79.0	3	13.1	-2.98	28.95	955.0	2.22	Outcome2	-5.97	13.1	2.7295	Yes	n/a	19.0724801812005	n/a	n/a	n/a	ISITrial	Loss
413.503	2.73	0.015	1525.357	79.0	3	13.1	-2.98	28.95	955.0	2.22	Outcome2	-5.97	13.1	2.7295	Yes	n/a	19.0724801812005	n/a	n/a	n/a	TrialHappPreview	Loss
416.262	4.012	0.029	1528.116	79.0	3	13.1	-2.98	28.95	955.0	2.22	Outcome2	-5.97	13.1	2.7295	Yes	n/a	19.0724801812005	n/a	n/a	448.0	TrialHappiness	Loss
416.262	3.225	n/a	1528.44	79.0	3	13.1	-2.98	28.95	955.0	2.22	Outcome2	-5.97	13.1	2.7295	Yes	n/a	19.0724801812005	n/a	n/a	448.0	TrialHappinessSliderResponse	Loss
420.274	2.918	4.012	1532.128	79.0	3	13.1	-2.98	28.95	955.0	2.22	Outcome2	-5.97	13.1	2.7295	Yes	n/a	19.0724801812005	n/a	n/a	n/a	ISIRate	Loss
423.216	3.0	0.024	1535.07	80.0	3	6.84	3.42	29.805	955.0	3.6	Outcome2	9.9	6.84	0.0	No	2.0	-3.0562476406191004	1.033	424.249	n/a	GetAnswer	Gain
424.269	4.0	0.02	1536.123	80.0	3	6.84	3.42	29.805	955.0	3.6	Outcome2	9.9	6.84	0.0	No	n/a	-3.0562476406191004	n/a	n/a	n/a	ShowChoice	Gain
428.281	1.0	0.012	1540.135	80.0	3	6.84	3.42	29.805	955.0	3.6	Outcome2	9.9	6.84	0.0	No	n/a	-3.0562476406191004	n/a	n/a	n/a	ShowResult	Gain
429.301	3.336	0.02	1541.155	80.0	3	6.84	3.42	29.805	955.0	3.6	Outcome2	9.9	6.84	0.0	No	n/a	-3.0562476406191004	n/a	n/a	n/a	ISITrial	Gain
432.661	3.0	0.024	1544.515	81.0	3	-12.0	-12.0	28.305	955.0	0.3	Certain	-1.3	-22.47	3.92375	Yes	4.0	21.172140430351103	2.02	434.681	n/a	GetAnswer	Mixed
434.7	4.0	0.019	1546.554	81.0	3	-12.0	-12.0	28.305	955.0	0.3	Certain	-1.3	-22.47	3.92375	Yes	n/a	21.172140430351103	n/a	n/a	n/a	ShowChoice	Mixed
438.712	1.0	0.012	1550.566	81.0	3	-12.0	-12.0	28.305	955.0	0.3	Certain	-1.3	-22.47	3.92375	Yes	n/a	21.172140430351103	n/a	n/a	n/a	ShowResult	Mixed
439.732	3.919	0.02	1551.586	81.0	3	-12.0	-12.0	28.305	955.0	0.3	Certain	-1.3	-22.47	3.92375	Yes	n/a	21.172140430351103	n/a	n/a	n/a	ISITrial	Mixed
443.677	3.924	0.026	1555.531	81.0	3	-12.0	-12.0	28.305	955.0	0.3	Certain	-1.3	-22.47	3.92375	Yes	n/a	21.172140430351103	n/a	n/a	n/a	TrialHappPreview	Mixed
447.622	4.012	0.021	1559.476	81.0	3	-12.0	-12.0	28.305	955.0	0.3	Certain	-1.3	-22.47	3.92375	Yes	n/a	21.172140430351103	n/a	n/a	512.0	TrialHappiness	Mixed
447.623	0.0	n/a	1559.477	81.0	3	-12.0	-12.0	28.305	955.0	0.3	Certain	-1.3	-22.47	3.92375	Yes	n/a	21.172140430351103	n/a	n/a	512.0	TrialHappinessSliderResponse	Mixed
451.634	7.695	4.012	1563.488	81.0	3	-12.0	-12.0	28.305	955.0	0.3	Certain	-1.3	-22.47	3.92375	Yes	n/a	21.172140430351103	n/a	n/a	n/a	ISIRate	Mixed
459.357	3.0	0.028	1571.211	n/a	3	n/a	n/a	n/a	n/a	n/a	n/a	n/a	n/a	n/a	n/a	n/a	n/a	n/a	n/a	n/a	CurrentEarnings	n/a
462.383	-0.001	0.026	1574.237	n/a	3	n/a	n/a	n/a	n/a	n/a	n/a	n/a	n/a	n/a	n/a	{SPACE}	n/a	6.706	469.089	n/a	Goodbye	n/a
