onset	duration	onset_delay	onset_unadjusted	trial_number	block	amount_change	certain_amount	current_amount	mood_target	multiplier	outcome	outcome1_amount	outcome2_amount	question_duration	rating	response	rpe	rt	rt_time	slider_response	trial_phase	trial_type
-45.284	-0.001	0.038	10.302	n/a	0	n/a	n/a	n/a	n/a	n/a	n/a	n/a	n/a	n/a	n/a	{SPACE}	n/a	3.28	-42.004	n/a	Welcome	n/a
-41.985	5.0	0.019	13.601	n/a	0	n/a	n/a	n/a	n/a	n/a	n/a	n/a	n/a	n/a	n/a	n/a	n/a	n/a	n/a	n/a	LifeHappyPreview	n/a
-36.953	2.907	0.032	18.633	n/a	0	n/a	n/a	n/a	n/a	n/a	n/a	n/a	n/a	n/a	n/a	n/a	n/a	n/a	n/a	744.0	LifeHappiness	n/a
-36.953	2.279	n/a	19.261	n/a	0	n/a	n/a	n/a	n/a	n/a	n/a	n/a	n/a	n/a	n/a	n/a	n/a	n/a	n/a	744.0	LifeHappinessSliderResponse	n/a
-14.695	4.0	0.029	40.891	n/a	0	n/a	n/a	n/a	n/a	n/a	n/a	n/a	n/a	n/a	n/a	n/a	n/a	n/a	n/a	n/a	BlockHappyPreview	n/a
-10.679	2.328	0.016	44.907	n/a	0	n/a	n/a	n/a	n/a	n/a	n/a	n/a	n/a	n/a	n/a	n/a	n/a	n/a	n/a	712.0	BlockStartHappiness	n/a
-10.679	1.848	n/a	45.387	n/a	0	n/a	n/a	n/a	n/a	n/a	n/a	n/a	n/a	n/a	n/a	n/a	n/a	n/a	n/a	712.0	BlockStartHappinessSliderResponse	n/a
-3.449	-0.001	0.028	52.137	n/a	0	n/a	n/a	n/a	n/a	n/a	n/a	n/a	n/a	n/a	n/a	5.0	n/a	3.429	-0.02	n/a	ScanWait	n/a
0.0	10.0	0.02	55.586	n/a	1	n/a	n/a	n/a	n/a	n/a	n/a	n/a	n/a	n/a	n/a	n/a	n/a	n/a	n/a	n/a	GetReady	n/a
10.03	3.0	0.03	65.616	1.0	1	7.3	1.58	10.9125	955.0	2.48	Outcome2	3.17	7.3	0.0	No	2.0	4.127972819932049	1.134	11.164	n/a	GetAnswer	Gain
11.18	4.0	0.016	66.766	1.0	1	7.3	1.58	10.9125	955.0	2.48	Outcome2	3.17	7.3	0.0	No	n/a	4.127972819932049	n/a	n/a	n/a	ShowChoice	Gain
15.195	1.0	0.015	70.781	1.0	1	7.3	1.58	10.9125	955.0	2.48	Outcome2	3.17	7.3	0.0	No	n/a	4.127972819932049	n/a	n/a	n/a	ShowResult	Gain
16.211	2.431	0.016	71.797	1.0	1	7.3	1.58	10.9125	955.0	2.48	Outcome2	3.17	7.3	0.0	No	n/a	4.127972819932049	n/a	n/a	n/a	ISITrial	Gain
18.66	3.0	0.018	74.246	2.0	1	11.3	3.45	12.325	955.0	2.48	Outcome1	11.3	6.9	0.0	No	2.0	4.40317100792752	2.058	20.718	n/a	GetAnswer	Loss
20.743	4.0	0.025	76.329	2.0	1	11.3	3.45	12.325	955.0	2.48	Outcome1	11.3	6.9	0.0	No	n/a	4.40317100792752	n/a	n/a	n/a	ShowChoice	Loss
24.758	1.0	0.015	80.344	2.0	1	11.3	3.45	12.325	955.0	2.48	Outcome1	11.3	6.9	0.0	No	n/a	4.40317100792752	n/a	n/a	n/a	ShowResult	Loss
25.774	4.568	0.016	81.36	2.0	1	11.3	3.45	12.325	955.0	2.48	Outcome1	11.3	6.9	0.0	No	n/a	4.40317100792752	n/a	n/a	n/a	ISITrial	Loss
30.373	3.0	0.031	85.959	3.0	1	6.9	1.11	13.1875	955.0	2.0	Outcome2	2.22	6.9	2.868	Yes	2.0	4.678369195922991	2.28	32.653	n/a	GetAnswer	Gain
32.672	4.0	0.019	88.258	3.0	1	6.9	1.11	13.1875	955.0	2.0	Outcome2	2.22	6.9	2.868	Yes	n/a	4.678369195922991	n/a	n/a	n/a	ShowChoice	Gain
36.687	1.0	0.015	92.273	3.0	1	6.9	1.11	13.1875	955.0	2.0	Outcome2	2.22	6.9	2.868	Yes	n/a	4.678369195922991	n/a	n/a	n/a	ShowResult	Gain
37.704	3.243	0.017	93.29	3.0	1	6.9	1.11	13.1875	955.0	2.0	Outcome2	2.22	6.9	2.868	Yes	n/a	4.678369195922991	n/a	n/a	n/a	ISITrial	Gain
40.969	2.868	0.022	96.555	3.0	1	6.9	1.11	13.1875	955.0	2.0	Outcome2	2.22	6.9	2.868	Yes	n/a	4.678369195922991	n/a	n/a	n/a	TrialHappPreview	Gain
43.868	4.015	0.031	99.454	3.0	1	6.9	1.11	13.1875	955.0	2.0	Outcome2	2.22	6.9	2.868	Yes	n/a	4.678369195922991	n/a	n/a	716.0	TrialHappiness	Gain
43.869	2.353	n/a	99.941	3.0	1	6.9	1.11	13.1875	955.0	2.0	Outcome2	2.22	6.9	2.868	Yes	n/a	4.678369195922991	n/a	n/a	716.0	TrialHappinessSliderResponse	Gain
47.883	3.472	4.015	103.469	3.0	1	6.9	1.11	13.1875	955.0	2.0	Outcome2	2.22	6.9	2.868	Yes	n/a	4.678369195922991	n/a	n/a	n/a	ISIRate	Gain
51.382	3.0	0.027	106.968	4.0	1	2.5	0.0	13.5	955.0	0.2	Outcome2	-2.39	2.5	0.0	No	2.0	4.88561721404304	1.806	53.188	n/a	GetAnswer	Mixed
53.215	4.0	0.027	108.801	4.0	1	2.5	0.0	13.5	955.0	0.2	Outcome2	-2.39	2.5	0.0	No	n/a	4.88561721404304	n/a	n/a	n/a	ShowChoice	Mixed
57.23	1.0	0.015	112.816	4.0	1	2.5	0.0	13.5	955.0	0.2	Outcome2	-2.39	2.5	0.0	No	n/a	4.88561721404304	n/a	n/a	n/a	ShowResult	Mixed
58.246	2.011	0.016	113.832	4.0	1	2.5	0.0	13.5	955.0	0.2	Outcome2	-2.39	2.5	0.0	No	n/a	4.88561721404304	n/a	n/a	n/a	ISITrial	Mixed
60.279	3.0	0.022	115.865	5.0	1	10.7	2.77	14.8375	955.0	1.82	Outcome1	10.7	5.54	2.5825	Yes	2.0	5.156285390713481	1.4	61.679	n/a	GetAnswer	Loss
61.695	4.0	0.016	117.281	5.0	1	10.7	2.77	14.8375	955.0	1.82	Outcome1	10.7	5.54	2.5825	Yes	n/a	5.156285390713481	n/a	n/a	n/a	ShowChoice	Loss
65.71	1.0	0.015	121.296	5.0	1	10.7	2.77	14.8375	955.0	1.82	Outcome1	10.7	5.54	2.5825	Yes	n/a	5.156285390713481	n/a	n/a	n/a	ShowResult	Loss
66.727	5.129	0.017	122.313	5.0	1	10.7	2.77	14.8375	955.0	1.82	Outcome1	10.7	5.54	2.5825	Yes	n/a	5.156285390713481	n/a	n/a	n/a	ISITrial	Loss
71.875	2.582	0.019	127.461	5.0	1	10.7	2.77	14.8375	955.0	1.82	Outcome1	10.7	5.54	2.5825	Yes	n/a	5.156285390713481	n/a	n/a	n/a	TrialHappPreview	Loss
74.474	4.015	0.017	130.06	5.0	1	10.7	2.77	14.8375	955.0	1.82	Outcome1	10.7	5.54	2.5825	Yes	2{-2}2{-2}2{-2}2{-2}2{-2}	5.156285390713481	2.354	76.828	836.0	TrialHappiness	Loss
74.475	1.964	n/a	130.451	5.0	1	10.7	2.77	14.8375	955.0	1.82	Outcome1	10.7	5.54	2.5825	Yes	n/a	5.156285390713481	n/a	n/a	836.0	TrialHappinessSliderResponse	Loss
78.489	2.33	4.015	134.075	5.0	1	10.7	2.77	14.8375	955.0	1.82	Outcome1	10.7	5.54	2.5825	Yes	n/a	5.156285390713481	n/a	n/a	n/a	ISIRate	Loss
80.838	3.0	0.019	136.424	6.0	1	3.5	1.75	15.275	955.0	1.5	Outcome1	3.5	4.1	0.0	No	2.0	-0.59682899207248	1.15	81.988	n/a	GetAnswer	Mixed
82.005	4.0	0.017	137.591	6.0	1	3.5	1.75	15.275	955.0	1.5	Outcome1	3.5	4.1	0.0	No	n/a	-0.59682899207248	n/a	n/a	n/a	ShowChoice	Mixed
86.02	1.0	0.015	141.606	6.0	1	3.5	1.75	15.275	955.0	1.5	Outcome1	3.5	4.1	0.0	No	n/a	-0.59682899207248	n/a	n/a	n/a	ShowResult	Mixed
87.036	6.232	0.016	142.622	6.0	1	3.5	1.75	15.275	955.0	1.5	Outcome1	3.5	4.1	0.0	No	n/a	-0.59682899207248	n/a	n/a	n/a	ISITrial	Mixed
93.284	3.0	0.016	148.87	7.0	1	6.09	3.04	16.0362	955.0	1.82	Outcome2	6.7	6.09	0.0	No	2.0	-0.6080596451491129	1.157	94.441	n/a	GetAnswer	Gain
94.467	4.0	0.026	150.053	7.0	1	6.09	3.04	16.0362	955.0	1.82	Outcome2	6.7	6.09	0.0	No	n/a	-0.6080596451491129	n/a	n/a	n/a	ShowChoice	Gain
98.482	1.0	0.015	154.068	7.0	1	6.09	3.04	16.0362	955.0	1.82	Outcome2	6.7	6.09	0.0	No	n/a	-0.6080596451491129	n/a	n/a	n/a	ShowResult	Gain
99.499	2.305	0.017	155.085	7.0	1	6.09	3.04	16.0362	955.0	1.82	Outcome2	6.7	6.09	0.0	No	n/a	-0.6080596451491129	n/a	n/a	n/a	ISITrial	Gain
101.831	3.0	0.027	157.417	8.0	1	12.1	4.22	17.5487	955.0	4.2	Outcome2	8.44	12.1	3.1125	Yes	2.0	3.65798414496036	1.084	102.915	n/a	GetAnswer	Loss
102.931	4.0	0.016	158.517	8.0	1	12.1	4.22	17.5487	955.0	4.2	Outcome2	8.44	12.1	3.1125	Yes	n/a	3.65798414496036	n/a	n/a	n/a	ShowChoice	Loss
106.946	1.0	0.015	162.532	8.0	1	12.1	4.22	17.5487	955.0	4.2	Outcome2	8.44	12.1	3.1125	Yes	n/a	3.65798414496036	n/a	n/a	n/a	ShowResult	Loss
107.962	3.506	0.016	163.548	8.0	1	12.1	4.22	17.5487	955.0	4.2	Outcome2	8.44	12.1	3.1125	Yes	n/a	3.65798414496036	n/a	n/a	n/a	ISITrial	Loss
111.494	3.112	0.026	167.08	8.0	1	12.1	4.22	17.5487	955.0	4.2	Outcome2	8.44	12.1	3.1125	Yes	n/a	3.65798414496036	n/a	n/a	n/a	TrialHappPreview	Loss
114.627	4.015	0.021	170.213	8.0	1	12.1	4.22	17.5487	955.0	4.2	Outcome2	8.44	12.1	3.1125	Yes	n/a	3.65798414496036	n/a	n/a	832.0	TrialHappiness	Loss
114.627	3.366	n/a	170.653	8.0	1	12.1	4.22	17.5487	955.0	4.2	Outcome2	8.44	12.1	3.1125	Yes	n/a	3.65798414496036	n/a	n/a	832.0	TrialHappinessSliderResponse	Loss
118.642	4.45	4.015	174.228	8.0	1	12.1	4.22	17.5487	955.0	4.2	Outcome2	8.44	12.1	3.1125	Yes	n/a	3.65798414496036	n/a	n/a	n/a	ISIRate	Loss
123.107	3.0	0.015	178.693	9.0	1	5.05	2.52	18.1799	955.0	3.16	Outcome2	5.7	5.05	0.0	No	2.0	-0.64675349188373	0.996	124.103	n/a	GetAnswer	Gain
124.123	4.0	0.02	179.709	9.0	1	5.05	2.52	18.1799	955.0	3.16	Outcome2	5.7	5.05	0.0	No	n/a	-0.64675349188373	n/a	n/a	n/a	ShowChoice	Gain
128.138	1.0	0.015	183.724	9.0	1	5.05	2.52	18.1799	955.0	3.16	Outcome2	5.7	5.05	0.0	No	n/a	-0.64675349188373	n/a	n/a	n/a	ShowResult	Gain
129.155	2.0	0.017	184.741	9.0	1	5.05	2.52	18.1799	955.0	3.16	Outcome2	5.7	5.05	0.0	No	n/a	-0.64675349188373	n/a	n/a	n/a	ISITrial	Gain
131.171	3.0	0.016	186.757	10.0	1	-2.0	-2.0	17.9299	955.0	1.0	Certain	-0.3	-4.3	4.0	Yes	4.0	4.0	2.013	133.184	n/a	GetAnswer	Mixed
133.203	4.0	0.019	188.789	10.0	1	-2.0	-2.0	17.9299	955.0	1.0	Certain	-0.3	-4.3	4.0	Yes	n/a	4.0	n/a	n/a	n/a	ShowChoice	Mixed
137.219	1.0	0.016	192.805	10.0	1	-2.0	-2.0	17.9299	955.0	1.0	Certain	-0.3	-4.3	4.0	Yes	n/a	4.0	n/a	n/a	n/a	ShowResult	Mixed
138.235	2.0	0.016	193.821	10.0	1	-2.0	-2.0	17.9299	955.0	1.0	Certain	-0.3	-4.3	4.0	Yes	n/a	4.0	n/a	n/a	n/a	ISITrial	Mixed
140.251	4.0	0.016	195.837	10.0	1	-2.0	-2.0	17.9299	955.0	1.0	Certain	-0.3	-4.3	4.0	Yes	n/a	4.0	n/a	n/a	n/a	TrialHappPreview	Mixed
144.266	4.015	0.015	199.852	10.0	1	-2.0	-2.0	17.9299	955.0	1.0	Certain	-0.3	-4.3	4.0	Yes	n/a	4.0	n/a	n/a	696.0	TrialHappiness	Mixed
144.267	2.23	n/a	200.296	10.0	1	-2.0	-2.0	17.9299	955.0	1.0	Certain	-0.3	-4.3	4.0	Yes	n/a	4.0	n/a	n/a	696.0	TrialHappinessSliderResponse	Mixed
148.281	8.0	4.015	203.867	10.0	1	-2.0	-2.0	17.9299	955.0	1.0	Certain	-0.3	-4.3	4.0	Yes	n/a	4.0	n/a	n/a	n/a	ISIRate	Mixed
156.312	3.0	0.031	211.898	11.0	1	-1.0	-1.0	17.8049	955.0	0.82	Certain	-4.95	1.5	0.0	No	4.0	6.449603624009059	1.446	157.758	n/a	GetAnswer	Mixed
157.778	4.0	0.02	213.364	11.0	1	-1.0	-1.0	17.8049	955.0	0.82	Certain	-4.95	1.5	0.0	No	n/a	6.449603624009059	n/a	n/a	n/a	ShowChoice	Mixed
161.793	1.0	0.015	217.379	11.0	1	-1.0	-1.0	17.8049	955.0	0.82	Certain	-4.95	1.5	0.0	No	n/a	6.449603624009059	n/a	n/a	n/a	ShowResult	Mixed
162.81	3.324	0.017	218.396	11.0	1	-1.0	-1.0	17.8049	955.0	0.82	Certain	-4.95	1.5	0.0	No	n/a	6.449603624009059	n/a	n/a	n/a	ISITrial	Mixed
166.158	3.0	0.024	221.744	12.0	1	12.05	6.02	19.3111	955.0	2.48	Outcome1	12.05	13.3	2.61875	Yes	2.0	-1.24631936579841	1.07	167.228	n/a	GetAnswer	Loss
167.241	4.0	0.012	222.827	12.0	1	12.05	6.02	19.3111	955.0	2.48	Outcome1	12.05	13.3	2.61875	Yes	n/a	-1.24631936579841	n/a	n/a	n/a	ShowChoice	Loss
171.257	1.0	0.016	226.843	12.0	1	12.05	6.02	19.3111	955.0	2.48	Outcome1	12.05	13.3	2.61875	Yes	n/a	-1.24631936579841	n/a	n/a	n/a	ShowResult	Loss
172.273	6.642	0.016	227.859	12.0	1	12.05	6.02	19.3111	955.0	2.48	Outcome1	12.05	13.3	2.61875	Yes	n/a	-1.24631936579841	n/a	n/a	n/a	ISITrial	Loss
178.937	2.619	0.022	234.523	12.0	1	12.05	6.02	19.3111	955.0	2.48	Outcome1	12.05	13.3	2.61875	Yes	n/a	-1.24631936579841	n/a	n/a	n/a	TrialHappPreview	Loss
181.586	4.016	0.03	237.172	12.0	1	12.05	6.02	19.3111	955.0	2.48	Outcome1	12.05	13.3	2.61875	Yes	2{-2}2{-2}	-1.24631936579841	1.358	182.944	712.0	TrialHappiness	Loss
181.587	0.954	n/a	237.577	12.0	1	12.05	6.02	19.3111	955.0	2.48	Outcome1	12.05	13.3	2.61875	Yes	n/a	-1.24631936579841	n/a	n/a	712.0	TrialHappinessSliderResponse	Loss
185.602	2.475	4.016	241.188	12.0	1	12.05	6.02	19.3111	955.0	2.48	Outcome1	12.05	13.3	2.61875	Yes	n/a	-1.24631936579841	n/a	n/a	n/a	ISIRate	Loss
188.101	3.0	0.024	243.687	13.0	1	13.7	3.47	21.0236	955.0	3.16	Outcome2	6.94	13.7	0.0	No	2.0	6.764439411098531	1.028	189.129	n/a	GetAnswer	Loss
189.15	4.0	0.021	244.736	13.0	1	13.7	3.47	21.0236	955.0	3.16	Outcome2	6.94	13.7	0.0	No	n/a	6.764439411098531	n/a	n/a	n/a	ShowChoice	Loss
193.166	1.0	0.016	248.752	13.0	1	13.7	3.47	21.0236	955.0	3.16	Outcome2	6.94	13.7	0.0	No	n/a	6.764439411098531	n/a	n/a	n/a	ShowResult	Loss
194.182	3.48	0.016	249.768	13.0	1	13.7	3.47	21.0236	955.0	3.16	Outcome2	6.94	13.7	0.0	No	n/a	6.764439411098531	n/a	n/a	n/a	ISITrial	Loss
197.681	3.0	0.019	253.267	14.0	1	11.87	5.94	22.5074	955.0	2.22	Outcome1	11.87	13.1	0.0	No	2.0	-1.22876557191393	0.862	198.543	n/a	GetAnswer	Loss
198.564	4.0	0.021	254.15	14.0	1	11.87	5.94	22.5074	955.0	2.22	Outcome1	11.87	13.1	0.0	No	n/a	-1.22876557191393	n/a	n/a	n/a	ShowChoice	Loss
202.579	1.0	0.015	258.165	14.0	1	11.87	5.94	22.5074	955.0	2.22	Outcome1	11.87	13.1	0.0	No	n/a	-1.22876557191393	n/a	n/a	n/a	ShowResult	Loss
203.595	5.019	0.016	259.181	14.0	1	11.87	5.94	22.5074	955.0	2.22	Outcome1	11.87	13.1	0.0	No	n/a	-1.22876557191393	n/a	n/a	n/a	ISITrial	Loss
208.643	3.0	0.029	264.229	15.0	1	12.7	2.7	24.0949	955.0	1.82	Outcome2	5.39	12.7	3.3485	Yes	2.0	7.31483578708947	1.026	209.669	n/a	GetAnswer	Loss
209.693	4.0	0.024	265.279	15.0	1	12.7	2.7	24.0949	955.0	1.82	Outcome2	5.39	12.7	3.3485	Yes	n/a	7.31483578708947	n/a	n/a	n/a	ShowChoice	Loss
213.708	1.0	0.015	269.294	15.0	1	12.7	2.7	24.0949	955.0	1.82	Outcome2	5.39	12.7	3.3485	Yes	n/a	7.31483578708947	n/a	n/a	n/a	ShowResult	Loss
214.725	7.614	0.017	270.311	15.0	1	12.7	2.7	24.0949	955.0	1.82	Outcome2	5.39	12.7	3.3485	Yes	n/a	7.31483578708947	n/a	n/a	n/a	ISITrial	Loss
222.355	3.348	0.016	277.941	15.0	1	12.7	2.7	24.0949	955.0	1.82	Outcome2	5.39	12.7	3.3485	Yes	n/a	7.31483578708947	n/a	n/a	n/a	TrialHappPreview	Loss
225.721	4.015	0.018	281.307	15.0	1	12.7	2.7	24.0949	955.0	1.82	Outcome2	5.39	12.7	3.3485	Yes	n/a	7.31483578708947	n/a	n/a	824.0	TrialHappiness	Loss
225.721	0.793	n/a	281.686	15.0	1	12.7	2.7	24.0949	955.0	1.82	Outcome2	5.39	12.7	3.3485	Yes	n/a	7.31483578708947	n/a	n/a	824.0	TrialHappinessSliderResponse	Loss
229.736	5.394	4.015	285.322	15.0	1	12.7	2.7	24.0949	955.0	1.82	Outcome2	5.39	12.7	3.3485	Yes	n/a	7.31483578708947	n/a	n/a	n/a	ISIRate	Loss
235.151	3.0	0.021	290.737	16.0	1	-0.1	-3.0	24.0824	955.0	1.2	Outcome2	-5.79	-0.1	0.0	No	2.0	5.687429218573049	1.626	236.777	n/a	GetAnswer	Mixed
236.8	4.0	0.023	292.386	16.0	1	-0.1	-3.0	24.0824	955.0	1.2	Outcome2	-5.79	-0.1	0.0	No	n/a	5.687429218573049	n/a	n/a	n/a	ShowChoice	Mixed
240.815	1.0	0.015	296.401	16.0	1	-0.1	-3.0	24.0824	955.0	1.2	Outcome2	-5.79	-0.1	0.0	No	n/a	5.687429218573049	n/a	n/a	n/a	ShowResult	Mixed
241.832	3.008	0.017	297.418	16.0	1	-0.1	-3.0	24.0824	955.0	1.2	Outcome2	-5.79	-0.1	0.0	No	n/a	5.687429218573049	n/a	n/a	n/a	ISITrial	Mixed
244.864	3.0	0.024	300.45	17.0	1	10.9	2.53	25.4449	955.0	2.0	Outcome2	5.06	10.9	3.0415	Yes	2.0	5.83578708946772	1.94	246.804	n/a	GetAnswer	Loss
246.83	4.0	0.026	302.416	17.0	1	10.9	2.53	25.4449	955.0	2.0	Outcome2	5.06	10.9	3.0415	Yes	n/a	5.83578708946772	n/a	n/a	n/a	ShowChoice	Loss
250.845	1.0	0.015	306.431	17.0	1	10.9	2.53	25.4449	955.0	2.0	Outcome2	5.06	10.9	3.0415	Yes	n/a	5.83578708946772	n/a	n/a	n/a	ShowResult	Loss
251.861	3.566	0.016	307.447	17.0	1	10.9	2.53	25.4449	955.0	2.0	Outcome2	5.06	10.9	3.0415	Yes	n/a	5.83578708946772	n/a	n/a	n/a	ISITrial	Loss
255.444	3.042	0.017	311.03	17.0	1	10.9	2.53	25.4449	955.0	2.0	Outcome2	5.06	10.9	3.0415	Yes	n/a	5.83578708946772	n/a	n/a	n/a	TrialHappPreview	Loss
258.509	4.015	0.023	314.095	17.0	1	10.9	2.53	25.4449	955.0	2.0	Outcome2	5.06	10.9	3.0415	Yes	n/a	5.83578708946772	n/a	n/a	888.0	TrialHappiness	Loss
258.51	1.405	n/a	314.498	17.0	1	10.9	2.53	25.4449	955.0	2.0	Outcome2	5.06	10.9	3.0415	Yes	n/a	5.83578708946772	n/a	n/a	888.0	TrialHappinessSliderResponse	Loss
262.524	4.166	4.015	318.11	17.0	1	10.9	2.53	25.4449	955.0	2.0	Outcome2	5.06	10.9	3.0415	Yes	n/a	5.83578708946772	n/a	n/a	n/a	ISIRate	Loss
266.706	3.0	0.016	322.292	18.0	1	4.71	2.36	26.0337	955.0	2.48	Outcome1	4.71	5.3	0.0	No	2.0	-0.585126462816157	1.337	268.043	n/a	GetAnswer	Gain
268.056	4.0	0.013	323.642	18.0	1	4.71	2.36	26.0337	955.0	2.48	Outcome1	4.71	5.3	0.0	No	n/a	-0.585126462816157	n/a	n/a	n/a	ShowChoice	Gain
272.071	1.0	0.015	327.657	18.0	1	4.71	2.36	26.0337	955.0	2.48	Outcome1	4.71	5.3	0.0	No	n/a	-0.585126462816157	n/a	n/a	n/a	ShowResult	Gain
273.087	6.787	0.016	328.673	18.0	1	4.71	2.36	26.0337	955.0	2.48	Outcome1	4.71	5.3	0.0	No	n/a	-0.585126462816157	n/a	n/a	n/a	ISITrial	Gain
279.902	3.0	0.028	335.488	19.0	1	-1.69	-1.0	25.8225	955.0	0.4	Outcome1	-1.69	-1.1	0.0	No	2.0	-0.591449603624009	1.342	281.244	n/a	GetAnswer	Mixed
281.268	4.0	0.024	336.854	19.0	1	-1.69	-1.0	25.8225	955.0	0.4	Outcome1	-1.69	-1.1	0.0	No	n/a	-0.591449603624009	n/a	n/a	n/a	ShowChoice	Mixed
285.283	1.0	0.015	340.869	19.0	1	-1.69	-1.0	25.8225	955.0	0.4	Outcome1	-1.69	-1.1	0.0	No	n/a	-0.591449603624009	n/a	n/a	n/a	ShowResult	Mixed
286.299	2.0	0.016	341.885	19.0	1	-1.69	-1.0	25.8225	955.0	0.4	Outcome1	-1.69	-1.1	0.0	No	n/a	-0.591449603624009	n/a	n/a	n/a	ISITrial	Mixed
288.332	3.0	0.033	343.918	20.0	1	7.1	1.02	26.71	955.0	2.22	Outcome2	2.05	7.1	2.92125	Yes	2.0	5.04869762174405	1.282	289.614	n/a	GetAnswer	Gain
289.632	4.0	0.018	345.218	20.0	1	7.1	1.02	26.71	955.0	2.22	Outcome2	2.05	7.1	2.92125	Yes	n/a	5.04869762174405	n/a	n/a	n/a	ShowChoice	Gain
293.647	1.0	0.015	349.233	20.0	1	7.1	1.02	26.71	955.0	2.22	Outcome2	2.05	7.1	2.92125	Yes	n/a	5.04869762174405	n/a	n/a	n/a	ShowResult	Gain
294.663	8.0	0.016	350.249	20.0	1	7.1	1.02	26.71	955.0	2.22	Outcome2	2.05	7.1	2.92125	Yes	n/a	5.04869762174405	n/a	n/a	n/a	ISITrial	Gain
302.677	2.921	0.014	358.263	20.0	1	7.1	1.02	26.71	955.0	2.22	Outcome2	2.05	7.1	2.92125	Yes	n/a	5.04869762174405	n/a	n/a	n/a	TrialHappPreview	Gain
305.626	4.015	0.028	361.212	20.0	1	7.1	1.02	26.71	955.0	2.22	Outcome2	2.05	7.1	2.92125	Yes	n/a	5.04869762174405	n/a	n/a	768.0	TrialHappiness	Gain
305.627	1.737	n/a	361.666	20.0	1	7.1	1.02	26.71	955.0	2.22	Outcome2	2.05	7.1	2.92125	Yes	n/a	5.04869762174405	n/a	n/a	768.0	TrialHappinessSliderResponse	Gain
309.641	3.685	4.015	365.227	20.0	1	7.1	1.02	26.71	955.0	2.22	Outcome2	2.05	7.1	2.92125	Yes	n/a	5.04869762174405	n/a	n/a	n/a	ISIRate	Gain
313.357	3.0	0.031	368.943	21.0	1	8.7	0.77	27.7975	955.0	1.82	Outcome2	1.54	8.7	0.0	No	2.0	7.163080407701019	1.075	314.432	n/a	GetAnswer	Gain
314.456	4.0	0.024	370.042	21.0	1	8.7	0.77	27.7975	955.0	1.82	Outcome2	1.54	8.7	0.0	No	n/a	7.163080407701019	n/a	n/a	n/a	ShowChoice	Gain
318.471	1.0	0.015	374.057	21.0	1	8.7	0.77	27.7975	955.0	1.82	Outcome2	1.54	8.7	0.0	No	n/a	7.163080407701019	n/a	n/a	n/a	ShowResult	Gain
319.488	3.555	0.017	375.074	21.0	1	8.7	0.77	27.7975	955.0	1.82	Outcome2	1.54	8.7	0.0	No	n/a	7.163080407701019	n/a	n/a	n/a	ISITrial	Gain
323.07	3.0	0.027	378.656	22.0	1	-2.01	-1.0	27.5462	955.0	0.52	Outcome1	-2.01	-0.9	3.2195	Yes	2.0	-1.10872027180068	2.108	325.178	n/a	GetAnswer	Mixed
325.202	4.0	0.024	380.788	22.0	1	-2.01	-1.0	27.5462	955.0	0.52	Outcome1	-2.01	-0.9	3.2195	Yes	n/a	-1.10872027180068	n/a	n/a	n/a	ShowChoice	Mixed
329.218	1.0	0.016	384.804	22.0	1	-2.01	-1.0	27.5462	955.0	0.52	Outcome1	-2.01	-0.9	3.2195	Yes	n/a	-1.10872027180068	n/a	n/a	n/a	ShowResult	Mixed
330.234	6.793	0.016	385.82	22.0	1	-2.01	-1.0	27.5462	955.0	0.52	Outcome1	-2.01	-0.9	3.2195	Yes	n/a	-1.10872027180068	n/a	n/a	n/a	ISITrial	Mixed
337.048	3.22	0.021	392.634	22.0	1	-2.01	-1.0	27.5462	955.0	0.52	Outcome1	-2.01	-0.9	3.2195	Yes	n/a	-1.10872027180068	n/a	n/a	n/a	TrialHappPreview	Mixed
340.297	4.015	0.029	395.883	22.0	1	-2.01	-1.0	27.5462	955.0	0.52	Outcome1	-2.01	-0.9	3.2195	Yes	2{-2}4{-4}2{-2}	-1.10872027180068	3.756	344.053	656.0	TrialHappiness	Mixed
340.298	2.248	n/a	397.392	22.0	1	-2.01	-1.0	27.5462	955.0	0.52	Outcome1	-2.01	-0.9	3.2195	Yes	n/a	-1.10872027180068	n/a	n/a	656.0	TrialHappinessSliderResponse	Mixed
344.312	4.878	4.015	399.898	22.0	1	-2.01	-1.0	27.5462	955.0	0.52	Outcome1	-2.01	-0.9	3.2195	Yes	n/a	-1.10872027180068	n/a	n/a	n/a	ISIRate	Mixed
349.211	3.0	0.021	404.797	23.0	1	9.5	0.0	28.7337	955.0	2.8	Outcome2	0.01	9.5	0.0	No	2.0	9.48924122310306	1.851	351.062	n/a	GetAnswer	Gain
351.077	4.0	0.015	406.663	23.0	1	9.5	0.0	28.7337	955.0	2.8	Outcome2	0.01	9.5	0.0	No	n/a	9.48924122310306	n/a	n/a	n/a	ShowChoice	Gain
355.092	1.0	0.015	410.678	23.0	1	9.5	0.0	28.7337	955.0	2.8	Outcome2	0.01	9.5	0.0	No	n/a	9.48924122310306	n/a	n/a	n/a	ShowResult	Gain
356.108	8.0	0.016	411.694	23.0	1	9.5	0.0	28.7337	955.0	2.8	Outcome2	0.01	9.5	0.0	No	n/a	9.48924122310306	n/a	n/a	n/a	ISITrial	Gain
364.139	3.0	0.031	419.725	24.0	1	0.0	0.0	28.7337	955.0	0.2	Certain	0.5	-1.11	3.255	Yes	4.0	-1.60909777274443	1.783	365.922	n/a	GetAnswer	Mixed
365.938	4.0	0.016	421.524	24.0	1	0.0	0.0	28.7337	955.0	0.2	Certain	0.5	-1.11	3.255	Yes	n/a	-1.60909777274443	n/a	n/a	n/a	ShowChoice	Mixed
369.953	1.0	0.015	425.539	24.0	1	0.0	0.0	28.7337	955.0	0.2	Certain	0.5	-1.11	3.255	Yes	n/a	-1.60909777274443	n/a	n/a	n/a	ShowResult	Mixed
370.97	2.0	0.017	426.556	24.0	1	0.0	0.0	28.7337	955.0	0.2	Certain	0.5	-1.11	3.255	Yes	n/a	-1.60909777274443	n/a	n/a	n/a	ISITrial	Mixed
372.986	3.255	0.016	428.572	24.0	1	0.0	0.0	28.7337	955.0	0.2	Certain	0.5	-1.11	3.255	Yes	n/a	-1.60909777274443	n/a	n/a	n/a	TrialHappPreview	Mixed
376.268	4.015	0.027	431.854	24.0	1	0.0	0.0	28.7337	955.0	0.2	Certain	0.5	-1.11	3.255	Yes	n/a	-1.60909777274443	n/a	n/a	576.0	TrialHappiness	Mixed
376.268	3.222	n/a	432.603	24.0	1	0.0	0.0	28.7337	955.0	0.2	Certain	0.5	-1.11	3.255	Yes	n/a	-1.60909777274443	n/a	n/a	576.0	TrialHappinessSliderResponse	Mixed
380.283	5.02	4.015	435.869	24.0	1	0.0	0.0	28.7337	955.0	0.2	Certain	0.5	-1.11	3.255	Yes	n/a	-1.60909777274443	n/a	n/a	n/a	ISIRate	Mixed
385.331	3.0	0.028	440.917	25.0	1	8.5	2.0	29.7962	955.0	1.68	Outcome2	-3.03	8.5	0.0	No	2.0	11.5254813137033	1.761	387.092	n/a	GetAnswer	Gain
387.114	4.0	0.022	442.7	25.0	1	8.5	2.0	29.7962	955.0	1.68	Outcome2	-3.03	8.5	0.0	No	n/a	11.5254813137033	n/a	n/a	n/a	ShowChoice	Gain
391.129	1.0	0.015	446.715	25.0	1	8.5	2.0	29.7962	955.0	1.68	Outcome2	-3.03	8.5	0.0	No	n/a	11.5254813137033	n/a	n/a	n/a	ShowResult	Gain
392.145	3.749	0.016	447.731	25.0	1	8.5	2.0	29.7962	955.0	1.68	Outcome2	-3.03	8.5	0.0	No	n/a	11.5254813137033	n/a	n/a	n/a	ISITrial	Gain
395.911	3.0	0.017	451.497	26.0	1	12.3	0.18	31.3337	955.0	5.0	Outcome1	12.3	0.35	0.0	No	2.0	11.9546998867497	0.961	396.872	n/a	GetAnswer	Loss
396.894	4.0	0.022	452.48	26.0	1	12.3	0.18	31.3337	955.0	5.0	Outcome1	12.3	0.35	0.0	No	n/a	11.9546998867497	n/a	n/a	n/a	ShowChoice	Loss
400.909	1.0	0.015	456.495	26.0	1	12.3	0.18	31.3337	955.0	5.0	Outcome1	12.3	0.35	0.0	No	n/a	11.9546998867497	n/a	n/a	n/a	ShowResult	Loss
401.925	7.834	0.016	457.511	26.0	1	12.3	0.18	31.3337	955.0	5.0	Outcome1	12.3	0.35	0.0	No	n/a	11.9546998867497	n/a	n/a	n/a	ISITrial	Loss
409.789	3.0	0.03	465.375	27.0	1	13.9	0.76	33.0712	955.0	3.6	Outcome1	13.9	1.52	2.54975	Yes	2.0	12.3839184597961	0.93	410.719	n/a	GetAnswer	Loss
410.739	4.0	0.02	466.325	27.0	1	13.9	0.76	33.0712	955.0	3.6	Outcome1	13.9	1.52	2.54975	Yes	n/a	12.3839184597961	n/a	n/a	n/a	ShowChoice	Loss
414.754	1.0	0.015	470.34	27.0	1	13.9	0.76	33.0712	955.0	3.6	Outcome1	13.9	1.52	2.54975	Yes	n/a	12.3839184597961	n/a	n/a	n/a	ShowResult	Loss
415.77	4.225	0.016	471.356	27.0	1	13.9	0.76	33.0712	955.0	3.6	Outcome1	13.9	1.52	2.54975	Yes	n/a	12.3839184597961	n/a	n/a	n/a	ISITrial	Loss
420.019	2.55	0.024	475.605	27.0	1	13.9	0.76	33.0712	955.0	3.6	Outcome1	13.9	1.52	2.54975	Yes	n/a	12.3839184597961	n/a	n/a	n/a	TrialHappPreview	Loss
422.585	4.015	0.016	478.171	27.0	1	13.9	0.76	33.0712	955.0	3.6	Outcome1	13.9	1.52	2.54975	Yes	n/a	12.3839184597961	n/a	n/a	896.0	TrialHappiness	Loss
422.585	1.95	n/a	478.544	27.0	1	13.9	0.76	33.0712	955.0	3.6	Outcome1	13.9	1.52	2.54975	Yes	n/a	12.3839184597961	n/a	n/a	896.0	TrialHappinessSliderResponse	Loss
426.6	2.199	4.015	482.186	27.0	1	13.9	0.76	33.0712	955.0	3.6	Outcome1	13.9	1.52	2.54975	Yes	n/a	12.3839184597961	n/a	n/a	n/a	ISIRate	Loss
446.577	0.737	n/a	502.715	n/a	1	n/a	n/a	n/a	n/a	n/a	n/a	n/a	n/a	n/a	n/a	n/a	n/a	n/a	n/a	800.0	BlockStartHappinessSliderResponse	n/a
-49.416	-0.001	0.017	484.402	n/a	2	n/a	n/a	n/a	n/a	n/a	n/a	n/a	n/a	n/a	n/a	{SPACE}	n/a	13.729	-35.687	n/a	Rest	n/a
-35.671	4.0	0.016	498.147	n/a	2	n/a	n/a	n/a	n/a	n/a	n/a	n/a	n/a	n/a	n/a	n/a	n/a	n/a	n/a	n/a	BlockHappyPreview	n/a
-31.656	1.289	0.015	502.162	n/a	2	n/a	n/a	n/a	n/a	n/a	n/a	n/a	n/a	n/a	n/a	n/a	n/a	n/a	n/a	800.0	BlockStartHappiness	n/a
-4.499	-0.001	0.021	529.319	n/a	2	n/a	n/a	n/a	n/a	n/a	n/a	n/a	n/a	n/a	n/a	5.0	n/a	4.479	-0.02	n/a	ScanWait	n/a
0.0	10.0	0.02	533.818	n/a	2	n/a	n/a	n/a	n/a	n/a	n/a	n/a	n/a	n/a	n/a	n/a	n/a	n/a	n/a	n/a	GetReady	n/a
10.013	3.0	0.013	543.831	28.0	2	-0.72	-0.36	32.9812	70.0	3.16	Outcome2	11.7	-0.72	0.0	No	2.0	-12.414965986394598	1.615	11.628	n/a	GetAnswer	Loss
11.646	4.0	0.018	545.464	28.0	2	-0.72	-0.36	32.9812	70.0	3.16	Outcome2	11.7	-0.72	0.0	No	n/a	-12.414965986394598	n/a	n/a	n/a	ShowChoice	Loss
15.661	1.0	0.015	549.479	28.0	2	-0.72	-0.36	32.9812	70.0	3.16	Outcome2	11.7	-0.72	0.0	No	n/a	-12.414965986394598	n/a	n/a	n/a	ShowResult	Loss
16.677	3.575	0.016	550.495	28.0	2	-0.72	-0.36	32.9812	70.0	3.16	Outcome2	11.7	-0.72	0.0	No	n/a	-12.414965986394598	n/a	n/a	n/a	ISITrial	Loss
20.276	3.0	0.024	554.094	29.0	2	-1.57	-1.57	32.785	70.0	4.2	Certain	10.1	-3.14	3.529	Yes	4.0	-13.2426303854875	1.431	21.707	n/a	GetAnswer	Gain
21.725	4.0	0.018	555.543	29.0	2	-1.57	-1.57	32.785	70.0	4.2	Certain	10.1	-3.14	3.529	Yes	n/a	-13.2426303854875	n/a	n/a	n/a	ShowChoice	Gain
25.741	1.0	0.016	559.559	29.0	2	-1.57	-1.57	32.785	70.0	4.2	Certain	10.1	-3.14	3.529	Yes	n/a	-13.2426303854875	n/a	n/a	n/a	ShowResult	Gain
26.757	3.955	0.016	560.575	29.0	2	-1.57	-1.57	32.785	70.0	4.2	Certain	10.1	-3.14	3.529	Yes	n/a	-13.2426303854875	n/a	n/a	n/a	ISITrial	Gain
30.722	3.529	0.01	564.54	29.0	2	-1.57	-1.57	32.785	70.0	4.2	Certain	10.1	-3.14	3.529	Yes	n/a	-13.2426303854875	n/a	n/a	n/a	TrialHappPreview	Gain
34.271	4.015	0.02	568.089	29.0	2	-1.57	-1.57	32.785	70.0	4.2	Certain	10.1	-3.14	3.529	Yes	n/a	-13.2426303854875	n/a	n/a	416.0	TrialHappiness	Gain
34.272	0.337	n/a	568.609	29.0	2	-1.57	-1.57	32.785	70.0	4.2	Certain	10.1	-3.14	3.529	Yes	n/a	-13.2426303854875	n/a	n/a	416.0	TrialHappinessSliderResponse	Gain
38.286	6.116	4.015	572.104	29.0	2	-1.57	-1.57	32.785	70.0	4.2	Certain	10.1	-3.14	3.529	Yes	n/a	-13.2426303854875	n/a	n/a	n/a	ISIRate	Gain
44.417	3.0	0.015	578.235	30.0	2	0.56	0.28	32.855	70.0	4.2	Outcome1	0.56	8.1	0.0	No	2.0	-7.5396825396825395	1.331	45.748	n/a	GetAnswer	Gain
45.767	4.0	0.019	579.585	30.0	2	0.56	0.28	32.855	70.0	4.2	Outcome1	0.56	8.1	0.0	No	n/a	-7.5396825396825395	n/a	n/a	n/a	ShowChoice	Gain
49.782	1.0	0.015	583.6	30.0	2	0.56	0.28	32.855	70.0	4.2	Outcome1	0.56	8.1	0.0	No	n/a	-7.5396825396825395	n/a	n/a	n/a	ShowResult	Gain
50.799	4.453	0.017	584.617	30.0	2	0.56	0.28	32.855	70.0	4.2	Outcome1	0.56	8.1	0.0	No	n/a	-7.5396825396825395	n/a	n/a	n/a	ISITrial	Gain
55.28	3.0	0.028	589.098	31.0	2	-4.83	-1.0	32.2512	70.0	0.52	Outcome2	3.1	-4.83	2.50325	Yes	2.0	-7.931972789115651	1.419	56.699	n/a	GetAnswer	Mixed
56.713	4.0	0.014	590.531	31.0	2	-4.83	-1.0	32.2512	70.0	0.52	Outcome2	3.1	-4.83	2.50325	Yes	n/a	-7.931972789115651	n/a	n/a	n/a	ShowChoice	Mixed
60.728	1.0	0.015	594.546	31.0	2	-4.83	-1.0	32.2512	70.0	0.52	Outcome2	3.1	-4.83	2.50325	Yes	n/a	-7.931972789115651	n/a	n/a	n/a	ShowResult	Mixed
61.745	4.786	0.017	595.563	31.0	2	-4.83	-1.0	32.2512	70.0	0.52	Outcome2	3.1	-4.83	2.50325	Yes	n/a	-7.931972789115651	n/a	n/a	n/a	ISITrial	Mixed
66.543	2.503	0.012	600.361	31.0	2	-4.83	-1.0	32.2512	70.0	0.52	Outcome2	3.1	-4.83	2.50325	Yes	n/a	-7.931972789115651	n/a	n/a	n/a	TrialHappPreview	Mixed
69.075	4.016	0.029	602.893	31.0	2	-4.83	-1.0	32.2512	70.0	0.52	Outcome2	3.1	-4.83	2.50325	Yes	n/a	-7.931972789115651	n/a	n/a	320.0	TrialHappiness	Mixed
69.076	0.947	n/a	603.438	31.0	2	-4.83	-1.0	32.2512	70.0	0.52	Outcome2	3.1	-4.83	2.50325	Yes	n/a	-7.931972789115651	n/a	n/a	320.0	TrialHappinessSliderResponse	Mixed
73.091	2.013	4.016	606.909	31.0	2	-4.83	-1.0	32.2512	70.0	0.52	Outcome2	3.1	-4.83	2.50325	Yes	n/a	-7.931972789115651	n/a	n/a	n/a	ISIRate	Mixed
75.123	3.0	0.019	608.941	32.0	2	1.01	0.5	32.3774	70.0	3.16	Outcome1	1.01	7.7	0.0	No	2.0	-6.691609977324259	1.007	76.13	n/a	GetAnswer	Gain
76.156	4.0	0.025	609.974	32.0	2	1.01	0.5	32.3774	70.0	3.16	Outcome1	1.01	7.7	0.0	No	n/a	-6.691609977324259	n/a	n/a	n/a	ShowChoice	Gain
80.172	1.0	0.016	613.99	32.0	2	1.01	0.5	32.3774	70.0	3.16	Outcome1	1.01	7.7	0.0	No	n/a	-6.691609977324259	n/a	n/a	n/a	ShowResult	Gain
81.188	2.0	0.016	615.006	32.0	2	1.01	0.5	32.3774	70.0	3.16	Outcome1	1.01	7.7	0.0	No	n/a	-6.691609977324259	n/a	n/a	n/a	ISITrial	Gain
83.204	3.0	0.016	617.022	33.0	2	0.0	0.0	32.3774	70.0	1.5	Certain	0.02	-1.22	0.0	No	4.0	1.24263038548753	1.367	84.571	n/a	GetAnswer	Mixed
84.587	4.0	0.016	618.405	33.0	2	0.0	0.0	32.3774	70.0	1.5	Certain	0.02	-1.22	0.0	No	n/a	1.24263038548753	n/a	n/a	n/a	ShowChoice	Mixed
88.602	1.0	0.015	622.42	33.0	2	0.0	0.0	32.3774	70.0	1.5	Certain	0.02	-1.22	0.0	No	n/a	1.24263038548753	n/a	n/a	n/a	ShowResult	Mixed
89.618	5.099	0.016	623.436	33.0	2	0.0	0.0	32.3774	70.0	1.5	Certain	0.02	-1.22	0.0	No	n/a	1.24263038548753	n/a	n/a	n/a	ISITrial	Mixed
94.733	3.0	0.016	628.551	34.0	2	-5.0	-5.0	31.7524	70.0	0.2	Certain	-8.76	-1.5	3.2315	Yes	4.0	-7.2585034013605405	1.238	95.971	n/a	GetAnswer	Mixed
95.983	4.0	0.012	629.801	34.0	2	-5.0	-5.0	31.7524	70.0	0.2	Certain	-8.76	-1.5	3.2315	Yes	n/a	-7.2585034013605405	n/a	n/a	n/a	ShowChoice	Mixed
99.998	1.0	0.015	633.816	34.0	2	-5.0	-5.0	31.7524	70.0	0.2	Certain	-8.76	-1.5	3.2315	Yes	n/a	-7.2585034013605405	n/a	n/a	n/a	ShowResult	Mixed
101.014	4.784	0.016	634.832	34.0	2	-5.0	-5.0	31.7524	70.0	0.2	Certain	-8.76	-1.5	3.2315	Yes	n/a	-7.2585034013605405	n/a	n/a	n/a	ISITrial	Mixed
105.812	3.232	0.014	639.63	34.0	2	-5.0	-5.0	31.7524	70.0	0.2	Certain	-8.76	-1.5	3.2315	Yes	n/a	-7.2585034013605405	n/a	n/a	n/a	TrialHappPreview	Mixed
109.061	4.016	0.017	642.879	34.0	2	-5.0	-5.0	31.7524	70.0	0.2	Certain	-8.76	-1.5	3.2315	Yes	n/a	-7.2585034013605405	n/a	n/a	384.0	TrialHappiness	Mixed
109.062	1.969	n/a	643.569	34.0	2	-5.0	-5.0	31.7524	70.0	0.2	Certain	-8.76	-1.5	3.2315	Yes	n/a	-7.2585034013605405	n/a	n/a	384.0	TrialHappinessSliderResponse	Mixed
113.077	4.926	4.016	646.895	34.0	2	-5.0	-5.0	31.7524	70.0	0.2	Certain	-8.76	-1.5	3.2315	Yes	n/a	-7.2585034013605405	n/a	n/a	n/a	ISIRate	Mixed
118.025	3.0	0.022	651.843	35.0	2	3.38	2.0	32.1749	70.0	2.8	Outcome2	1.83	3.38	0.0	No	2.0	1.5498866213151898	1.329	119.354	n/a	GetAnswer	Loss
119.374	4.0	0.019	653.192	35.0	2	3.38	2.0	32.1749	70.0	2.8	Outcome2	1.83	3.38	0.0	No	n/a	1.5498866213151898	n/a	n/a	n/a	ShowChoice	Loss
123.39	1.0	0.016	657.208	35.0	2	3.38	2.0	32.1749	70.0	2.8	Outcome2	1.83	3.38	0.0	No	n/a	1.5498866213151898	n/a	n/a	n/a	ShowResult	Loss
124.406	2.098	0.016	658.224	35.0	2	3.38	2.0	32.1749	70.0	2.8	Outcome2	1.83	3.38	0.0	No	n/a	1.5498866213151898	n/a	n/a	n/a	ISITrial	Loss
126.522	3.0	0.018	660.34	36.0	2	0.0	0.0	32.1749	70.0	1.68	Certain	-4.49	4.5	3.33575	Yes	4.0	-8.98639455782313	1.587	128.109	n/a	GetAnswer	Gain
128.121	4.0	0.012	661.939	36.0	2	0.0	0.0	32.1749	70.0	1.68	Certain	-4.49	4.5	3.33575	Yes	n/a	-8.98639455782313	n/a	n/a	n/a	ShowChoice	Gain
132.137	1.0	0.016	665.955	36.0	2	0.0	0.0	32.1749	70.0	1.68	Certain	-4.49	4.5	3.33575	Yes	n/a	-8.98639455782313	n/a	n/a	n/a	ShowResult	Gain
133.153	5.156	0.016	666.971	36.0	2	0.0	0.0	32.1749	70.0	1.68	Certain	-4.49	4.5	3.33575	Yes	n/a	-8.98639455782313	n/a	n/a	n/a	ISITrial	Gain
138.334	3.336	0.025	672.152	36.0	2	0.0	0.0	32.1749	70.0	1.68	Certain	-4.49	4.5	3.33575	Yes	n/a	-8.98639455782313	n/a	n/a	n/a	TrialHappPreview	Gain
141.7	4.015	0.03	675.518	36.0	2	0.0	0.0	32.1749	70.0	1.68	Certain	-4.49	4.5	3.33575	Yes	n/a	-8.98639455782313	n/a	n/a	504.0	TrialHappiness	Gain
141.7	1.331	n/a	676.926	36.0	2	0.0	0.0	32.1749	70.0	1.68	Certain	-4.49	4.5	3.33575	Yes	n/a	-8.98639455782313	n/a	n/a	504.0	TrialHappinessSliderResponse	Gain
145.715	5.343	4.015	679.533	36.0	2	0.0	0.0	32.1749	70.0	1.68	Certain	-4.49	4.5	3.33575	Yes	n/a	-8.98639455782313	n/a	n/a	n/a	ISIRate	Gain
151.08	3.0	0.022	684.898	37.0	2	-7.0	-7.0	31.2999	70.0	0.3	Certain	-1.3	-12.68	0.0	No	4.0	-11.3832199546485	1.511	152.591	n/a	GetAnswer	Mixed
152.613	4.0	0.022	686.431	37.0	2	-7.0	-7.0	31.2999	70.0	0.3	Certain	-1.3	-12.68	0.0	No	n/a	-11.3832199546485	n/a	n/a	n/a	ShowChoice	Mixed
156.628	1.0	0.015	690.446	37.0	2	-7.0	-7.0	31.2999	70.0	0.3	Certain	-1.3	-12.68	0.0	No	n/a	-11.3832199546485	n/a	n/a	n/a	ShowResult	Mixed
157.644	3.598	0.016	691.462	37.0	2	-7.0	-7.0	31.2999	70.0	0.3	Certain	-1.3	-12.68	0.0	No	n/a	-11.3832199546485	n/a	n/a	n/a	ISITrial	Mixed
161.26	3.0	0.018	695.078	38.0	2	-7.58	-1.0	30.3524	70.0	2.0	Outcome1	-7.58	4.3	0.0	No	2.0	-11.875283446712	2.267	163.527	n/a	GetAnswer	Mixed
163.542	4.0	0.015	697.36	38.0	2	-7.58	-1.0	30.3524	70.0	2.0	Outcome1	-7.58	4.3	0.0	No	n/a	-11.875283446712	n/a	n/a	n/a	ShowChoice	Mixed
167.557	1.0	0.015	701.375	38.0	2	-7.58	-1.0	30.3524	70.0	2.0	Outcome1	-7.58	4.3	0.0	No	n/a	-11.875283446712	n/a	n/a	n/a	ShowResult	Mixed
168.574	4.787	0.017	702.392	38.0	2	-7.58	-1.0	30.3524	70.0	2.0	Outcome1	-7.58	4.3	0.0	No	n/a	-11.875283446712	n/a	n/a	n/a	ISITrial	Mixed
173.389	3.0	0.028	707.207	39.0	2	1.38	0.0	30.5249	70.0	2.8	Outcome2	-0.8	1.38	2.86425	Yes	2.0	2.17876039304611	1.394	174.783	n/a	GetAnswer	Gain
174.805	4.0	0.022	708.623	39.0	2	1.38	0.0	30.5249	70.0	2.8	Outcome2	-0.8	1.38	2.86425	Yes	n/a	2.17876039304611	n/a	n/a	n/a	ShowChoice	Gain
178.82	1.0	0.015	712.638	39.0	2	1.38	0.0	30.5249	70.0	2.8	Outcome2	-0.8	1.38	2.86425	Yes	n/a	2.17876039304611	n/a	n/a	n/a	ShowResult	Gain
179.836	2.348	0.016	713.654	39.0	2	1.38	0.0	30.5249	70.0	2.8	Outcome2	-0.8	1.38	2.86425	Yes	n/a	2.17876039304611	n/a	n/a	n/a	ISITrial	Gain
182.202	2.864	0.018	716.02	39.0	2	1.38	0.0	30.5249	70.0	2.8	Outcome2	-0.8	1.38	2.86425	Yes	n/a	2.17876039304611	n/a	n/a	n/a	TrialHappPreview	Gain
185.085	4.015	0.019	718.903	39.0	2	1.38	0.0	30.5249	70.0	2.8	Outcome2	-0.8	1.38	2.86425	Yes	n/a	2.17876039304611	n/a	n/a	360.0	TrialHappiness	Gain
185.085	2.055	n/a	719.471	39.0	2	1.38	0.0	30.5249	70.0	2.8	Outcome2	-0.8	1.38	2.86425	Yes	n/a	2.17876039304611	n/a	n/a	360.0	TrialHappinessSliderResponse	Gain
189.1	3.457	4.015	722.918	39.0	2	1.38	0.0	30.5249	70.0	2.8	Outcome2	-0.8	1.38	2.86425	Yes	n/a	2.17876039304611	n/a	n/a	n/a	ISIRate	Gain
192.582	3.0	0.025	726.4	40.0	2	1.58	1.0	30.7224	70.0	5.0	Outcome2	-0.05	1.58	0.0	No	2.0	1.6347316704459598	1.176	193.758	n/a	GetAnswer	Gain
193.781	4.0	0.023	727.599	40.0	2	1.58	1.0	30.7224	70.0	5.0	Outcome2	-0.05	1.58	0.0	No	n/a	1.6347316704459598	n/a	n/a	n/a	ShowChoice	Gain
197.797	1.0	0.016	731.615	40.0	2	1.58	1.0	30.7224	70.0	5.0	Outcome2	-0.05	1.58	0.0	No	n/a	1.6347316704459598	n/a	n/a	n/a	ShowResult	Gain
198.813	3.158	0.016	732.631	40.0	2	1.58	1.0	30.7224	70.0	5.0	Outcome2	-0.05	1.58	0.0	No	n/a	1.6347316704459598	n/a	n/a	n/a	ISITrial	Gain
201.995	3.0	0.024	735.813	41.0	2	-2.44	-1.22	30.4174	70.0	5.0	Outcome1	-2.44	8.3	4.0	Yes	2.0	-10.739229024943302	1.909	203.904	n/a	GetAnswer	Gain
203.928	4.0	0.024	737.746	41.0	2	-2.44	-1.22	30.4174	70.0	5.0	Outcome1	-2.44	8.3	4.0	Yes	n/a	-10.739229024943302	n/a	n/a	n/a	ShowChoice	Gain
207.943	1.0	0.015	741.761	41.0	2	-2.44	-1.22	30.4174	70.0	5.0	Outcome1	-2.44	8.3	4.0	Yes	n/a	-10.739229024943302	n/a	n/a	n/a	ShowResult	Gain
208.959	4.506	0.016	742.777	41.0	2	-2.44	-1.22	30.4174	70.0	5.0	Outcome1	-2.44	8.3	4.0	Yes	n/a	-10.739229024943302	n/a	n/a	n/a	ISITrial	Gain
213.491	4.0	0.026	747.309	41.0	2	-2.44	-1.22	30.4174	70.0	5.0	Outcome1	-2.44	8.3	4.0	Yes	n/a	-10.739229024943302	n/a	n/a	n/a	TrialHappPreview	Gain
217.506	4.016	0.015	751.324	41.0	2	-2.44	-1.22	30.4174	70.0	5.0	Outcome1	-2.44	8.3	4.0	Yes	4{-4}4{-4}4{-4}4{-4}4{-4}	-10.739229024943302	1.957	219.463	336.0	TrialHappiness	Gain
217.507	1.665	n/a	751.617	41.0	2	-2.44	-1.22	30.4174	70.0	5.0	Outcome1	-2.44	8.3	4.0	Yes	n/a	-10.739229024943302	n/a	n/a	336.0	TrialHappinessSliderResponse	Gain
221.522	8.0	4.016	755.34	41.0	2	-2.44	-1.22	30.4174	70.0	5.0	Outcome1	-2.44	8.3	4.0	Yes	n/a	-10.739229024943302	n/a	n/a	n/a	ISIRate	Gain
229.552	3.0	0.03	763.37	42.0	2	0.0	0.0	30.4174	70.0	2.22	Certain	-5.56	5.1	0.0	No	4.0	-10.6598639455782	1.413	230.965	n/a	GetAnswer	Gain
230.985	4.0	0.02	764.803	42.0	2	0.0	0.0	30.4174	70.0	2.22	Certain	-5.56	5.1	0.0	No	n/a	-10.6598639455782	n/a	n/a	n/a	ShowChoice	Gain
235.0	1.0	0.015	768.818	42.0	2	0.0	0.0	30.4174	70.0	2.22	Certain	-5.56	5.1	0.0	No	n/a	-10.6598639455782	n/a	n/a	n/a	ShowResult	Gain
236.017	6.248	0.017	769.835	42.0	2	0.0	0.0	30.4174	70.0	2.22	Certain	-5.56	5.1	0.0	No	n/a	-10.6598639455782	n/a	n/a	n/a	ISITrial	Gain
242.281	3.0	0.016	776.099	43.0	2	-1.86	-0.93	30.1849	70.0	2.22	Outcome2	9.1	-1.86	2.77575	Yes	2.0	-10.9614512471655	1.251	243.532	n/a	GetAnswer	Gain
243.547	4.0	0.015	777.365	43.0	2	-1.86	-0.93	30.1849	70.0	2.22	Outcome2	9.1	-1.86	2.77575	Yes	n/a	-10.9614512471655	n/a	n/a	n/a	ShowChoice	Gain
247.563	1.0	0.016	781.381	43.0	2	-1.86	-0.93	30.1849	70.0	2.22	Outcome2	9.1	-1.86	2.77575	Yes	n/a	-10.9614512471655	n/a	n/a	n/a	ShowResult	Gain
248.579	4.596	0.016	782.397	43.0	2	-1.86	-0.93	30.1849	70.0	2.22	Outcome2	9.1	-1.86	2.77575	Yes	n/a	-10.9614512471655	n/a	n/a	n/a	ISITrial	Gain
253.194	2.776	0.019	787.012	43.0	2	-1.86	-0.93	30.1849	70.0	2.22	Outcome2	9.1	-1.86	2.77575	Yes	n/a	-10.9614512471655	n/a	n/a	n/a	TrialHappPreview	Gain
255.993	4.015	0.023	789.811	43.0	2	-1.86	-0.93	30.1849	70.0	2.22	Outcome2	9.1	-1.86	2.77575	Yes	n/a	-10.9614512471655	n/a	n/a	352.0	TrialHappiness	Gain
255.994	1.702	n/a	789.999	43.0	2	-1.86	-0.93	30.1849	70.0	2.22	Outcome2	9.1	-1.86	2.77575	Yes	n/a	-10.9614512471655	n/a	n/a	352.0	TrialHappinessSliderResponse	Gain
260.008	3.103	4.015	793.826	43.0	2	-1.86	-0.93	30.1849	70.0	2.22	Outcome2	9.1	-1.86	2.77575	Yes	n/a	-10.9614512471655	n/a	n/a	n/a	ISIRate	Gain
263.14	3.0	0.029	796.958	44.0	2	-3.0	-3.0	29.8099	70.0	2.0	Certain	2.3	-9.24	0.0	No	4.0	-11.5351473922902	1.092	264.232	n/a	GetAnswer	Mixed
264.257	4.0	0.025	798.075	44.0	2	-3.0	-3.0	29.8099	70.0	2.0	Certain	2.3	-9.24	0.0	No	n/a	-11.5351473922902	n/a	n/a	n/a	ShowChoice	Mixed
268.272	1.0	0.015	802.09	44.0	2	-3.0	-3.0	29.8099	70.0	2.0	Certain	2.3	-9.24	0.0	No	n/a	-11.5351473922902	n/a	n/a	n/a	ShowResult	Mixed
269.288	2.42	0.016	803.106	44.0	2	-3.0	-3.0	29.8099	70.0	2.0	Certain	2.3	-9.24	0.0	No	n/a	-11.5351473922902	n/a	n/a	n/a	ISITrial	Mixed
271.737	3.0	0.029	805.555	45.0	2	0.0	0.0	29.8099	70.0	0.66	Certain	0.82	-0.91	0.0	No	4.0	1.73393801965231	2.019	273.756	n/a	GetAnswer	Mixed
273.77	4.0	0.014	807.588	45.0	2	0.0	0.0	29.8099	70.0	0.66	Certain	0.82	-0.91	0.0	No	n/a	1.73393801965231	n/a	n/a	n/a	ShowChoice	Mixed
277.785	1.0	0.015	811.603	45.0	2	0.0	0.0	29.8099	70.0	0.66	Certain	0.82	-0.91	0.0	No	n/a	1.73393801965231	n/a	n/a	n/a	ShowResult	Mixed
278.802	3.144	0.017	812.62	45.0	2	0.0	0.0	29.8099	70.0	0.66	Certain	0.82	-0.91	0.0	No	n/a	1.73393801965231	n/a	n/a	n/a	ISITrial	Mixed
281.967	3.0	0.021	815.785	46.0	2	3.22	2.0	30.2124	70.0	2.0	Outcome2	1.46	3.22	3.84125	Yes	2.0	1.7605820105820102	1.063	283.03	n/a	GetAnswer	Loss
283.05	4.0	0.02	816.868	46.0	2	3.22	2.0	30.2124	70.0	2.0	Outcome2	1.46	3.22	3.84125	Yes	n/a	1.7605820105820102	n/a	n/a	n/a	ShowChoice	Loss
287.065	1.0	0.015	820.883	46.0	2	3.22	2.0	30.2124	70.0	2.0	Outcome2	1.46	3.22	3.84125	Yes	n/a	1.7605820105820102	n/a	n/a	n/a	ShowResult	Loss
288.082	2.246	0.017	821.9	46.0	2	3.22	2.0	30.2124	70.0	2.0	Outcome2	1.46	3.22	3.84125	Yes	n/a	1.7605820105820102	n/a	n/a	n/a	ISITrial	Loss
290.347	3.841	0.019	824.165	46.0	2	3.22	2.0	30.2124	70.0	2.0	Outcome2	1.46	3.22	3.84125	Yes	n/a	1.7605820105820102	n/a	n/a	n/a	TrialHappPreview	Loss
294.213	4.015	0.025	828.031	46.0	2	3.22	2.0	30.2124	70.0	2.0	Outcome2	1.46	3.22	3.84125	Yes	n/a	1.7605820105820102	n/a	n/a	496.0	TrialHappiness	Loss
294.213	1.479	n/a	829.324	46.0	2	3.22	2.0	30.2124	70.0	2.0	Outcome2	1.46	3.22	3.84125	Yes	n/a	1.7605820105820102	n/a	n/a	496.0	TrialHappinessSliderResponse	Loss
298.228	7.365	4.015	832.046	46.0	2	3.22	2.0	30.2124	70.0	2.0	Outcome2	1.46	3.22	3.84125	Yes	n/a	1.7605820105820102	n/a	n/a	n/a	ISIRate	Loss
305.609	3.0	0.016	839.427	47.0	2	-12.04	-4.0	28.7074	70.0	0.4	Outcome1	-12.04	2.9	0.0	No	2.0	-14.9433106575964	1.692	307.301	n/a	GetAnswer	Mixed
307.325	4.0	0.024	841.143	47.0	2	-12.04	-4.0	28.7074	70.0	0.4	Outcome1	-12.04	2.9	0.0	No	n/a	-14.9433106575964	n/a	n/a	n/a	ShowChoice	Mixed
311.34	1.0	0.015	845.158	47.0	2	-12.04	-4.0	28.7074	70.0	0.4	Outcome1	-12.04	2.9	0.0	No	n/a	-14.9433106575964	n/a	n/a	n/a	ShowResult	Mixed
312.356	2.0	0.016	846.174	47.0	2	-12.04	-4.0	28.7074	70.0	0.4	Outcome1	-12.04	2.9	0.0	No	n/a	-14.9433106575964	n/a	n/a	n/a	ISITrial	Mixed
314.372	3.0	0.016	848.19	48.0	2	-6.0	-6.0	27.9574	70.0	0.52	Certain	1.1	-14.33	2.83175	Yes	4.0	-15.4263038548753	1.042	315.414	n/a	GetAnswer	Mixed
315.439	4.0	0.025	849.257	48.0	2	-6.0	-6.0	27.9574	70.0	0.52	Certain	1.1	-14.33	2.83175	Yes	n/a	-15.4263038548753	n/a	n/a	n/a	ShowChoice	Mixed
319.454	1.0	0.015	853.272	48.0	2	-6.0	-6.0	27.9574	70.0	0.52	Certain	1.1	-14.33	2.83175	Yes	n/a	-15.4263038548753	n/a	n/a	n/a	ShowResult	Mixed
320.47	3.692	0.016	854.288	48.0	2	-6.0	-6.0	27.9574	70.0	0.52	Certain	1.1	-14.33	2.83175	Yes	n/a	-15.4263038548753	n/a	n/a	n/a	ISITrial	Mixed
324.186	2.832	0.024	858.004	48.0	2	-6.0	-6.0	27.9574	70.0	0.52	Certain	1.1	-14.33	2.83175	Yes	n/a	-15.4263038548753	n/a	n/a	n/a	TrialHappPreview	Mixed
327.035	4.015	0.017	860.853	48.0	2	-6.0	-6.0	27.9574	70.0	0.52	Certain	1.1	-14.33	2.83175	Yes	n/a	-15.4263038548753	n/a	n/a	208.0	TrialHappiness	Mixed
327.035	2.007	n/a	861.32	48.0	2	-6.0	-6.0	27.9574	70.0	0.52	Certain	1.1	-14.33	2.83175	Yes	n/a	-15.4263038548753	n/a	n/a	208.0	TrialHappinessSliderResponse	Mixed
331.05	3.327	4.015	864.868	48.0	2	-6.0	-6.0	27.9574	70.0	0.52	Certain	1.1	-14.33	2.83175	Yes	n/a	-15.4263038548753	n/a	n/a	n/a	ISIRate	Mixed
334.399	3.0	0.022	868.217	49.0	2	1.48	1.0	28.1424	70.0	3.6	Outcome2	0.2	1.48	0.0	No	2.0	1.28269085411943	1.124	335.523	n/a	GetAnswer	Gain
335.548	4.0	0.025	869.366	49.0	2	1.48	1.0	28.1424	70.0	3.6	Outcome2	0.2	1.48	0.0	No	n/a	1.28269085411943	n/a	n/a	n/a	ShowChoice	Gain
339.563	1.0	0.015	873.381	49.0	2	1.48	1.0	28.1424	70.0	3.6	Outcome2	0.2	1.48	0.0	No	n/a	1.28269085411943	n/a	n/a	n/a	ShowResult	Gain
340.58	8.0	0.017	874.398	49.0	2	1.48	1.0	28.1424	70.0	3.6	Outcome2	0.2	1.48	0.0	No	n/a	1.28269085411943	n/a	n/a	n/a	ISITrial	Gain
348.61	3.0	0.03	882.428	50.0	2	1.33	0.66	28.3086	70.0	1.68	Outcome1	1.33	12.5	3.54725	Yes	2.0	-11.1678004535147	1.656	350.266	n/a	GetAnswer	Loss
350.293	4.0	0.027	884.111	50.0	2	1.33	0.66	28.3086	70.0	1.68	Outcome1	1.33	12.5	3.54725	Yes	n/a	-11.1678004535147	n/a	n/a	n/a	ShowChoice	Loss
354.308	1.0	0.015	888.126	50.0	2	1.33	0.66	28.3086	70.0	1.68	Outcome1	1.33	12.5	3.54725	Yes	n/a	-11.1678004535147	n/a	n/a	n/a	ShowResult	Loss
355.325	7.537	0.017	889.143	50.0	2	1.33	0.66	28.3086	70.0	1.68	Outcome1	1.33	12.5	3.54725	Yes	n/a	-11.1678004535147	n/a	n/a	n/a	ISITrial	Loss
362.889	3.547	0.027	896.707	50.0	2	1.33	0.66	28.3086	70.0	1.68	Outcome1	1.33	12.5	3.54725	Yes	n/a	-11.1678004535147	n/a	n/a	n/a	TrialHappPreview	Loss
366.454	4.015	0.018	900.272	50.0	2	1.33	0.66	28.3086	70.0	1.68	Outcome1	1.33	12.5	3.54725	Yes	n/a	-11.1678004535147	n/a	n/a	376.0	TrialHappiness	Loss
366.455	2.24	n/a	901.023	50.0	2	1.33	0.66	28.3086	70.0	1.68	Outcome1	1.33	12.5	3.54725	Yes	n/a	-11.1678004535147	n/a	n/a	376.0	TrialHappinessSliderResponse	Loss
370.469	6.189	4.015	904.287	50.0	2	1.33	0.66	28.3086	70.0	1.68	Outcome1	1.33	12.5	3.54725	Yes	n/a	-11.1678004535147	n/a	n/a	n/a	ISIRate	Loss
376.684	3.0	0.026	910.502	51.0	2	-7.0	-7.0	27.4336	70.0	0.82	Certain	-14.68	-0.5	0.0	No	4.0	-14.1814058956916	1.206	377.89	n/a	GetAnswer	Mixed
377.917	4.0	0.027	911.735	51.0	2	-7.0	-7.0	27.4336	70.0	0.82	Certain	-14.68	-0.5	0.0	No	n/a	-14.1814058956916	n/a	n/a	n/a	ShowChoice	Mixed
381.932	1.0	0.015	915.75	51.0	2	-7.0	-7.0	27.4336	70.0	0.82	Certain	-14.68	-0.5	0.0	No	n/a	-14.1814058956916	n/a	n/a	n/a	ShowResult	Mixed
382.948	5.508	0.016	916.766	51.0	2	-7.0	-7.0	27.4336	70.0	0.82	Certain	-14.68	-0.5	0.0	No	n/a	-14.1814058956916	n/a	n/a	n/a	ISITrial	Mixed
388.48	3.0	0.024	922.298	52.0	2	0.0	0.0	27.4336	70.0	3.6	Certain	7.9	-6.63	0.0	No	4.0	-14.5283446712018	1.309	389.789	n/a	GetAnswer	Gain
389.812	4.0	0.023	923.63	52.0	2	0.0	0.0	27.4336	70.0	3.6	Certain	7.9	-6.63	0.0	No	n/a	-14.5283446712018	n/a	n/a	n/a	ShowChoice	Gain
393.828	1.0	0.016	927.646	52.0	2	0.0	0.0	27.4336	70.0	3.6	Certain	7.9	-6.63	0.0	No	n/a	-14.5283446712018	n/a	n/a	n/a	ShowResult	Gain
394.844	5.913	0.016	928.662	52.0	2	0.0	0.0	27.4336	70.0	3.6	Certain	7.9	-6.63	0.0	No	n/a	-14.5283446712018	n/a	n/a	n/a	ISITrial	Gain
400.775	3.0	0.018	934.593	53.0	2	2.58	1.0	27.7561	70.0	5.0	Outcome2	0.53	2.58	2.99675	Yes	2.0	2.04913076341648	1.061	401.836	n/a	GetAnswer	Gain
401.858	4.0	0.022	935.676	53.0	2	2.58	1.0	27.7561	70.0	5.0	Outcome2	0.53	2.58	2.99675	Yes	n/a	2.04913076341648	n/a	n/a	n/a	ShowChoice	Gain
405.873	1.0	0.015	939.691	53.0	2	2.58	1.0	27.7561	70.0	5.0	Outcome2	0.53	2.58	2.99675	Yes	n/a	2.04913076341648	n/a	n/a	n/a	ShowResult	Gain
406.89	3.66	0.017	940.708	53.0	2	2.58	1.0	27.7561	70.0	5.0	Outcome2	0.53	2.58	2.99675	Yes	n/a	2.04913076341648	n/a	n/a	n/a	ISITrial	Gain
410.572	2.997	0.022	944.39	53.0	2	2.58	1.0	27.7561	70.0	5.0	Outcome2	0.53	2.58	2.99675	Yes	n/a	2.04913076341648	n/a	n/a	n/a	TrialHappPreview	Gain
413.587	4.016	0.018	947.405	53.0	2	2.58	1.0	27.7561	70.0	5.0	Outcome2	0.53	2.58	2.99675	Yes	n/a	2.04913076341648	n/a	n/a	568.0	TrialHappiness	Gain
413.588	1.18	n/a	947.833	53.0	2	2.58	1.0	27.7561	70.0	5.0	Outcome2	0.53	2.58	2.99675	Yes	n/a	2.04913076341648	n/a	n/a	568.0	TrialHappinessSliderResponse	Gain
417.603	3.987	4.016	951.421	53.0	2	2.58	1.0	27.7561	70.0	5.0	Outcome2	0.53	2.58	2.99675	Yes	n/a	2.04913076341648	n/a	n/a	n/a	ISIRate	Gain
421.618	3.0	0.028	955.436	54.0	2	1.0	1.0	27.8811	70.0	2.0	Certain	-0.64	2.22	0.0	No	4.0	2.8580876795162498	1.528	423.146	n/a	GetAnswer	Gain
423.167	4.0	0.021	956.985	54.0	2	1.0	1.0	27.8811	70.0	2.0	Certain	-0.64	2.22	0.0	No	n/a	2.8580876795162498	n/a	n/a	n/a	ShowChoice	Gain
427.183	1.0	0.016	961.001	54.0	2	1.0	1.0	27.8811	70.0	2.0	Certain	-0.64	2.22	0.0	No	n/a	2.8580876795162498	n/a	n/a	n/a	ShowResult	Gain
428.199	8.0	0.016	962.017	54.0	2	1.0	1.0	27.8811	70.0	2.0	Certain	-0.64	2.22	0.0	No	n/a	2.8580876795162498	n/a	n/a	n/a	ISITrial	Gain
472.517	2.087	n/a	1007.971	n/a	2	n/a	n/a	n/a	n/a	n/a	n/a	n/a	n/a	n/a	n/a	n/a	n/a	n/a	n/a	616.0	BlockStartHappinessSliderResponse	n/a
-47.717	-0.001	0.03	970.047	n/a	3	n/a	n/a	n/a	n/a	n/a	n/a	n/a	n/a	n/a	n/a	{SPACE}	n/a	32.248	-15.469	n/a	Rest	n/a
-15.445	4.0	0.024	1002.319	n/a	3	n/a	n/a	n/a	n/a	n/a	n/a	n/a	n/a	n/a	n/a	n/a	n/a	n/a	n/a	n/a	BlockHappyPreview	n/a
-11.429	3.723	0.016	1006.335	n/a	3	n/a	n/a	n/a	n/a	n/a	n/a	n/a	n/a	n/a	n/a	n/a	n/a	n/a	n/a	616.0	BlockStartHappiness	n/a
-4.765	-0.001	0.016	1012.999	n/a	3	n/a	n/a	n/a	n/a	n/a	n/a	n/a	n/a	n/a	n/a	5.0	n/a	4.74	-0.025	n/a	ScanWait	n/a
0.0	10.0	0.025	1017.764	n/a	3	n/a	n/a	n/a	n/a	n/a	n/a	n/a	n/a	n/a	n/a	n/a	n/a	n/a	n/a	n/a	GetReady	n/a
10.013	3.0	0.013	1027.777	55.0	3	9.3	1.77	29.0436	955.0	2.48	Outcome2	3.54	9.3	2.53325	Yes	2.0	5.75877689694224	0.958	10.971	n/a	GetAnswer	Gain
10.996	4.0	0.025	1028.76	55.0	3	9.3	1.77	29.0436	955.0	2.48	Outcome2	3.54	9.3	2.53325	Yes	n/a	5.75877689694224	n/a	n/a	n/a	ShowChoice	Gain
15.011	1.0	0.015	1032.775	55.0	3	9.3	1.77	29.0436	955.0	2.48	Outcome2	3.54	9.3	2.53325	Yes	n/a	5.75877689694224	n/a	n/a	n/a	ShowResult	Gain
16.028	7.709	0.017	1033.792	55.0	3	9.3	1.77	29.0436	955.0	2.48	Outcome2	3.54	9.3	2.53325	Yes	n/a	5.75877689694224	n/a	n/a	n/a	ISITrial	Gain
23.758	2.533	0.021	1041.522	55.0	3	9.3	1.77	29.0436	955.0	2.48	Outcome2	3.54	9.3	2.53325	Yes	n/a	5.75877689694224	n/a	n/a	n/a	TrialHappPreview	Gain
26.307	4.016	0.016	1044.071	55.0	3	9.3	1.77	29.0436	955.0	2.48	Outcome2	3.54	9.3	2.53325	Yes	n/a	5.75877689694224	n/a	n/a	680.0	TrialHappiness	Gain
26.308	2.229	n/a	1044.666	55.0	3	9.3	1.77	29.0436	955.0	2.48	Outcome2	3.54	9.3	2.53325	Yes	n/a	5.75877689694224	n/a	n/a	680.0	TrialHappinessSliderResponse	Gain
30.323	2.133	4.016	1048.087	55.0	3	9.3	1.77	29.0436	955.0	2.48	Outcome2	3.54	9.3	2.53325	Yes	n/a	5.75877689694224	n/a	n/a	n/a	ISIRate	Gain
32.472	3.0	0.016	1050.236	56.0	3	1.0	1.0	29.1686	955.0	0.82	Certain	-1.56	3.5	0.0	No	4.0	5.055492638731599	1.848	34.32	n/a	GetAnswer	Mixed
34.338	4.0	0.018	1052.102	56.0	3	1.0	1.0	29.1686	955.0	0.82	Certain	-1.56	3.5	0.0	No	n/a	5.055492638731599	n/a	n/a	n/a	ShowChoice	Mixed
38.353	1.0	0.015	1056.117	56.0	3	1.0	1.0	29.1686	955.0	0.82	Certain	-1.56	3.5	0.0	No	n/a	5.055492638731599	n/a	n/a	n/a	ShowResult	Mixed
39.369	4.697	0.016	1057.133	56.0	3	1.0	1.0	29.1686	955.0	0.82	Certain	-1.56	3.5	0.0	No	n/a	5.055492638731599	n/a	n/a	n/a	ISITrial	Mixed
44.084	3.0	0.018	1061.848	57.0	3	6.33	3.16	29.9598	955.0	2.8	Outcome2	7.5	6.33	0.0	No	2.0	-1.1739335598338998	0.877	44.961	n/a	GetAnswer	Gain
44.984	4.0	0.023	1062.748	57.0	3	6.33	3.16	29.9598	955.0	2.8	Outcome2	7.5	6.33	0.0	No	n/a	-1.1739335598338998	n/a	n/a	n/a	ShowChoice	Gain
48.999	1.0	0.015	1066.763	57.0	3	6.33	3.16	29.9598	955.0	2.8	Outcome2	7.5	6.33	0.0	No	n/a	-1.1739335598338998	n/a	n/a	n/a	ShowResult	Gain
50.016	4.291	0.017	1067.78	57.0	3	6.33	3.16	29.9598	955.0	2.8	Outcome2	7.5	6.33	0.0	No	n/a	-1.1739335598338998	n/a	n/a	n/a	ISITrial	Gain
54.331	3.0	0.024	1072.095	58.0	3	3.9	1.0	30.4473	955.0	1.2	Outcome1	3.9	-1.78	3.04575	Yes	2.0	5.67836919592299	1.825	56.156	n/a	GetAnswer	Mixed
56.18	4.0	0.024	1073.944	58.0	3	3.9	1.0	30.4473	955.0	1.2	Outcome1	3.9	-1.78	3.04575	Yes	n/a	5.67836919592299	n/a	n/a	n/a	ShowChoice	Mixed
60.195	1.0	0.015	1077.959	58.0	3	3.9	1.0	30.4473	955.0	1.2	Outcome1	3.9	-1.78	3.04575	Yes	n/a	5.67836919592299	n/a	n/a	n/a	ShowResult	Mixed
61.212	2.037	0.017	1078.976	58.0	3	3.9	1.0	30.4473	955.0	1.2	Outcome1	3.9	-1.78	3.04575	Yes	n/a	5.67836919592299	n/a	n/a	n/a	ISITrial	Mixed
63.261	3.046	0.012	1081.025	58.0	3	3.9	1.0	30.4473	955.0	1.2	Outcome1	3.9	-1.78	3.04575	Yes	n/a	5.67836919592299	n/a	n/a	n/a	TrialHappPreview	Mixed
66.327	4.015	0.02	1084.091	58.0	3	3.9	1.0	30.4473	955.0	1.2	Outcome1	3.9	-1.78	3.04575	Yes	n/a	5.67836919592299	n/a	n/a	772.0	TrialHappiness	Mixed
66.327	2.152	n/a	1084.212	58.0	3	3.9	1.0	30.4473	955.0	1.2	Outcome1	3.9	-1.78	3.04575	Yes	n/a	5.67836919592299	n/a	n/a	772.0	TrialHappinessSliderResponse	Mixed
70.342	4.183	4.015	1088.106	58.0	3	3.9	1.0	30.4473	955.0	1.2	Outcome1	3.9	-1.78	3.04575	Yes	n/a	5.67836919592299	n/a	n/a	n/a	ISIRate	Mixed
74.557	3.0	0.032	1092.321	59.0	3	5.25	2.62	31.1035	955.0	4.2	Outcome2	6.1	5.25	0.0	No	2.0	-0.852491506228766	1.105	75.662	n/a	GetAnswer	Gain
75.673	4.0	0.011	1093.437	59.0	3	5.25	2.62	31.1035	955.0	4.2	Outcome2	6.1	5.25	0.0	No	n/a	-0.852491506228766	n/a	n/a	n/a	ShowChoice	Gain
79.689	1.0	0.016	1097.453	59.0	3	5.25	2.62	31.1035	955.0	4.2	Outcome2	6.1	5.25	0.0	No	n/a	-0.852491506228766	n/a	n/a	n/a	ShowResult	Gain
80.705	5.064	0.016	1098.469	59.0	3	5.25	2.62	31.1035	955.0	4.2	Outcome2	6.1	5.25	0.0	No	n/a	-0.852491506228766	n/a	n/a	n/a	ISITrial	Gain
85.786	3.0	0.017	1103.55	60.0	3	0.03	0.0	31.1073	955.0	0.4	Outcome1	0.03	0.9	3.5625	Yes	2.0	-0.8697621744054359	1.368	87.154	n/a	GetAnswer	Mixed
87.169	4.0	0.015	1104.933	60.0	3	0.03	0.0	31.1073	955.0	0.4	Outcome1	0.03	0.9	3.5625	Yes	n/a	-0.8697621744054359	n/a	n/a	n/a	ShowChoice	Mixed
91.184	1.0	0.015	1108.948	60.0	3	0.03	0.0	31.1073	955.0	0.4	Outcome1	0.03	0.9	3.5625	Yes	n/a	-0.8697621744054359	n/a	n/a	n/a	ShowResult	Mixed
92.201	8.0	0.017	1109.965	60.0	3	0.03	0.0	31.1073	955.0	0.4	Outcome1	0.03	0.9	3.5625	Yes	n/a	-0.8697621744054359	n/a	n/a	n/a	ISITrial	Mixed
100.215	3.562	0.014	1117.979	60.0	3	0.03	0.0	31.1073	955.0	0.4	Outcome1	0.03	0.9	3.5625	Yes	n/a	-0.8697621744054359	n/a	n/a	n/a	TrialHappPreview	Mixed
103.797	4.015	0.02	1121.561	60.0	3	0.03	0.0	31.1073	955.0	0.4	Outcome1	0.03	0.9	3.5625	Yes	n/a	-0.8697621744054359	n/a	n/a	632.0	TrialHappiness	Mixed
103.797	1.42	n/a	1121.964	60.0	3	0.03	0.0	31.1073	955.0	0.4	Outcome1	0.03	0.9	3.5625	Yes	n/a	-0.8697621744054359	n/a	n/a	632.0	TrialHappinessSliderResponse	Mixed
107.812	6.25	4.015	1125.576	60.0	3	0.03	0.0	31.1073	955.0	0.4	Outcome1	0.03	0.9	3.5625	Yes	n/a	-0.8697621744054359	n/a	n/a	n/a	ISIRate	Mixed
114.093	3.0	0.031	1131.857	61.0	3	10.5	1.64	32.4198	955.0	1.68	Outcome1	10.5	3.28	0.0	No	2.0	7.219705549263869	1.135	115.228	n/a	GetAnswer	Loss
115.243	4.0	0.015	1133.007	61.0	3	10.5	1.64	32.4198	955.0	1.68	Outcome1	10.5	3.28	0.0	No	n/a	7.219705549263869	n/a	n/a	n/a	ShowChoice	Loss
119.258	1.0	0.015	1137.022	61.0	3	10.5	1.64	32.4198	955.0	1.68	Outcome1	10.5	3.28	0.0	No	n/a	7.219705549263869	n/a	n/a	n/a	ShowResult	Loss
120.274	4.586	0.016	1138.038	61.0	3	10.5	1.64	32.4198	955.0	1.68	Outcome1	10.5	3.28	0.0	No	n/a	7.219705549263869	n/a	n/a	n/a	ISITrial	Loss
124.889	3.0	0.029	1142.653	62.0	3	-0.19	0.0	32.396	955.0	0.66	Outcome1	-0.19	1.3	3.74875	Yes	2.0	-1.48565496413741	1.69	126.579	n/a	GetAnswer	Mixed
126.605	4.0	0.026	1144.369	62.0	3	-0.19	0.0	32.396	955.0	0.66	Outcome1	-0.19	1.3	3.74875	Yes	n/a	-1.48565496413741	n/a	n/a	n/a	ShowChoice	Mixed
130.621	1.0	0.016	1148.385	62.0	3	-0.19	0.0	32.396	955.0	0.66	Outcome1	-0.19	1.3	3.74875	Yes	n/a	-1.48565496413741	n/a	n/a	n/a	ShowResult	Mixed
131.637	5.212	0.016	1149.401	62.0	3	-0.19	0.0	32.396	955.0	0.66	Outcome1	-0.19	1.3	3.74875	Yes	n/a	-1.48565496413741	n/a	n/a	n/a	ISITrial	Mixed
136.868	3.749	0.019	1154.632	62.0	3	-0.19	0.0	32.396	955.0	0.66	Outcome1	-0.19	1.3	3.74875	Yes	n/a	-1.48565496413741	n/a	n/a	n/a	TrialHappPreview	Mixed
140.634	4.015	0.017	1158.398	62.0	3	-0.19	0.0	32.396	955.0	0.66	Outcome1	-0.19	1.3	3.74875	Yes	n/a	-1.48565496413741	n/a	n/a	768.0	TrialHappiness	Mixed
140.634	1.021	n/a	1158.899	62.0	3	-0.19	0.0	32.396	955.0	0.66	Outcome1	-0.19	1.3	3.74875	Yes	n/a	-1.48565496413741	n/a	n/a	768.0	TrialHappinessSliderResponse	Mixed
144.649	6.995	4.015	1162.413	62.0	3	-0.19	0.0	32.396	955.0	0.66	Outcome1	-0.19	1.3	3.74875	Yes	n/a	-1.48565496413741	n/a	n/a	n/a	ISIRate	Mixed
151.663	3.0	0.019	1169.427	63.0	3	11.5	2.93	33.8335	955.0	2.8	Outcome1	11.5	5.86	0.0	No	2.0	5.6409966024915095	0.92	152.583	n/a	GetAnswer	Loss
152.596	4.0	0.013	1170.36	63.0	3	11.5	2.93	33.8335	955.0	2.8	Outcome1	11.5	5.86	0.0	No	n/a	5.6409966024915095	n/a	n/a	n/a	ShowChoice	Loss
156.611	1.0	0.015	1174.375	63.0	3	11.5	2.93	33.8335	955.0	2.8	Outcome1	11.5	5.86	0.0	No	n/a	5.6409966024915095	n/a	n/a	n/a	ShowResult	Loss
157.628	5.595	0.017	1175.392	63.0	3	11.5	2.93	33.8335	955.0	2.8	Outcome1	11.5	5.86	0.0	No	n/a	5.6409966024915095	n/a	n/a	n/a	ISITrial	Loss
163.242	3.0	0.019	1181.006	64.0	3	1.12	1.0	33.9735	955.0	1.5	Outcome2	2.1	1.12	0.0	No	2.0	-0.9818799546998872	1.122	164.364	n/a	GetAnswer	Mixed
164.375	4.0	0.011	1182.139	64.0	3	1.12	1.0	33.9735	955.0	1.5	Outcome2	2.1	1.12	0.0	No	n/a	-0.9818799546998872	n/a	n/a	n/a	ShowChoice	Mixed
168.391	1.0	0.016	1186.155	64.0	3	1.12	1.0	33.9735	955.0	1.5	Outcome2	2.1	1.12	0.0	No	n/a	-0.9818799546998872	n/a	n/a	n/a	ShowResult	Mixed
169.407	5.47	0.016	1187.171	64.0	3	1.12	1.0	33.9735	955.0	1.5	Outcome2	2.1	1.12	0.0	No	n/a	-0.9818799546998872	n/a	n/a	n/a	ISITrial	Mixed
174.905	3.0	0.028	1192.669	65.0	3	11.1	2.52	35.361	955.0	2.22	Outcome1	11.1	5.04	2.99675	Yes	2.0	6.06455266138165	0.945	175.85	n/a	GetAnswer	Loss
175.871	4.0	0.021	1193.635	65.0	3	11.1	2.52	35.361	955.0	2.22	Outcome1	11.1	5.04	2.99675	Yes	n/a	6.06455266138165	n/a	n/a	n/a	ShowChoice	Loss
179.887	1.0	0.016	1197.651	65.0	3	11.1	2.52	35.361	955.0	2.22	Outcome1	11.1	5.04	2.99675	Yes	n/a	6.06455266138165	n/a	n/a	n/a	ShowResult	Loss
180.903	3.344	0.016	1198.667	65.0	3	11.1	2.52	35.361	955.0	2.22	Outcome1	11.1	5.04	2.99675	Yes	n/a	6.06455266138165	n/a	n/a	n/a	ISITrial	Loss
184.268	2.997	0.021	1202.032	65.0	3	11.1	2.52	35.361	955.0	2.22	Outcome1	11.1	5.04	2.99675	Yes	n/a	6.06455266138165	n/a	n/a	n/a	TrialHappPreview	Loss
187.284	4.015	0.019	1205.048	65.0	3	11.1	2.52	35.361	955.0	2.22	Outcome1	11.1	5.04	2.99675	Yes	n/a	6.06455266138165	n/a	n/a	880.0	TrialHappiness	Loss
187.285	1.531	n/a	1205.558	65.0	3	11.1	2.52	35.361	955.0	2.22	Outcome1	11.1	5.04	2.99675	Yes	n/a	6.06455266138165	n/a	n/a	880.0	TrialHappinessSliderResponse	Loss
191.299	3.987	4.015	1209.063	65.0	3	11.1	2.52	35.361	955.0	2.22	Outcome1	11.1	5.04	2.99675	Yes	n/a	6.06455266138165	n/a	n/a	n/a	ISIRate	Loss
195.314	3.0	0.028	1213.078	66.0	3	3.7	1.0	35.8235	955.0	1.0	Outcome1	3.7	-0.67	0.0	No	2.0	4.37372593431484	1.646	196.96	n/a	GetAnswer	Mixed
196.981	4.0	0.02	1214.745	66.0	3	3.7	1.0	35.8235	955.0	1.0	Outcome1	3.7	-0.67	0.0	No	n/a	4.37372593431484	n/a	n/a	n/a	ShowChoice	Mixed
200.996	1.0	0.015	1218.76	66.0	3	3.7	1.0	35.8235	955.0	1.0	Outcome1	3.7	-0.67	0.0	No	n/a	4.37372593431484	n/a	n/a	n/a	ShowResult	Mixed
202.012	3.959	0.016	1219.776	66.0	3	3.7	1.0	35.8235	955.0	1.0	Outcome1	3.7	-0.67	0.0	No	n/a	4.37372593431484	n/a	n/a	n/a	ISITrial	Mixed
205.994	3.0	0.023	1223.758	67.0	3	-2.0	-2.0	35.5735	955.0	2.0	Certain	-4.16	0.3	2.9185	Yes	4.0	4.4586636466591205	1.977	207.971	n/a	GetAnswer	Mixed
207.993	4.0	0.022	1225.757	67.0	3	-2.0	-2.0	35.5735	955.0	2.0	Certain	-4.16	0.3	2.9185	Yes	n/a	4.4586636466591205	n/a	n/a	n/a	ShowChoice	Mixed
212.009	1.0	0.016	1229.773	67.0	3	-2.0	-2.0	35.5735	955.0	2.0	Certain	-4.16	0.3	2.9185	Yes	n/a	4.4586636466591205	n/a	n/a	n/a	ShowResult	Mixed
213.025	4.199	0.016	1230.789	67.0	3	-2.0	-2.0	35.5735	955.0	2.0	Certain	-4.16	0.3	2.9185	Yes	n/a	4.4586636466591205	n/a	n/a	n/a	ISITrial	Mixed
217.24	2.918	0.016	1235.004	67.0	3	-2.0	-2.0	35.5735	955.0	2.0	Certain	-4.16	0.3	2.9185	Yes	n/a	4.4586636466591205	n/a	n/a	n/a	TrialHappPreview	Mixed
220.189	4.015	0.031	1237.953	67.0	3	-2.0	-2.0	35.5735	955.0	2.0	Certain	-4.16	0.3	2.9185	Yes	n/a	4.4586636466591205	n/a	n/a	676.0	TrialHappiness	Mixed
220.19	0.887	n/a	1238.48	67.0	3	-2.0	-2.0	35.5735	955.0	2.0	Certain	-4.16	0.3	2.9185	Yes	n/a	4.4586636466591205	n/a	n/a	676.0	TrialHappinessSliderResponse	Mixed
224.204	3.674	4.015	1241.968	67.0	3	-2.0	-2.0	35.5735	955.0	2.0	Certain	-4.16	0.3	2.9185	Yes	n/a	4.4586636466591205	n/a	n/a	n/a	ISIRate	Mixed
227.903	3.0	0.025	1245.667	68.0	3	0.5	1.0	35.636	955.0	1.2	Outcome1	0.5	1.9	0.0	No	2.0	-1.40468101170253	1.077	228.98	n/a	GetAnswer	Mixed
229.003	4.0	0.023	1246.767	68.0	3	0.5	1.0	35.636	955.0	1.2	Outcome1	0.5	1.9	0.0	No	n/a	-1.40468101170253	n/a	n/a	n/a	ShowChoice	Mixed
233.018	1.0	0.015	1250.782	68.0	3	0.5	1.0	35.636	955.0	1.2	Outcome1	0.5	1.9	0.0	No	n/a	-1.40468101170253	n/a	n/a	n/a	ShowResult	Mixed
234.034	2.185	0.016	1251.798	68.0	3	0.5	1.0	35.636	955.0	1.2	Outcome1	0.5	1.9	0.0	No	n/a	-1.40468101170253	n/a	n/a	n/a	ISITrial	Mixed
236.25	3.0	0.031	1254.014	69.0	3	8.47	4.24	36.6948	955.0	3.6	Outcome2	9.9	8.47	0.0	No	2.0	-1.43101170252926	0.92	237.17	n/a	GetAnswer	Gain
237.183	4.0	0.013	1254.947	69.0	3	8.47	4.24	36.6948	955.0	3.6	Outcome2	9.9	8.47	0.0	No	n/a	-1.43101170252926	n/a	n/a	n/a	ShowChoice	Gain
241.198	1.0	0.015	1258.962	69.0	3	8.47	4.24	36.6948	955.0	3.6	Outcome2	9.9	8.47	0.0	No	n/a	-1.43101170252926	n/a	n/a	n/a	ShowResult	Gain
242.215	2.0	0.017	1259.979	69.0	3	8.47	4.24	36.6948	955.0	3.6	Outcome2	9.9	8.47	0.0	No	n/a	-1.43101170252926	n/a	n/a	n/a	ISITrial	Gain
244.231	3.0	0.016	1261.995	70.0	3	3.24	1.62	37.0998	955.0	1.82	Outcome1	3.24	4.7	3.65125	Yes	2.0	-1.45734239335598	1.258	245.489	n/a	GetAnswer	Gain
245.513	4.0	0.024	1263.277	70.0	3	3.24	1.62	37.0998	955.0	1.82	Outcome1	3.24	4.7	3.65125	Yes	n/a	-1.45734239335598	n/a	n/a	n/a	ShowChoice	Gain
249.529	1.0	0.016	1267.293	70.0	3	3.24	1.62	37.0998	955.0	1.82	Outcome1	3.24	4.7	3.65125	Yes	n/a	-1.45734239335598	n/a	n/a	n/a	ShowResult	Gain
250.545	2.623	0.016	1268.309	70.0	3	3.24	1.62	37.0998	955.0	1.82	Outcome1	3.24	4.7	3.65125	Yes	n/a	-1.45734239335598	n/a	n/a	n/a	ISITrial	Gain
253.194	3.651	0.026	1270.958	70.0	3	3.24	1.62	37.0998	955.0	1.82	Outcome1	3.24	4.7	3.65125	Yes	n/a	-1.45734239335598	n/a	n/a	n/a	TrialHappPreview	Gain
256.859	4.016	0.014	1274.623	70.0	3	3.24	1.62	37.0998	955.0	1.82	Outcome1	3.24	4.7	3.65125	Yes	2{-2}2{-2}4{-4}2{-2}	-1.45734239335598	2.607	259.466	752.0	TrialHappiness	Gain
256.86	2.32	n/a	1274.911	70.0	3	3.24	1.62	37.0998	955.0	1.82	Outcome1	3.24	4.7	3.65125	Yes	n/a	-1.45734239335598	n/a	n/a	752.0	TrialHappinessSliderResponse	Gain
260.875	6.605	4.016	1278.639	70.0	3	3.24	1.62	37.0998	955.0	1.82	Outcome1	3.24	4.7	3.65125	Yes	n/a	-1.45734239335598	n/a	n/a	n/a	ISIRate	Gain
267.506	3.0	0.026	1285.27	71.0	3	-4.0	-4.0	36.5998	955.0	0.66	Certain	-8.37	-0.7	0.0	No	4.0	7.66591166477916	2.0	269.506	n/a	GetAnswer	Mixed
269.522	4.0	0.016	1287.286	71.0	3	-4.0	-4.0	36.5998	955.0	0.66	Certain	-8.37	-0.7	0.0	No	n/a	7.66591166477916	n/a	n/a	n/a	ShowChoice	Mixed
273.537	1.0	0.015	1291.301	71.0	3	-4.0	-4.0	36.5998	955.0	0.66	Certain	-8.37	-0.7	0.0	No	n/a	7.66591166477916	n/a	n/a	n/a	ShowResult	Mixed
274.553	5.499	0.016	1292.317	71.0	3	-4.0	-4.0	36.5998	955.0	0.66	Certain	-8.37	-0.7	0.0	No	n/a	7.66591166477916	n/a	n/a	n/a	ISITrial	Mixed
280.068	3.0	0.016	1297.832	72.0	3	6.5	2.0	37.4123	955.0	1.68	Outcome2	-1.4	6.5	3.0805	Yes	2.0	7.89580973952435	1.384	281.452	n/a	GetAnswer	Gain
281.467	4.0	0.015	1299.231	72.0	3	6.5	2.0	37.4123	955.0	1.68	Outcome2	-1.4	6.5	3.0805	Yes	n/a	7.89580973952435	n/a	n/a	n/a	ShowChoice	Gain
285.483	1.0	0.016	1303.247	72.0	3	6.5	2.0	37.4123	955.0	1.68	Outcome2	-1.4	6.5	3.0805	Yes	n/a	7.89580973952435	n/a	n/a	n/a	ShowResult	Gain
286.499	5.672	0.016	1304.263	72.0	3	6.5	2.0	37.4123	955.0	1.68	Outcome2	-1.4	6.5	3.0805	Yes	n/a	7.89580973952435	n/a	n/a	n/a	ISITrial	Gain
292.197	3.08	0.026	1309.961	72.0	3	6.5	2.0	37.4123	955.0	1.68	Outcome2	-1.4	6.5	3.0805	Yes	n/a	7.89580973952435	n/a	n/a	n/a	TrialHappPreview	Gain
295.296	4.015	0.019	1313.06	72.0	3	6.5	2.0	37.4123	955.0	1.68	Outcome2	-1.4	6.5	3.0805	Yes	n/a	7.89580973952435	n/a	n/a	792.0	TrialHappiness	Gain
295.297	1.953	n/a	1313.515	72.0	3	6.5	2.0	37.4123	955.0	1.68	Outcome2	-1.4	6.5	3.0805	Yes	n/a	7.89580973952435	n/a	n/a	792.0	TrialHappinessSliderResponse	Gain
299.311	4.322	4.015	1317.075	72.0	3	6.5	2.0	37.4123	955.0	1.68	Outcome2	-1.4	6.5	3.0805	Yes	n/a	7.89580973952435	n/a	n/a	n/a	ISIRate	Gain
303.66	3.0	0.027	1321.424	73.0	3	10.85	5.42	38.7685	955.0	3.6	Outcome1	10.85	11.9	0.0	No	2.0	-1.05124575311438	1.012	304.672	n/a	GetAnswer	Loss
304.693	4.0	0.021	1322.457	73.0	3	10.85	5.42	38.7685	955.0	3.6	Outcome1	10.85	11.9	0.0	No	n/a	-1.05124575311438	n/a	n/a	n/a	ShowChoice	Loss
308.708	1.0	0.015	1326.472	73.0	3	10.85	5.42	38.7685	955.0	3.6	Outcome1	10.85	11.9	0.0	No	n/a	-1.05124575311438	n/a	n/a	n/a	ShowResult	Loss
309.724	4.616	0.016	1327.488	73.0	3	10.85	5.42	38.7685	955.0	3.6	Outcome1	10.85	11.9	0.0	No	n/a	-1.05124575311438	n/a	n/a	n/a	ISITrial	Loss
314.356	3.0	0.016	1332.12	74.0	3	3.83	1.92	39.2473	955.0	2.0	Outcome2	4.9	3.83	3.05625	Yes	2.0	-1.06662891657229	1.063	315.419	n/a	GetAnswer	Gain
315.439	4.0	0.02	1333.203	74.0	3	3.83	1.92	39.2473	955.0	2.0	Outcome2	4.9	3.83	3.05625	Yes	n/a	-1.06662891657229	n/a	n/a	n/a	ShowChoice	Gain
319.454	1.0	0.015	1337.218	74.0	3	3.83	1.92	39.2473	955.0	2.0	Outcome2	4.9	3.83	3.05625	Yes	n/a	-1.06662891657229	n/a	n/a	n/a	ShowResult	Gain
320.47	3.909	0.016	1338.234	74.0	3	3.83	1.92	39.2473	955.0	2.0	Outcome2	4.9	3.83	3.05625	Yes	n/a	-1.06662891657229	n/a	n/a	n/a	ISITrial	Gain
324.402	3.056	0.023	1342.166	74.0	3	3.83	1.92	39.2473	955.0	2.0	Outcome2	4.9	3.83	3.05625	Yes	n/a	-1.06662891657229	n/a	n/a	n/a	TrialHappPreview	Gain
327.485	4.031	0.027	1345.249	74.0	3	3.83	1.92	39.2473	955.0	2.0	Outcome2	4.9	3.83	3.05625	Yes	n/a	-1.06662891657229	n/a	n/a	752.0	TrialHappiness	Gain
327.485	3.314	n/a	1345.726	74.0	3	3.83	1.92	39.2473	955.0	2.0	Outcome2	4.9	3.83	3.05625	Yes	n/a	-1.06662891657229	n/a	n/a	752.0	TrialHappinessSliderResponse	Gain
331.516	4.225	4.031	1349.28	74.0	3	3.83	1.92	39.2473	955.0	2.0	Outcome2	4.9	3.83	3.05625	Yes	n/a	-1.06662891657229	n/a	n/a	n/a	ISIRate	Gain
335.765	3.0	0.024	1353.529	75.0	3	-0.54	0.0	39.1798	955.0	0.3	Outcome2	0.7	-0.54	0.0	No	2.0	-1.24433748584371	1.201	336.966	n/a	GetAnswer	Mixed
336.981	4.0	0.015	1354.745	75.0	3	-0.54	0.0	39.1798	955.0	0.3	Outcome2	0.7	-0.54	0.0	No	n/a	-1.24433748584371	n/a	n/a	n/a	ShowChoice	Mixed
340.996	1.0	0.015	1358.76	75.0	3	-0.54	0.0	39.1798	955.0	0.3	Outcome2	0.7	-0.54	0.0	No	n/a	-1.24433748584371	n/a	n/a	n/a	ShowResult	Mixed
342.013	4.979	0.017	1359.777	75.0	3	-0.54	0.0	39.1798	955.0	0.3	Outcome2	0.7	-0.54	0.0	No	n/a	-1.24433748584371	n/a	n/a	n/a	ISITrial	Mixed
347.011	3.0	0.019	1364.775	76.0	3	9.7	0.49	40.3923	955.0	3.16	Outcome1	9.7	0.98	0.0	No	2.0	8.72480181200453	1.073	348.084	n/a	GetAnswer	Gain
348.111	4.0	0.027	1365.875	76.0	3	9.7	0.49	40.3923	955.0	3.16	Outcome1	9.7	0.98	0.0	No	n/a	8.72480181200453	n/a	n/a	n/a	ShowChoice	Gain
352.126	1.0	0.015	1369.89	76.0	3	9.7	0.49	40.3923	955.0	3.16	Outcome1	9.7	0.98	0.0	No	n/a	8.72480181200453	n/a	n/a	n/a	ShowResult	Gain
353.142	3.931	0.016	1370.906	76.0	3	9.7	0.49	40.3923	955.0	3.16	Outcome1	9.7	0.98	0.0	No	n/a	8.72480181200453	n/a	n/a	n/a	ISITrial	Gain
357.091	3.0	0.018	1374.855	77.0	3	0.42	1.0	40.4448	955.0	1.0	Outcome1	0.42	1.7	4.0	Yes	2.0	-1.28265383163458	1.693	358.784	n/a	GetAnswer	Mixed
358.807	4.0	0.023	1376.571	77.0	3	0.42	1.0	40.4448	955.0	1.0	Outcome1	0.42	1.7	4.0	Yes	n/a	-1.28265383163458	n/a	n/a	n/a	ShowChoice	Mixed
362.822	1.0	0.015	1380.586	77.0	3	0.42	1.0	40.4448	955.0	1.0	Outcome1	0.42	1.7	4.0	Yes	n/a	-1.28265383163458	n/a	n/a	n/a	ShowResult	Mixed
363.838	7.022	0.016	1381.602	77.0	3	0.42	1.0	40.4448	955.0	1.0	Outcome1	0.42	1.7	4.0	Yes	n/a	-1.28265383163458	n/a	n/a	n/a	ISITrial	Mixed
370.886	4.0	0.026	1388.65	77.0	3	0.42	1.0	40.4448	955.0	1.0	Outcome1	0.42	1.7	4.0	Yes	n/a	-1.28265383163458	n/a	n/a	n/a	TrialHappPreview	Mixed
374.901	4.015	0.015	1392.665	77.0	3	0.42	1.0	40.4448	955.0	1.0	Outcome1	0.42	1.7	4.0	Yes	n/a	-1.28265383163458	n/a	n/a	776.0	TrialHappiness	Mixed
374.902	0.685	n/a	1393.17	77.0	3	0.42	1.0	40.4448	955.0	1.0	Outcome1	0.42	1.7	4.0	Yes	n/a	-1.28265383163458	n/a	n/a	776.0	TrialHappinessSliderResponse	Mixed
378.916	8.0	4.015	1396.68	77.0	3	0.42	1.0	40.4448	955.0	1.0	Outcome1	0.42	1.7	4.0	Yes	n/a	-1.28265383163458	n/a	n/a	n/a	ISIRate	Mixed
386.947	3.0	0.031	1404.711	78.0	3	-1.0	-1.0	40.3198	955.0	0.3	Certain	-6.08	2.7	0.0	No	4.0	8.776896942242349	1.415	388.362	n/a	GetAnswer	Mixed
388.38	4.0	0.018	1406.144	78.0	3	-1.0	-1.0	40.3198	955.0	0.3	Certain	-6.08	2.7	0.0	No	n/a	8.776896942242349	n/a	n/a	n/a	ShowChoice	Mixed
392.395	1.0	0.015	1410.159	78.0	3	-1.0	-1.0	40.3198	955.0	0.3	Certain	-6.08	2.7	0.0	No	n/a	8.776896942242349	n/a	n/a	n/a	ShowResult	Mixed
393.411	2.078	0.016	1411.175	78.0	3	-1.0	-1.0	40.3198	955.0	0.3	Certain	-6.08	2.7	0.0	No	n/a	8.776896942242349	n/a	n/a	n/a	ISITrial	Mixed
395.511	3.0	0.022	1413.275	79.0	3	-1.0	-1.0	40.1948	955.0	0.4	Certain	2.9	-6.08	2.7295	Yes	4.0	8.97961494903737	2.049	397.56	n/a	GetAnswer	Mixed
397.577	4.0	0.017	1415.341	79.0	3	-1.0	-1.0	40.1948	955.0	0.4	Certain	2.9	-6.08	2.7295	Yes	n/a	8.97961494903737	n/a	n/a	n/a	ShowChoice	Mixed
401.592	1.0	0.015	1419.356	79.0	3	-1.0	-1.0	40.1948	955.0	0.4	Certain	2.9	-6.08	2.7295	Yes	n/a	8.97961494903737	n/a	n/a	n/a	ShowResult	Mixed
402.608	3.829	0.016	1420.372	79.0	3	-1.0	-1.0	40.1948	955.0	0.4	Certain	2.9	-6.08	2.7295	Yes	n/a	8.97961494903737	n/a	n/a	n/a	ISITrial	Mixed
406.457	2.73	0.02	1424.221	79.0	3	-1.0	-1.0	40.1948	955.0	0.4	Certain	2.9	-6.08	2.7295	Yes	n/a	8.97961494903737	n/a	n/a	n/a	TrialHappPreview	Mixed
409.206	4.015	0.019	1426.97	79.0	3	-1.0	-1.0	40.1948	955.0	0.4	Certain	2.9	-6.08	2.7295	Yes	n/a	8.97961494903737	n/a	n/a	712.0	TrialHappiness	Mixed
409.206	0.562	n/a	1427.397	79.0	3	-1.0	-1.0	40.1948	955.0	0.4	Certain	2.9	-6.08	2.7295	Yes	n/a	8.97961494903737	n/a	n/a	712.0	TrialHappinessSliderResponse	Mixed
413.221	2.918	4.015	1430.985	79.0	3	-1.0	-1.0	40.1948	955.0	0.4	Certain	2.9	-6.08	2.7295	Yes	n/a	8.97961494903737	n/a	n/a	n/a	ISIRate	Mixed
416.17	3.0	0.031	1433.934	80.0	3	1.0	1.0	40.3198	955.0	1.82	Certain	6.7	-3.57	0.0	No	4.0	10.2695356738392	1.628	417.798	n/a	GetAnswer	Gain
417.819	4.0	0.021	1435.583	80.0	3	1.0	1.0	40.3198	955.0	1.82	Certain	6.7	-3.57	0.0	No	n/a	10.2695356738392	n/a	n/a	n/a	ShowChoice	Gain
421.835	1.0	0.016	1439.599	80.0	3	1.0	1.0	40.3198	955.0	1.82	Certain	6.7	-3.57	0.0	No	n/a	10.2695356738392	n/a	n/a	n/a	ShowResult	Gain
422.851	3.336	0.016	1440.615	80.0	3	1.0	1.0	40.3198	955.0	1.82	Certain	6.7	-3.57	0.0	No	n/a	10.2695356738392	n/a	n/a	n/a	ISITrial	Gain
426.216	3.0	0.029	1443.98	81.0	3	9.9	-0.32	41.5573	955.0	3.6	Outcome2	-0.64	9.9	3.92375	Yes	2.0	10.5447338618347	1.215	427.431	n/a	GetAnswer	Gain
427.449	4.0	0.018	1445.213	81.0	3	9.9	-0.32	41.5573	955.0	3.6	Outcome2	-0.64	9.9	3.92375	Yes	n/a	10.5447338618347	n/a	n/a	n/a	ShowChoice	Gain
431.465	1.0	0.016	1449.229	81.0	3	9.9	-0.32	41.5573	955.0	3.6	Outcome2	-0.64	9.9	3.92375	Yes	n/a	10.5447338618347	n/a	n/a	n/a	ShowResult	Gain
432.481	3.919	0.016	1450.245	81.0	3	9.9	-0.32	41.5573	955.0	3.6	Outcome2	-0.64	9.9	3.92375	Yes	n/a	10.5447338618347	n/a	n/a	n/a	ISITrial	Gain
436.413	3.924	0.013	1454.177	81.0	3	9.9	-0.32	41.5573	955.0	3.6	Outcome2	-0.64	9.9	3.92375	Yes	n/a	10.5447338618347	n/a	n/a	n/a	TrialHappPreview	Gain
440.361	4.016	0.024	1458.125	81.0	3	9.9	-0.32	41.5573	955.0	3.6	Outcome2	-0.64	9.9	3.92375	Yes	n/a	10.5447338618347	n/a	n/a	832.0	TrialHappiness	Gain
440.362	0.812	n/a	1458.537	81.0	3	9.9	-0.32	41.5573	955.0	3.6	Outcome2	-0.64	9.9	3.92375	Yes	n/a	10.5447338618347	n/a	n/a	832.0	TrialHappinessSliderResponse	Gain
444.377	7.695	4.016	1462.141	81.0	3	9.9	-0.32	41.5573	955.0	3.6	Outcome2	-0.64	9.9	3.92375	Yes	n/a	10.5447338618347	n/a	n/a	n/a	ISIRate	Gain
452.091	3.0	0.019	1469.855	n/a	3	n/a	n/a	n/a	n/a	n/a	n/a	n/a	n/a	n/a	n/a	n/a	n/a	n/a	n/a	n/a	CurrentEarnings	n/a
455.106	-0.001	0.015	1472.87	n/a	3	n/a	n/a	n/a	n/a	n/a	n/a	n/a	n/a	n/a	n/a	{SPACE}	n/a	10.47	465.576	n/a	Goodbye	n/a
