onset	duration	onset_delay	onset_unadjusted	trial_number	block	amount_change	certain_amount	current_amount	mood_target	multiplier	outcome	outcome1_amount	outcome2_amount	question_duration	rating	response	rpe	rt	rt_time	slider_response	trial_phase	trial_type
-30.156	-0.001	0.033	13.172	n/a	0	n/a	n/a	n/a	n/a	n/a	n/a	n/a	n/a	n/a	n/a	{SPACE}	n/a	1.496	-28.66	n/a	Welcome	n/a
-28.64	5.0	0.02	14.688	n/a	0	n/a	n/a	n/a	n/a	n/a	n/a	n/a	n/a	n/a	n/a	n/a	n/a	n/a	n/a	n/a	LifeHappyPreview	n/a
-23.608	1.206	0.032	19.72	n/a	0	n/a	n/a	n/a	n/a	n/a	n/a	n/a	n/a	n/a	n/a	n/a	n/a	n/a	n/a	784.0	LifeHappiness	n/a
-23.608	0.719	n/a	20.207	n/a	0	n/a	n/a	n/a	n/a	n/a	n/a	n/a	n/a	n/a	n/a	n/a	n/a	n/a	n/a	784.0	LifeHappinessSliderResponse	n/a
-13.562	4.0	0.026	29.766	n/a	0	n/a	n/a	n/a	n/a	n/a	n/a	n/a	n/a	n/a	n/a	n/a	n/a	n/a	n/a	n/a	BlockHappyPreview	n/a
-9.547	1.438	0.015	33.781	n/a	0	n/a	n/a	n/a	n/a	n/a	n/a	n/a	n/a	n/a	n/a	n/a	n/a	n/a	n/a	752.0	BlockStartHappiness	n/a
-9.546	0.642	n/a	34.578	n/a	0	n/a	n/a	n/a	n/a	n/a	n/a	n/a	n/a	n/a	n/a	n/a	n/a	n/a	n/a	752.0	BlockStartHappinessSliderResponse	n/a
-3.266	-0.001	0.019	40.062	n/a	0	n/a	n/a	n/a	n/a	n/a	n/a	n/a	n/a	n/a	n/a	5.0	n/a	3.253	-0.013	n/a	ScanWait	n/a
0.0	10.0	0.013	43.328	n/a	1	n/a	n/a	n/a	n/a	n/a	n/a	n/a	n/a	n/a	n/a	n/a	n/a	n/a	n/a	n/a	GetReady	n/a
10.03	3.0	0.03	53.358	1.0	1	0.0	0.0	10.0	955.0	1.5	Certain	-1.35	2.1	0.0	No	4.0	3.4484711211778	1.522	11.552	n/a	GetAnswer	Mixed
11.579	4.0	0.027	54.907	1.0	1	0.0	0.0	10.0	955.0	1.5	Certain	-1.35	2.1	0.0	No	n/a	3.4484711211778	n/a	n/a	n/a	ShowChoice	Mixed
15.595	1.0	0.016	58.923	1.0	1	0.0	0.0	10.0	955.0	1.5	Certain	-1.35	2.1	0.0	No	n/a	3.4484711211778	n/a	n/a	n/a	ShowResult	Mixed
16.611	2.431	0.016	59.939	1.0	1	0.0	0.0	10.0	955.0	1.5	Certain	-1.35	2.1	0.0	No	n/a	3.4484711211778	n/a	n/a	n/a	ISITrial	Mixed
19.06	3.0	0.018	62.388	2.0	1	13.7	5.01	11.7125	955.0	3.16	Outcome1	13.7	10.02	0.0	No	2.0	3.6783691959229903	0.736	19.796	n/a	GetAnswer	Loss
19.81	4.0	0.014	63.138	2.0	1	13.7	5.01	11.7125	955.0	3.16	Outcome1	13.7	10.02	0.0	No	n/a	3.6783691959229903	n/a	n/a	n/a	ShowChoice	Loss
23.825	1.0	0.015	67.153	2.0	1	13.7	5.01	11.7125	955.0	3.16	Outcome1	13.7	10.02	0.0	No	n/a	3.6783691959229903	n/a	n/a	n/a	ShowResult	Loss
24.841	4.568	0.016	68.169	2.0	1	13.7	5.01	11.7125	955.0	3.16	Outcome1	13.7	10.02	0.0	No	n/a	3.6783691959229903	n/a	n/a	n/a	ISITrial	Loss
29.44	3.0	0.031	72.768	3.0	1	12.1	4.1	13.225	955.0	4.2	Outcome1	12.1	8.19	2.868	Yes	2.0	3.90826727066818	0.963	30.403	n/a	GetAnswer	Loss
30.423	4.0	0.02	73.751	3.0	1	12.1	4.1	13.225	955.0	4.2	Outcome1	12.1	8.19	2.868	Yes	n/a	3.90826727066818	n/a	n/a	n/a	ShowChoice	Loss
34.438	1.0	0.015	77.766	3.0	1	12.1	4.1	13.225	955.0	4.2	Outcome1	12.1	8.19	2.868	Yes	n/a	3.90826727066818	n/a	n/a	n/a	ShowResult	Loss
35.454	3.243	0.016	78.782	3.0	1	12.1	4.1	13.225	955.0	4.2	Outcome1	12.1	8.19	2.868	Yes	n/a	3.90826727066818	n/a	n/a	n/a	ISITrial	Loss
38.72	2.868	0.023	82.048	3.0	1	12.1	4.1	13.225	955.0	4.2	Outcome1	12.1	8.19	2.868	Yes	n/a	3.90826727066818	n/a	n/a	n/a	TrialHappPreview	Loss
41.619	4.015	0.031	84.947	3.0	1	12.1	4.1	13.225	955.0	4.2	Outcome1	12.1	8.19	2.868	Yes	n/a	3.90826727066818	n/a	n/a	696.0	TrialHappiness	Loss
41.62	1.372	n/a	85.865	3.0	1	12.1	4.1	13.225	955.0	4.2	Outcome1	12.1	8.19	2.868	Yes	n/a	3.90826727066818	n/a	n/a	696.0	TrialHappinessSliderResponse	Loss
45.634	3.472	4.015	88.962	3.0	1	12.1	4.1	13.225	955.0	4.2	Outcome1	12.1	8.19	2.868	Yes	n/a	3.90826727066818	n/a	n/a	n/a	ISIRate	Loss
49.133	3.0	0.027	92.461	4.0	1	11.19	5.6	14.6238	955.0	5.0	Outcome1	11.19	12.3	0.0	No	2.0	-1.1085315213288	0.827	49.96	n/a	GetAnswer	Loss
49.983	4.0	0.023	93.311	4.0	1	11.19	5.6	14.6238	955.0	5.0	Outcome1	11.19	12.3	0.0	No	n/a	-1.1085315213288	n/a	n/a	n/a	ShowChoice	Loss
53.998	1.0	0.015	97.326	4.0	1	11.19	5.6	14.6238	955.0	5.0	Outcome1	11.19	12.3	0.0	No	n/a	-1.1085315213288	n/a	n/a	n/a	ShowResult	Loss
55.014	2.011	0.016	98.342	4.0	1	11.19	5.6	14.6238	955.0	5.0	Outcome1	11.19	12.3	0.0	No	n/a	-1.1085315213288	n/a	n/a	n/a	ISITrial	Loss
57.047	3.0	0.022	100.375	5.0	1	0.0	0.0	14.6238	955.0	0.2	Certain	-2.88	2.5	2.5825	Yes	4.0	5.38278595696489	0.85	57.897	n/a	GetAnswer	Mixed
57.913	4.0	0.016	101.241	5.0	1	0.0	0.0	14.6238	955.0	0.2	Certain	-2.88	2.5	2.5825	Yes	n/a	5.38278595696489	n/a	n/a	n/a	ShowChoice	Mixed
61.928	1.0	0.015	105.256	5.0	1	0.0	0.0	14.6238	955.0	0.2	Certain	-2.88	2.5	2.5825	Yes	n/a	5.38278595696489	n/a	n/a	n/a	ShowResult	Mixed
62.945	5.129	0.017	106.273	5.0	1	0.0	0.0	14.6238	955.0	0.2	Certain	-2.88	2.5	2.5825	Yes	n/a	5.38278595696489	n/a	n/a	n/a	ISITrial	Mixed
68.093	2.582	0.019	111.421	5.0	1	0.0	0.0	14.6238	955.0	0.2	Certain	-2.88	2.5	2.5825	Yes	n/a	5.38278595696489	n/a	n/a	n/a	TrialHappPreview	Mixed
70.692	4.032	0.017	114.02	5.0	1	0.0	0.0	14.6238	955.0	0.2	Certain	-2.88	2.5	2.5825	Yes	n/a	5.38278595696489	n/a	n/a	696.0	TrialHappiness	Mixed
70.693	2.542	n/a	115.277	5.0	1	0.0	0.0	14.6238	955.0	0.2	Certain	-2.88	2.5	2.5825	Yes	n/a	5.38278595696489	n/a	n/a	696.0	TrialHappinessSliderResponse	Mixed
74.724	2.33	4.032	118.052	5.0	1	0.0	0.0	14.6238	955.0	0.2	Certain	-2.88	2.5	2.5825	Yes	n/a	5.38278595696489	n/a	n/a	n/a	ISIRate	Mixed
77.073	3.0	0.019	120.401	6.0	1	1.0	1.0	14.7488	955.0	1.0	Certain	-1.98	3.7	0.0	No	4.0	5.676104190260481	0.86	77.933	n/a	GetAnswer	Mixed
77.956	4.0	0.023	121.284	6.0	1	1.0	1.0	14.7488	955.0	1.0	Certain	-1.98	3.7	0.0	No	n/a	5.676104190260481	n/a	n/a	n/a	ShowChoice	Mixed
81.971	1.0	0.015	125.299	6.0	1	1.0	1.0	14.7488	955.0	1.0	Certain	-1.98	3.7	0.0	No	n/a	5.676104190260481	n/a	n/a	n/a	ShowResult	Mixed
82.988	6.232	0.017	126.316	6.0	1	1.0	1.0	14.7488	955.0	1.0	Certain	-1.98	3.7	0.0	No	n/a	5.676104190260481	n/a	n/a	n/a	ISITrial	Mixed
89.252	3.0	0.032	132.58	7.0	1	11.9	2.96	16.2363	955.0	3.6	Outcome2	5.93	11.9	0.0	No	2.0	5.969422423556059	0.699	89.951	n/a	GetAnswer	Loss
89.969	4.0	0.018	133.297	7.0	1	11.9	2.96	16.2363	955.0	3.6	Outcome2	5.93	11.9	0.0	No	n/a	5.969422423556059	n/a	n/a	n/a	ShowChoice	Loss
93.984	1.0	0.015	137.312	7.0	1	11.9	2.96	16.2363	955.0	3.6	Outcome2	5.93	11.9	0.0	No	n/a	5.969422423556059	n/a	n/a	n/a	ShowResult	Loss
95.0	2.305	0.016	138.328	7.0	1	11.9	2.96	16.2363	955.0	3.6	Outcome2	5.93	11.9	0.0	No	n/a	5.969422423556059	n/a	n/a	n/a	ISITrial	Loss
97.333	3.0	0.028	140.661	8.0	1	10.3	2.02	17.5238	955.0	5.0	Outcome1	10.3	4.04	3.1125	Yes	2.0	6.26274065685164	0.647	97.98	n/a	GetAnswer	Gain
97.999	4.0	0.019	141.327	8.0	1	10.3	2.02	17.5238	955.0	5.0	Outcome1	10.3	4.04	3.1125	Yes	n/a	6.26274065685164	n/a	n/a	n/a	ShowChoice	Gain
102.014	1.0	0.015	145.342	8.0	1	10.3	2.02	17.5238	955.0	5.0	Outcome1	10.3	4.04	3.1125	Yes	n/a	6.26274065685164	n/a	n/a	n/a	ShowResult	Gain
103.031	3.506	0.017	146.359	8.0	1	10.3	2.02	17.5238	955.0	5.0	Outcome1	10.3	4.04	3.1125	Yes	n/a	6.26274065685164	n/a	n/a	n/a	ISITrial	Gain
106.563	3.112	0.026	149.891	8.0	1	10.3	2.02	17.5238	955.0	5.0	Outcome1	10.3	4.04	3.1125	Yes	n/a	6.26274065685164	n/a	n/a	n/a	TrialHappPreview	Gain
109.695	4.015	0.02	153.023	8.0	1	10.3	2.02	17.5238	955.0	5.0	Outcome1	10.3	4.04	3.1125	Yes	n/a	6.26274065685164	n/a	n/a	752.0	TrialHappiness	Gain
109.696	1.472	n/a	153.719	8.0	1	10.3	2.02	17.5238	955.0	5.0	Outcome1	10.3	4.04	3.1125	Yes	n/a	6.26274065685164	n/a	n/a	752.0	TrialHappinessSliderResponse	Gain
113.71	4.45	4.015	157.038	8.0	1	10.3	2.02	17.5238	955.0	5.0	Outcome1	10.3	4.04	3.1125	Yes	n/a	6.26274065685164	n/a	n/a	n/a	ISIRate	Gain
118.192	3.0	0.032	161.52	9.0	1	6.1	0.25	18.2863	955.0	4.2	Outcome2	0.5	6.1	0.0	No	2.0	5.6047565118912805	0.694	118.886	n/a	GetAnswer	Gain
118.909	4.0	0.023	162.237	9.0	1	6.1	0.25	18.2863	955.0	4.2	Outcome2	0.5	6.1	0.0	No	n/a	5.6047565118912805	n/a	n/a	n/a	ShowChoice	Gain
122.924	1.0	0.015	166.252	9.0	1	6.1	0.25	18.2863	955.0	4.2	Outcome2	0.5	6.1	0.0	No	n/a	5.6047565118912805	n/a	n/a	n/a	ShowResult	Gain
123.94	2.0	0.016	167.268	9.0	1	6.1	0.25	18.2863	955.0	4.2	Outcome2	0.5	6.1	0.0	No	n/a	5.6047565118912805	n/a	n/a	n/a	ISITrial	Gain
125.973	3.0	0.033	169.301	10.0	1	3.94	3.94	18.7788	955.0	2.0	Certain	8.9	7.88	4.0	Yes	4.0	-1.02265005662514	0.749	126.722	n/a	GetAnswer	Gain
126.739	4.0	0.017	170.067	10.0	1	3.94	3.94	18.7788	955.0	2.0	Certain	8.9	7.88	4.0	Yes	n/a	-1.02265005662514	n/a	n/a	n/a	ShowChoice	Gain
130.754	1.0	0.015	174.082	10.0	1	3.94	3.94	18.7788	955.0	2.0	Certain	8.9	7.88	4.0	Yes	n/a	-1.02265005662514	n/a	n/a	n/a	ShowResult	Gain
131.771	2.0	0.017	175.099	10.0	1	3.94	3.94	18.7788	955.0	2.0	Certain	8.9	7.88	4.0	Yes	n/a	-1.02265005662514	n/a	n/a	n/a	ISITrial	Gain
133.787	4.0	0.016	177.115	10.0	1	3.94	3.94	18.7788	955.0	2.0	Certain	8.9	7.88	4.0	Yes	n/a	-1.02265005662514	n/a	n/a	n/a	TrialHappPreview	Gain
137.819	4.015	0.032	181.147	10.0	1	3.94	3.94	18.7788	955.0	2.0	Certain	8.9	7.88	4.0	Yes	n/a	-1.02265005662514	n/a	n/a	664.0	TrialHappiness	Gain
137.819	2.884	n/a	181.768	10.0	1	3.94	3.94	18.7788	955.0	2.0	Certain	8.9	7.88	4.0	Yes	n/a	-1.02265005662514	n/a	n/a	664.0	TrialHappinessSliderResponse	Gain
141.834	8.0	4.015	185.162	10.0	1	3.94	3.94	18.7788	955.0	2.0	Certain	8.9	7.88	4.0	Yes	n/a	-1.02265005662514	n/a	n/a	n/a	ISIRate	Gain
149.864	3.0	0.03	193.192	11.0	1	7.3	3.65	19.6913	955.0	1.82	Outcome1	7.3	8.7	0.0	No	2.0	-1.39892412231031	0.703	150.567	n/a	GetAnswer	Gain
150.581	4.0	0.014	193.909	11.0	1	7.3	3.65	19.6913	955.0	1.82	Outcome1	7.3	8.7	0.0	No	n/a	-1.39892412231031	n/a	n/a	n/a	ShowChoice	Gain
154.596	1.0	0.015	197.924	11.0	1	7.3	3.65	19.6913	955.0	1.82	Outcome1	7.3	8.7	0.0	No	n/a	-1.39892412231031	n/a	n/a	n/a	ShowResult	Gain
155.612	3.324	0.016	198.94	11.0	1	7.3	3.65	19.6913	955.0	1.82	Outcome1	7.3	8.7	0.0	No	n/a	-1.39892412231031	n/a	n/a	n/a	ISITrial	Gain
158.961	3.0	0.025	202.289	12.0	1	10.7	1.4	21.0288	955.0	1.82	Outcome2	2.81	10.7	2.61875	Yes	2.0	7.8890147225368095	1.09	160.051	n/a	GetAnswer	Loss
160.077	4.0	0.026	203.405	12.0	1	10.7	1.4	21.0288	955.0	1.82	Outcome2	2.81	10.7	2.61875	Yes	n/a	7.8890147225368095	n/a	n/a	n/a	ShowChoice	Loss
164.093	1.0	0.016	207.421	12.0	1	10.7	1.4	21.0288	955.0	1.82	Outcome2	2.81	10.7	2.61875	Yes	n/a	7.8890147225368095	n/a	n/a	n/a	ShowResult	Loss
165.109	6.642	0.016	208.437	12.0	1	10.7	1.4	21.0288	955.0	1.82	Outcome2	2.81	10.7	2.61875	Yes	n/a	7.8890147225368095	n/a	n/a	n/a	ISITrial	Loss
171.773	2.619	0.022	215.101	12.0	1	10.7	1.4	21.0288	955.0	1.82	Outcome2	2.81	10.7	2.61875	Yes	n/a	7.8890147225368095	n/a	n/a	n/a	TrialHappPreview	Loss
174.422	4.016	0.03	217.75	12.0	1	10.7	1.4	21.0288	955.0	1.82	Outcome2	2.81	10.7	2.61875	Yes	n/a	7.8890147225368095	n/a	n/a	716.0	TrialHappiness	Loss
174.423	3.197	n/a	218.479	12.0	1	10.7	1.4	21.0288	955.0	1.82	Outcome2	2.81	10.7	2.61875	Yes	n/a	7.8890147225368095	n/a	n/a	716.0	TrialHappinessSliderResponse	Loss
178.438	2.475	4.016	221.766	12.0	1	10.7	1.4	21.0288	955.0	1.82	Outcome2	2.81	10.7	2.61875	Yes	n/a	7.8890147225368095	n/a	n/a	n/a	ISIRate	Loss
180.937	3.0	0.024	224.265	13.0	1	2.86	1.43	21.3863	955.0	1.5	Outcome2	4.1	2.86	0.0	No	2.0	-1.24282748206871	0.811	181.748	n/a	GetAnswer	Mixed
181.77	4.0	0.022	225.098	13.0	1	2.86	1.43	21.3863	955.0	1.5	Outcome2	4.1	2.86	0.0	No	n/a	-1.24282748206871	n/a	n/a	n/a	ShowChoice	Mixed
185.785	1.0	0.015	229.113	13.0	1	2.86	1.43	21.3863	955.0	1.5	Outcome2	4.1	2.86	0.0	No	n/a	-1.24282748206871	n/a	n/a	n/a	ShowResult	Mixed
186.801	3.48	0.016	230.129	13.0	1	2.86	1.43	21.3863	955.0	1.5	Outcome2	4.1	2.86	0.0	No	n/a	-1.24282748206871	n/a	n/a	n/a	ISITrial	Mixed
190.3	3.0	0.019	233.628	14.0	1	9.23	4.62	22.5401	955.0	1.68	Outcome1	9.23	10.5	0.0	No	2.0	-1.26538316345791	0.684	190.984	n/a	GetAnswer	Loss
191.0	4.0	0.016	234.328	14.0	1	9.23	4.62	22.5401	955.0	1.68	Outcome1	9.23	10.5	0.0	No	n/a	-1.26538316345791	n/a	n/a	n/a	ShowChoice	Loss
195.015	1.0	0.015	238.343	14.0	1	9.23	4.62	22.5401	955.0	1.68	Outcome1	9.23	10.5	0.0	No	n/a	-1.26538316345791	n/a	n/a	n/a	ShowResult	Loss
196.032	5.019	0.017	239.36	14.0	1	9.23	4.62	22.5401	955.0	1.68	Outcome1	9.23	10.5	0.0	No	n/a	-1.26538316345791	n/a	n/a	n/a	ISITrial	Loss
201.08	3.0	0.029	244.408	15.0	1	5.5	1.0	23.2276	955.0	2.8	Outcome1	5.5	-2.38	3.3485	Yes	2.0	7.876557191392981	0.657	201.737	n/a	GetAnswer	Gain
201.763	4.0	0.026	245.091	15.0	1	5.5	1.0	23.2276	955.0	2.8	Outcome1	5.5	-2.38	3.3485	Yes	n/a	7.876557191392981	n/a	n/a	n/a	ShowChoice	Gain
205.778	1.0	0.015	249.106	15.0	1	5.5	1.0	23.2276	955.0	2.8	Outcome1	5.5	-2.38	3.3485	Yes	n/a	7.876557191392981	n/a	n/a	n/a	ShowResult	Gain
206.795	7.614	0.017	250.123	15.0	1	5.5	1.0	23.2276	955.0	2.8	Outcome1	5.5	-2.38	3.3485	Yes	n/a	7.876557191392981	n/a	n/a	n/a	ISITrial	Gain
214.425	3.348	0.016	257.753	15.0	1	5.5	1.0	23.2276	955.0	2.8	Outcome1	5.5	-2.38	3.3485	Yes	n/a	7.876557191392981	n/a	n/a	n/a	TrialHappPreview	Gain
217.791	4.015	0.018	261.119	15.0	1	5.5	1.0	23.2276	955.0	2.8	Outcome1	5.5	-2.38	3.3485	Yes	n/a	7.876557191392981	n/a	n/a	736.0	TrialHappiness	Gain
217.791	0.613	n/a	261.96	15.0	1	5.5	1.0	23.2276	955.0	2.8	Outcome1	5.5	-2.38	3.3485	Yes	n/a	7.876557191392981	n/a	n/a	736.0	TrialHappinessSliderResponse	Gain
221.806	5.394	4.015	265.134	15.0	1	5.5	1.0	23.2276	955.0	2.8	Outcome1	5.5	-2.38	3.3485	Yes	n/a	7.876557191392981	n/a	n/a	n/a	ISIRate	Gain
227.221	3.0	0.021	270.549	16.0	1	1.9	-2.0	23.4651	955.0	1.2	Outcome1	1.9	-5.91	0.0	No	2.0	7.807474518686299	0.786	228.007	n/a	GetAnswer	Mixed
228.037	4.0	0.03	271.365	16.0	1	1.9	-2.0	23.4651	955.0	1.2	Outcome1	1.9	-5.91	0.0	No	n/a	7.807474518686299	n/a	n/a	n/a	ShowChoice	Mixed
232.052	1.0	0.015	275.38	16.0	1	1.9	-2.0	23.4651	955.0	1.2	Outcome1	1.9	-5.91	0.0	No	n/a	7.807474518686299	n/a	n/a	n/a	ShowResult	Mixed
233.069	3.008	0.017	276.397	16.0	1	1.9	-2.0	23.4651	955.0	1.2	Outcome1	1.9	-5.91	0.0	No	n/a	7.807474518686299	n/a	n/a	n/a	ISITrial	Mixed
236.101	3.0	0.024	279.429	17.0	1	0.0	0.0	23.4651	955.0	0.66	Certain	-4.76	3.3	3.0415	Yes	4.0	8.0554926387316	0.837	236.938	n/a	GetAnswer	Mixed
236.951	4.0	0.013	280.279	17.0	1	0.0	0.0	23.4651	955.0	0.66	Certain	-4.76	3.3	3.0415	Yes	n/a	8.0554926387316	n/a	n/a	n/a	ShowChoice	Mixed
240.966	1.0	0.015	284.294	17.0	1	0.0	0.0	23.4651	955.0	0.66	Certain	-4.76	3.3	3.0415	Yes	n/a	8.0554926387316	n/a	n/a	n/a	ShowResult	Mixed
241.982	3.566	0.016	285.31	17.0	1	0.0	0.0	23.4651	955.0	0.66	Certain	-4.76	3.3	3.0415	Yes	n/a	8.0554926387316	n/a	n/a	n/a	ISITrial	Mixed
245.564	3.042	0.016	288.892	17.0	1	0.0	0.0	23.4651	955.0	0.66	Certain	-4.76	3.3	3.0415	Yes	n/a	8.0554926387316	n/a	n/a	n/a	TrialHappPreview	Mixed
248.63	4.015	0.024	291.958	17.0	1	0.0	0.0	23.4651	955.0	0.66	Certain	-4.76	3.3	3.0415	Yes	n/a	8.0554926387316	n/a	n/a	592.0	TrialHappiness	Mixed
248.631	1.067	n/a	292.537	17.0	1	0.0	0.0	23.4651	955.0	0.66	Certain	-4.76	3.3	3.0415	Yes	n/a	8.0554926387316	n/a	n/a	592.0	TrialHappinessSliderResponse	Mixed
252.645	4.166	4.015	295.973	17.0	1	0.0	0.0	23.4651	955.0	0.66	Certain	-4.76	3.3	3.0415	Yes	n/a	8.0554926387316	n/a	n/a	n/a	ISIRate	Mixed
256.844	3.0	0.033	300.172	18.0	1	2.0	2.0	23.7151	955.0	3.16	Certain	-3.05	7.7	0.0	No	4.0	10.7497168742922	0.949	257.793	n/a	GetAnswer	Gain
257.81	4.0	0.017	301.138	18.0	1	2.0	2.0	23.7151	955.0	3.16	Certain	-3.05	7.7	0.0	No	n/a	10.7497168742922	n/a	n/a	n/a	ShowChoice	Gain
261.825	1.0	0.015	305.153	18.0	1	2.0	2.0	23.7151	955.0	3.16	Certain	-3.05	7.7	0.0	No	n/a	10.7497168742922	n/a	n/a	n/a	ShowResult	Gain
262.842	6.787	0.017	306.17	18.0	1	2.0	2.0	23.7151	955.0	3.16	Certain	-3.05	7.7	0.0	No	n/a	10.7497168742922	n/a	n/a	n/a	ISITrial	Gain
269.656	3.0	0.027	312.984	19.0	1	4.7	-1.0	24.3026	955.0	1.82	Outcome2	-6.46	4.7	0.0	No	2.0	11.1608154020385	0.639	270.295	n/a	GetAnswer	Gain
270.322	4.0	0.027	313.65	19.0	1	4.7	-1.0	24.3026	955.0	1.82	Outcome2	-6.46	4.7	0.0	No	n/a	11.1608154020385	n/a	n/a	n/a	ShowChoice	Gain
274.338	1.0	0.016	317.666	19.0	1	4.7	-1.0	24.3026	955.0	1.82	Outcome2	-6.46	4.7	0.0	No	n/a	11.1608154020385	n/a	n/a	n/a	ShowResult	Gain
275.354	2.0	0.016	318.682	19.0	1	4.7	-1.0	24.3026	955.0	1.82	Outcome2	-6.46	4.7	0.0	No	n/a	11.1608154020385	n/a	n/a	n/a	ISITrial	Gain
277.387	3.0	0.033	320.715	20.0	1	2.0	2.0	24.5526	955.0	3.6	Certain	-3.67	7.9	2.92125	Yes	4.0	11.5719139297848	0.917	278.304	n/a	GetAnswer	Gain
278.32	4.0	0.016	321.648	20.0	1	2.0	2.0	24.5526	955.0	3.6	Certain	-3.67	7.9	2.92125	Yes	n/a	11.5719139297848	n/a	n/a	n/a	ShowChoice	Gain
282.335	1.0	0.015	325.663	20.0	1	2.0	2.0	24.5526	955.0	3.6	Certain	-3.67	7.9	2.92125	Yes	n/a	11.5719139297848	n/a	n/a	n/a	ShowResult	Gain
283.351	8.0	0.016	326.679	20.0	1	2.0	2.0	24.5526	955.0	3.6	Certain	-3.67	7.9	2.92125	Yes	n/a	11.5719139297848	n/a	n/a	n/a	ISITrial	Gain
291.365	2.921	0.014	334.693	20.0	1	2.0	2.0	24.5526	955.0	3.6	Certain	-3.67	7.9	2.92125	Yes	n/a	11.5719139297848	n/a	n/a	n/a	TrialHappPreview	Gain
294.314	4.032	0.028	337.642	20.0	1	2.0	2.0	24.5526	955.0	3.6	Certain	-3.67	7.9	2.92125	Yes	n/a	11.5719139297848	n/a	n/a	652.0	TrialHappiness	Gain
294.315	2.975	n/a	338.515	20.0	1	2.0	2.0	24.5526	955.0	3.6	Certain	-3.67	7.9	2.92125	Yes	n/a	11.5719139297848	n/a	n/a	652.0	TrialHappinessSliderResponse	Gain
298.346	3.685	4.032	341.674	20.0	1	2.0	2.0	24.5526	955.0	3.6	Certain	-3.67	7.9	2.92125	Yes	n/a	11.5719139297848	n/a	n/a	n/a	ISIRate	Gain
302.061	3.0	0.03	345.389	21.0	1	5.1	0.0	25.1901	955.0	2.22	Outcome1	5.1	-5.86	0.0	No	2.0	10.9637599093998	0.974	303.035	n/a	GetAnswer	Gain
303.061	4.0	0.026	346.389	21.0	1	5.1	0.0	25.1901	955.0	2.22	Outcome1	5.1	-5.86	0.0	No	n/a	10.9637599093998	n/a	n/a	n/a	ShowChoice	Gain
307.076	1.0	0.015	350.404	21.0	1	5.1	0.0	25.1901	955.0	2.22	Outcome1	5.1	-5.86	0.0	No	n/a	10.9637599093998	n/a	n/a	n/a	ShowResult	Gain
308.093	3.555	0.017	351.421	21.0	1	5.1	0.0	25.1901	955.0	2.22	Outcome1	5.1	-5.86	0.0	No	n/a	10.9637599093998	n/a	n/a	n/a	ISITrial	Gain
311.675	3.0	0.027	355.003	22.0	1	5.16	2.58	25.8351	955.0	2.0	Outcome1	5.16	6.9	3.2195	Yes	2.0	-1.74292185730464	1.137	312.812	n/a	GetAnswer	Gain
312.841	4.0	0.029	356.169	22.0	1	5.16	2.58	25.8351	955.0	2.0	Outcome1	5.16	6.9	3.2195	Yes	n/a	-1.74292185730464	n/a	n/a	n/a	ShowChoice	Gain
316.856	1.0	0.015	360.184	22.0	1	5.16	2.58	25.8351	955.0	2.0	Outcome1	5.16	6.9	3.2195	Yes	n/a	-1.74292185730464	n/a	n/a	n/a	ShowResult	Gain
317.872	6.793	0.016	361.2	22.0	1	5.16	2.58	25.8351	955.0	2.0	Outcome1	5.16	6.9	3.2195	Yes	n/a	-1.74292185730464	n/a	n/a	n/a	ISITrial	Gain
324.687	3.22	0.022	368.015	22.0	1	5.16	2.58	25.8351	955.0	2.0	Outcome1	5.16	6.9	3.2195	Yes	n/a	-1.74292185730464	n/a	n/a	n/a	TrialHappPreview	Gain
327.936	4.015	0.029	371.264	22.0	1	5.16	2.58	25.8351	955.0	2.0	Outcome1	5.16	6.9	3.2195	Yes	n/a	-1.74292185730464	n/a	n/a	696.0	TrialHappiness	Gain
327.936	1.24	n/a	372.313	22.0	1	5.16	2.58	25.8351	955.0	2.0	Outcome1	5.16	6.9	3.2195	Yes	n/a	-1.74292185730464	n/a	n/a	696.0	TrialHappinessSliderResponse	Gain
331.951	4.878	4.015	375.279	22.0	1	5.16	2.58	25.8351	955.0	2.0	Outcome1	5.16	6.9	3.2195	Yes	n/a	-1.74292185730464	n/a	n/a	n/a	ISIRate	Gain
336.849	3.0	0.02	380.177	23.0	1	13.1	1.1	27.4726	955.0	2.22	Outcome2	2.2	13.1	0.0	No	2.0	10.9026047565119	0.696	337.545	n/a	GetAnswer	Loss
337.566	4.0	0.021	380.894	23.0	1	13.1	1.1	27.4726	955.0	2.22	Outcome2	2.2	13.1	0.0	No	n/a	10.9026047565119	n/a	n/a	n/a	ShowChoice	Loss
341.581	1.0	0.015	384.909	23.0	1	13.1	1.1	27.4726	955.0	2.22	Outcome2	2.2	13.1	0.0	No	n/a	10.9026047565119	n/a	n/a	n/a	ShowResult	Loss
342.597	8.0	0.016	385.925	23.0	1	13.1	1.1	27.4726	955.0	2.22	Outcome2	2.2	13.1	0.0	No	n/a	10.9026047565119	n/a	n/a	n/a	ISITrial	Loss
350.628	3.0	0.031	393.956	24.0	1	-6.0	-6.0	26.7226	955.0	1.0	Certain	-0.3	-11.5	3.255	Yes	4.0	11.1959229898075	1.203	351.831	n/a	GetAnswer	Mixed
351.861	4.0	0.03	395.189	24.0	1	-6.0	-6.0	26.7226	955.0	1.0	Certain	-0.3	-11.5	3.255	Yes	n/a	11.1959229898075	n/a	n/a	n/a	ShowChoice	Mixed
355.876	1.0	0.015	399.204	24.0	1	-6.0	-6.0	26.7226	955.0	1.0	Certain	-0.3	-11.5	3.255	Yes	n/a	11.1959229898075	n/a	n/a	n/a	ShowResult	Mixed
356.892	2.0	0.016	400.22	24.0	1	-6.0	-6.0	26.7226	955.0	1.0	Certain	-0.3	-11.5	3.255	Yes	n/a	11.1959229898075	n/a	n/a	n/a	ISITrial	Mixed
358.908	3.255	0.016	402.236	24.0	1	-6.0	-6.0	26.7226	955.0	1.0	Certain	-0.3	-11.5	3.255	Yes	n/a	11.1959229898075	n/a	n/a	n/a	TrialHappPreview	Mixed
362.19	4.016	0.027	405.518	24.0	1	-6.0	-6.0	26.7226	955.0	1.0	Certain	-0.3	-11.5	3.255	Yes	n/a	11.1959229898075	n/a	n/a	636.0	TrialHappiness	Mixed
362.191	1.373	n/a	406.238	24.0	1	-6.0	-6.0	26.7226	955.0	1.0	Certain	-0.3	-11.5	3.255	Yes	n/a	11.1959229898075	n/a	n/a	636.0	TrialHappinessSliderResponse	Mixed
366.206	5.02	4.016	409.534	24.0	1	-6.0	-6.0	26.7226	955.0	1.0	Certain	-0.3	-11.5	3.255	Yes	n/a	11.1959229898075	n/a	n/a	n/a	ISIRate	Mixed
371.254	3.0	0.028	414.582	25.0	1	-5.0	-5.0	26.0976	955.0	0.66	Certain	-11.21	1.3	0.0	No	4.0	12.5084937712344	1.505	372.759	n/a	GetAnswer	Mixed
372.787	4.0	0.028	416.115	25.0	1	-5.0	-5.0	26.0976	955.0	0.66	Certain	-11.21	1.3	0.0	No	n/a	12.5084937712344	n/a	n/a	n/a	ShowChoice	Mixed
376.802	1.0	0.015	420.13	25.0	1	-5.0	-5.0	26.0976	955.0	0.66	Certain	-11.21	1.3	0.0	No	n/a	12.5084937712344	n/a	n/a	n/a	ShowResult	Mixed
377.818	3.749	0.016	421.146	25.0	1	-5.0	-5.0	26.0976	955.0	0.66	Certain	-11.21	1.3	0.0	No	n/a	12.5084937712344	n/a	n/a	n/a	ISITrial	Mixed
381.6	3.0	0.033	424.928	26.0	1	1.7	-4.0	26.3101	955.0	1.0	Outcome2	-11.17	1.7	0.0	No	2.0	12.8697621744054	0.889	382.489	n/a	GetAnswer	Mixed
382.517	4.0	0.028	425.845	26.0	1	1.7	-4.0	26.3101	955.0	1.0	Outcome2	-11.17	1.7	0.0	No	n/a	12.8697621744054	n/a	n/a	n/a	ShowChoice	Mixed
386.532	1.0	0.015	429.86	26.0	1	1.7	-4.0	26.3101	955.0	1.0	Outcome2	-11.17	1.7	0.0	No	n/a	12.8697621744054	n/a	n/a	n/a	ShowResult	Mixed
387.548	7.834	0.016	430.876	26.0	1	1.7	-4.0	26.3101	955.0	1.0	Outcome2	-11.17	1.7	0.0	No	n/a	12.8697621744054	n/a	n/a	n/a	ISITrial	Mixed
395.412	3.0	0.03	438.74	27.0	1	9.3	2.0	27.4726	955.0	2.48	Outcome2	-3.93	9.3	2.54975	Yes	2.0	13.2310305775764	1.243	396.655	n/a	GetAnswer	Gain
396.678	4.0	0.023	440.006	27.0	1	9.3	2.0	27.4726	955.0	2.48	Outcome2	-3.93	9.3	2.54975	Yes	n/a	13.2310305775764	n/a	n/a	n/a	ShowChoice	Gain
400.694	1.0	0.016	444.022	27.0	1	9.3	2.0	27.4726	955.0	2.48	Outcome2	-3.93	9.3	2.54975	Yes	n/a	13.2310305775764	n/a	n/a	n/a	ShowResult	Gain
401.71	4.225	0.016	445.038	27.0	1	9.3	2.0	27.4726	955.0	2.48	Outcome2	-3.93	9.3	2.54975	Yes	n/a	13.2310305775764	n/a	n/a	n/a	ISITrial	Gain
405.958	2.55	0.023	449.286	27.0	1	9.3	2.0	27.4726	955.0	2.48	Outcome2	-3.93	9.3	2.54975	Yes	n/a	13.2310305775764	n/a	n/a	n/a	TrialHappPreview	Gain
408.524	4.015	0.016	451.852	27.0	1	9.3	2.0	27.4726	955.0	2.48	Outcome2	-3.93	9.3	2.54975	Yes	n/a	13.2310305775764	n/a	n/a	728.0	TrialHappiness	Gain
408.525	0.588	n/a	452.42	27.0	1	9.3	2.0	27.4726	955.0	2.48	Outcome2	-3.93	9.3	2.54975	Yes	n/a	13.2310305775764	n/a	n/a	728.0	TrialHappinessSliderResponse	Gain
412.539	2.199	4.015	455.867	27.0	1	9.3	2.0	27.4726	955.0	2.48	Outcome2	-3.93	9.3	2.54975	Yes	n/a	13.2310305775764	n/a	n/a	n/a	ISIRate	Gain
449.31	0.0	n/a	492.638	n/a	1	n/a	n/a	n/a	n/a	n/a	n/a	n/a	n/a	n/a	n/a	n/a	n/a	n/a	n/a	512.0	BlockStartHappinessSliderResponse	n/a
-45.651	-0.001	0.017	458.083	n/a	2	n/a	n/a	n/a	n/a	n/a	n/a	n/a	n/a	n/a	n/a	{SPACE}	n/a	30.511	-15.14	n/a	Rest	n/a
-15.111	4.0	0.028	488.623	n/a	2	n/a	n/a	n/a	n/a	n/a	n/a	n/a	n/a	n/a	n/a	n/a	n/a	n/a	n/a	n/a	BlockHappyPreview	n/a
-11.096	0.0	0.015	492.638	n/a	2	n/a	n/a	n/a	n/a	n/a	n/a	n/a	n/a	n/a	n/a	n/a	n/a	n/a	n/a	512.0	BlockStartHappiness	n/a
-1.366	-0.001	0.014	502.368	n/a	2	n/a	n/a	n/a	n/a	n/a	n/a	n/a	n/a	n/a	n/a	5.0	n/a	1.341	-0.025	n/a	ScanWait	n/a
0.0	10.0	0.025	503.734	n/a	2	n/a	n/a	n/a	n/a	n/a	n/a	n/a	n/a	n/a	n/a	n/a	n/a	n/a	n/a	n/a	GetReady	n/a
10.03	3.0	0.03	513.764	28.0	2	1.12	0.0	27.6126	70.0	1.68	Outcome2	-0.68	1.12	0.0	No	2.0	1.79572940287226	1.137	11.167	n/a	GetAnswer	Gain
11.196	4.0	0.029	514.93	28.0	2	1.12	0.0	27.6126	70.0	1.68	Outcome2	-0.68	1.12	0.0	No	n/a	1.79572940287226	n/a	n/a	n/a	ShowChoice	Gain
15.211	1.0	0.015	518.945	28.0	2	1.12	0.0	27.6126	70.0	1.68	Outcome2	-0.68	1.12	0.0	No	n/a	1.79572940287226	n/a	n/a	n/a	ShowResult	Gain
16.228	3.575	0.017	519.962	28.0	2	1.12	0.0	27.6126	70.0	1.68	Outcome2	-0.68	1.12	0.0	No	n/a	1.79572940287226	n/a	n/a	n/a	ISITrial	Gain
19.826	3.0	0.023	523.56	29.0	2	2.28	1.0	27.8976	70.0	2.22	Outcome1	2.28	0.44	3.529	Yes	2.0	1.83749055177627	0.847	20.673	n/a	GetAnswer	Gain
20.693	4.0	0.02	524.427	29.0	2	2.28	1.0	27.8976	70.0	2.22	Outcome1	2.28	0.44	3.529	Yes	n/a	1.83749055177627	n/a	n/a	n/a	ShowChoice	Gain
24.708	1.0	0.015	528.442	29.0	2	2.28	1.0	27.8976	70.0	2.22	Outcome1	2.28	0.44	3.529	Yes	n/a	1.83749055177627	n/a	n/a	n/a	ShowResult	Gain
25.724	3.955	0.016	529.458	29.0	2	2.28	1.0	27.8976	70.0	2.22	Outcome1	2.28	0.44	3.529	Yes	n/a	1.83749055177627	n/a	n/a	n/a	ISITrial	Gain
29.706	3.529	0.027	533.44	29.0	2	2.28	1.0	27.8976	70.0	2.22	Outcome1	2.28	0.44	3.529	Yes	n/a	1.83749055177627	n/a	n/a	n/a	TrialHappPreview	Gain
33.255	4.015	0.02	536.989	29.0	2	2.28	1.0	27.8976	70.0	2.22	Outcome1	2.28	0.44	3.529	Yes	n/a	1.83749055177627	n/a	n/a	680.0	TrialHappiness	Gain
33.256	0.488	n/a	537.591	29.0	2	2.28	1.0	27.8976	70.0	2.22	Outcome1	2.28	0.44	3.529	Yes	n/a	1.83749055177627	n/a	n/a	680.0	TrialHappinessSliderResponse	Gain
37.27	6.116	4.015	541.004	29.0	2	2.28	1.0	27.8976	70.0	2.22	Outcome1	2.28	0.44	3.529	Yes	n/a	1.83749055177627	n/a	n/a	n/a	ISIRate	Gain
43.418	3.0	0.032	547.152	30.0	2	-1.68	-0.84	27.6876	70.0	3.16	Outcome1	-1.68	9.7	0.0	No	2.0	-11.3764172335601	1.204	44.622	n/a	GetAnswer	Gain
44.651	4.0	0.029	548.385	30.0	2	-1.68	-0.84	27.6876	70.0	3.16	Outcome1	-1.68	9.7	0.0	No	n/a	-11.3764172335601	n/a	n/a	n/a	ShowChoice	Gain
48.666	1.0	0.015	552.4	30.0	2	-1.68	-0.84	27.6876	70.0	3.16	Outcome1	-1.68	9.7	0.0	No	n/a	-11.3764172335601	n/a	n/a	n/a	ShowResult	Gain
49.683	4.453	0.017	553.417	30.0	2	-1.68	-0.84	27.6876	70.0	3.16	Outcome1	-1.68	9.7	0.0	No	n/a	-11.3764172335601	n/a	n/a	n/a	ISITrial	Gain
54.164	3.0	0.028	557.898	31.0	2	-6.37	0.0	26.8914	70.0	3.16	Outcome1	-6.37	5.7	2.50325	Yes	2.0	-12.0680272108844	1.286	55.45	n/a	GetAnswer	Gain
55.481	4.0	0.031	559.215	31.0	2	-6.37	0.0	26.8914	70.0	3.16	Outcome1	-6.37	5.7	2.50325	Yes	n/a	-12.0680272108844	n/a	n/a	n/a	ShowChoice	Gain
59.496	1.0	0.015	563.23	31.0	2	-6.37	0.0	26.8914	70.0	3.16	Outcome1	-6.37	5.7	2.50325	Yes	n/a	-12.0680272108844	n/a	n/a	n/a	ShowResult	Gain
60.512	4.786	0.016	564.246	31.0	2	-6.37	0.0	26.8914	70.0	3.16	Outcome1	-6.37	5.7	2.50325	Yes	n/a	-12.0680272108844	n/a	n/a	n/a	ISITrial	Gain
65.327	2.503	0.029	569.061	31.0	2	-6.37	0.0	26.8914	70.0	3.16	Outcome1	-6.37	5.7	2.50325	Yes	n/a	-12.0680272108844	n/a	n/a	n/a	TrialHappPreview	Gain
67.86	4.015	0.03	571.594	31.0	2	-6.37	0.0	26.8914	70.0	3.16	Outcome1	-6.37	5.7	2.50325	Yes	n/a	-12.0680272108844	n/a	n/a	544.0	TrialHappiness	Gain
67.86	0.21	n/a	572.191	31.0	2	-6.37	0.0	26.8914	70.0	3.16	Outcome1	-6.37	5.7	2.50325	Yes	n/a	-12.0680272108844	n/a	n/a	544.0	TrialHappinessSliderResponse	Gain
71.875	2.013	4.015	575.609	31.0	2	-6.37	0.0	26.8914	70.0	3.16	Outcome1	-6.37	5.7	2.50325	Yes	n/a	-12.0680272108844	n/a	n/a	n/a	ISIRate	Gain
73.908	3.0	0.02	577.642	32.0	2	-8.15	-3.0	25.8726	70.0	2.0	Outcome1	-8.15	2.3	0.0	No	2.0	-10.4467120181406	0.915	74.823	n/a	GetAnswer	Mixed
74.841	4.0	0.018	578.575	32.0	2	-8.15	-3.0	25.8726	70.0	2.0	Outcome1	-8.15	2.3	0.0	No	n/a	-10.4467120181406	n/a	n/a	n/a	ShowChoice	Mixed
78.856	1.0	0.015	582.59	32.0	2	-8.15	-3.0	25.8726	70.0	2.0	Outcome1	-8.15	2.3	0.0	No	n/a	-10.4467120181406	n/a	n/a	n/a	ShowResult	Mixed
79.872	2.0	0.016	583.606	32.0	2	-8.15	-3.0	25.8726	70.0	2.0	Outcome1	-8.15	2.3	0.0	No	n/a	-10.4467120181406	n/a	n/a	n/a	ISITrial	Mixed
81.888	3.0	0.016	585.622	33.0	2	-5.0	-5.0	25.2476	70.0	2.0	Certain	0.3	-10.68	0.0	No	4.0	-10.984126984127	1.39	83.278	n/a	GetAnswer	Mixed
83.304	4.0	0.026	587.038	33.0	2	-5.0	-5.0	25.2476	70.0	2.0	Certain	0.3	-10.68	0.0	No	n/a	-10.984126984127	n/a	n/a	n/a	ShowChoice	Mixed
87.32	1.0	0.016	591.054	33.0	2	-5.0	-5.0	25.2476	70.0	2.0	Certain	0.3	-10.68	0.0	No	n/a	-10.984126984127	n/a	n/a	n/a	ShowResult	Mixed
88.336	5.099	0.016	592.07	33.0	2	-5.0	-5.0	25.2476	70.0	2.0	Certain	0.3	-10.68	0.0	No	n/a	-10.984126984127	n/a	n/a	n/a	ISITrial	Mixed
93.467	3.0	0.032	597.201	34.0	2	0.0	0.0	25.2476	70.0	1.82	Certain	-0.53	1.68	3.2315	Yes	4.0	2.21409674981104	1.051	94.518	n/a	GetAnswer	Gain
94.534	4.0	0.016	598.268	34.0	2	0.0	0.0	25.2476	70.0	1.82	Certain	-0.53	1.68	3.2315	Yes	n/a	2.21409674981104	n/a	n/a	n/a	ShowChoice	Gain
98.549	1.0	0.015	602.283	34.0	2	0.0	0.0	25.2476	70.0	1.82	Certain	-0.53	1.68	3.2315	Yes	n/a	2.21409674981104	n/a	n/a	n/a	ShowResult	Gain
99.565	4.784	0.016	603.299	34.0	2	0.0	0.0	25.2476	70.0	1.82	Certain	-0.53	1.68	3.2315	Yes	n/a	2.21409674981104	n/a	n/a	n/a	ISITrial	Gain
104.364	3.232	0.015	608.098	34.0	2	0.0	0.0	25.2476	70.0	1.82	Certain	-0.53	1.68	3.2315	Yes	n/a	2.21409674981104	n/a	n/a	n/a	TrialHappPreview	Gain
107.612	4.016	0.016	611.346	34.0	2	0.0	0.0	25.2476	70.0	1.82	Certain	-0.53	1.68	3.2315	Yes	n/a	2.21409674981104	n/a	n/a	512.0	TrialHappiness	Gain
107.613	0.0	n/a	611.347	34.0	2	0.0	0.0	25.2476	70.0	1.82	Certain	-0.53	1.68	3.2315	Yes	n/a	2.21409674981104	n/a	n/a	512.0	TrialHappinessSliderResponse	Gain
111.628	4.926	4.016	615.362	34.0	2	0.0	0.0	25.2476	70.0	1.82	Certain	-0.53	1.68	3.2315	Yes	n/a	2.21409674981104	n/a	n/a	n/a	ISIRate	Gain
116.576	3.0	0.022	620.31	35.0	2	-3.0	-3.0	24.8726	70.0	0.4	Certain	-8.61	2.9	0.0	No	4.0	-11.5147392290249	1.82	118.396	n/a	GetAnswer	Mixed
118.425	4.0	0.029	622.159	35.0	2	-3.0	-3.0	24.8726	70.0	0.4	Certain	-8.61	2.9	0.0	No	n/a	-11.5147392290249	n/a	n/a	n/a	ShowChoice	Mixed
122.441	1.0	0.016	626.175	35.0	2	-3.0	-3.0	24.8726	70.0	0.4	Certain	-8.61	2.9	0.0	No	n/a	-11.5147392290249	n/a	n/a	n/a	ShowResult	Mixed
123.457	2.098	0.016	627.191	35.0	2	-3.0	-3.0	24.8726	70.0	0.4	Certain	-8.61	2.9	0.0	No	n/a	-11.5147392290249	n/a	n/a	n/a	ISITrial	Mixed
125.59	3.0	0.035	629.324	36.0	2	-4.92	1.0	24.2576	70.0	2.22	Outcome2	7.1	-4.92	3.33575	Yes	2.0	-12.015873015873	1.153	126.743	n/a	GetAnswer	Gain
126.772	4.0	0.029	630.506	36.0	2	-4.92	1.0	24.2576	70.0	2.22	Outcome2	7.1	-4.92	3.33575	Yes	n/a	-12.015873015873	n/a	n/a	n/a	ShowChoice	Gain
130.788	1.0	0.016	634.522	36.0	2	-4.92	1.0	24.2576	70.0	2.22	Outcome2	7.1	-4.92	3.33575	Yes	n/a	-12.015873015873	n/a	n/a	n/a	ShowResult	Gain
131.804	5.156	0.016	635.538	36.0	2	-4.92	1.0	24.2576	70.0	2.22	Outcome2	7.1	-4.92	3.33575	Yes	n/a	-12.015873015873	n/a	n/a	n/a	ISITrial	Gain
136.986	3.336	0.026	640.72	36.0	2	-4.92	1.0	24.2576	70.0	2.22	Outcome2	7.1	-4.92	3.33575	Yes	n/a	-12.015873015873	n/a	n/a	n/a	TrialHappPreview	Gain
140.351	4.015	0.029	644.085	36.0	2	-4.92	1.0	24.2576	70.0	2.22	Outcome2	7.1	-4.92	3.33575	Yes	n/a	-12.015873015873	n/a	n/a	496.0	TrialHappiness	Gain
140.352	1.428	n/a	645.18	36.0	2	-4.92	1.0	24.2576	70.0	2.22	Outcome2	7.1	-4.92	3.33575	Yes	n/a	-12.015873015873	n/a	n/a	496.0	TrialHappinessSliderResponse	Gain
144.366	5.343	4.015	648.1	36.0	2	-4.92	1.0	24.2576	70.0	2.22	Outcome2	7.1	-4.92	3.33575	Yes	n/a	-12.015873015873	n/a	n/a	n/a	ISIRate	Gain
149.731	3.0	0.022	653.465	37.0	2	2.78	1.0	24.6051	70.0	2.22	Outcome1	2.78	0.63	0.0	No	2.0	2.14739229024943	0.899	150.63	n/a	GetAnswer	Loss
150.647	4.0	0.017	654.381	37.0	2	2.78	1.0	24.6051	70.0	2.22	Outcome1	2.78	0.63	0.0	No	n/a	2.14739229024943	n/a	n/a	n/a	ShowChoice	Loss
154.663	1.0	0.016	658.397	37.0	2	2.78	1.0	24.6051	70.0	2.22	Outcome1	2.78	0.63	0.0	No	n/a	2.14739229024943	n/a	n/a	n/a	ShowResult	Loss
155.679	3.598	0.016	659.413	37.0	2	2.78	1.0	24.6051	70.0	2.22	Outcome1	2.78	0.63	0.0	No	n/a	2.14739229024943	n/a	n/a	n/a	ISITrial	Loss
159.311	3.0	0.034	663.045	38.0	2	-6.0	-6.0	23.8551	70.0	0.2	Certain	0.5	-12.23	0.0	No	4.0	-12.7278911564626	1.449	160.76	n/a	GetAnswer	Mixed
160.777	4.0	0.017	664.511	38.0	2	-6.0	-6.0	23.8551	70.0	0.2	Certain	0.5	-12.23	0.0	No	n/a	-12.7278911564626	n/a	n/a	n/a	ShowChoice	Mixed
164.793	1.0	0.016	668.527	38.0	2	-6.0	-6.0	23.8551	70.0	0.2	Certain	0.5	-12.23	0.0	No	n/a	-12.7278911564626	n/a	n/a	n/a	ShowResult	Mixed
165.809	4.787	0.016	669.543	38.0	2	-6.0	-6.0	23.8551	70.0	0.2	Certain	0.5	-12.23	0.0	No	n/a	-12.7278911564626	n/a	n/a	n/a	ISITrial	Mixed
170.624	3.0	0.028	674.358	39.0	2	0.0	0.0	23.8551	70.0	0.3	Certain	-1.55	0.68	2.86425	Yes	4.0	2.2278911564625896	1.255	171.879	n/a	GetAnswer	Mixed
171.907	4.0	0.028	675.641	39.0	2	0.0	0.0	23.8551	70.0	0.3	Certain	-1.55	0.68	2.86425	Yes	n/a	2.2278911564625896	n/a	n/a	n/a	ShowChoice	Mixed
175.922	1.0	0.015	679.656	39.0	2	0.0	0.0	23.8551	70.0	0.3	Certain	-1.55	0.68	2.86425	Yes	n/a	2.2278911564625896	n/a	n/a	n/a	ShowResult	Mixed
176.938	2.348	0.016	680.672	39.0	2	0.0	0.0	23.8551	70.0	0.3	Certain	-1.55	0.68	2.86425	Yes	n/a	2.2278911564625896	n/a	n/a	n/a	ISITrial	Mixed
179.304	2.864	0.018	683.038	39.0	2	0.0	0.0	23.8551	70.0	0.3	Certain	-1.55	0.68	2.86425	Yes	n/a	2.2278911564625896	n/a	n/a	n/a	TrialHappPreview	Mixed
182.186	4.016	0.018	685.92	39.0	2	0.0	0.0	23.8551	70.0	0.3	Certain	-1.55	0.68	2.86425	Yes	n/a	2.2278911564625896	n/a	n/a	672.0	TrialHappiness	Mixed
182.187	0.485	n/a	686.509	39.0	2	0.0	0.0	23.8551	70.0	0.3	Certain	-1.55	0.68	2.86425	Yes	n/a	2.2278911564625896	n/a	n/a	672.0	TrialHappinessSliderResponse	Mixed
186.202	3.457	4.016	689.936	39.0	2	0.0	0.0	23.8551	70.0	0.3	Certain	-1.55	0.68	2.86425	Yes	n/a	2.2278911564625896	n/a	n/a	n/a	ISIRate	Mixed
189.684	3.0	0.025	693.418	40.0	2	-15.59	-7.0	21.9063	70.0	0.52	Outcome2	1.1	-15.59	0.0	No	2.0	-16.687074829932	0.855	190.539	n/a	GetAnswer	Mixed
190.567	4.0	0.028	694.301	40.0	2	-15.59	-7.0	21.9063	70.0	0.52	Outcome2	1.1	-15.59	0.0	No	n/a	-16.687074829932	n/a	n/a	n/a	ShowChoice	Mixed
194.582	1.0	0.015	698.316	40.0	2	-15.59	-7.0	21.9063	70.0	0.52	Outcome2	1.1	-15.59	0.0	No	n/a	-16.687074829932	n/a	n/a	n/a	ShowResult	Mixed
195.598	3.158	0.016	699.332	40.0	2	-15.59	-7.0	21.9063	70.0	0.52	Outcome2	1.1	-15.59	0.0	No	n/a	-16.687074829932	n/a	n/a	n/a	ISITrial	Mixed
198.781	3.0	0.025	702.515	41.0	2	-5.0	-5.0	21.2813	70.0	0.82	Certain	3.5	-13.87	4.0	Yes	4.0	-17.3696145124717	1.232	200.013	n/a	GetAnswer	Mixed
200.03	4.0	0.017	703.764	41.0	2	-5.0	-5.0	21.2813	70.0	0.82	Certain	3.5	-13.87	4.0	Yes	n/a	-17.3696145124717	n/a	n/a	n/a	ShowChoice	Mixed
204.046	1.0	0.016	707.78	41.0	2	-5.0	-5.0	21.2813	70.0	0.82	Certain	3.5	-13.87	4.0	Yes	n/a	-17.3696145124717	n/a	n/a	n/a	ShowResult	Mixed
205.062	4.506	0.016	708.796	41.0	2	-5.0	-5.0	21.2813	70.0	0.82	Certain	3.5	-13.87	4.0	Yes	n/a	-17.3696145124717	n/a	n/a	n/a	ISITrial	Mixed
209.594	4.0	0.026	713.328	41.0	2	-5.0	-5.0	21.2813	70.0	0.82	Certain	3.5	-13.87	4.0	Yes	n/a	-17.3696145124717	n/a	n/a	n/a	TrialHappPreview	Mixed
213.626	4.015	0.032	717.36	41.0	2	-5.0	-5.0	21.2813	70.0	0.82	Certain	3.5	-13.87	4.0	Yes	n/a	-17.3696145124717	n/a	n/a	456.0	TrialHappiness	Mixed
213.626	1.663	n/a	718.236	41.0	2	-5.0	-5.0	21.2813	70.0	0.82	Certain	3.5	-13.87	4.0	Yes	n/a	-17.3696145124717	n/a	n/a	456.0	TrialHappinessSliderResponse	Mixed
217.641	8.0	4.015	721.375	41.0	2	-5.0	-5.0	21.2813	70.0	0.82	Certain	3.5	-13.87	4.0	Yes	n/a	-17.3696145124717	n/a	n/a	n/a	ISIRate	Mixed
225.671	3.0	0.03	729.405	42.0	2	-7.0	-7.0	20.4063	70.0	1.5	Certain	0.1	-14.28	0.0	No	4.0	-14.3786848072562	1.254	226.925	n/a	GetAnswer	Mixed
226.954	4.0	0.029	730.688	42.0	2	-7.0	-7.0	20.4063	70.0	1.5	Certain	0.1	-14.28	0.0	No	n/a	-14.3786848072562	n/a	n/a	n/a	ShowChoice	Mixed
230.969	1.0	0.015	734.703	42.0	2	-7.0	-7.0	20.4063	70.0	1.5	Certain	0.1	-14.28	0.0	No	n/a	-14.3786848072562	n/a	n/a	n/a	ShowResult	Mixed
231.986	6.248	0.017	735.72	42.0	2	-7.0	-7.0	20.4063	70.0	1.5	Certain	0.1	-14.28	0.0	No	n/a	-14.3786848072562	n/a	n/a	n/a	ISITrial	Mixed
238.267	3.0	0.033	742.001	43.0	2	-3.12	-1.56	20.0163	70.0	3.16	Outcome2	11.7	-3.12	2.77575	Yes	2.0	-14.8163265306122	1.179	239.446	n/a	GetAnswer	Loss
239.466	4.0	0.02	743.2	43.0	2	-3.12	-1.56	20.0163	70.0	3.16	Outcome2	11.7	-3.12	2.77575	Yes	n/a	-14.8163265306122	n/a	n/a	n/a	ShowChoice	Loss
243.482	1.0	0.016	747.216	43.0	2	-3.12	-1.56	20.0163	70.0	3.16	Outcome2	11.7	-3.12	2.77575	Yes	n/a	-14.8163265306122	n/a	n/a	n/a	ShowResult	Loss
244.498	4.596	0.016	748.232	43.0	2	-3.12	-1.56	20.0163	70.0	3.16	Outcome2	11.7	-3.12	2.77575	Yes	n/a	-14.8163265306122	n/a	n/a	n/a	ISITrial	Loss
249.113	2.776	0.019	752.847	43.0	2	-3.12	-1.56	20.0163	70.0	3.16	Outcome2	11.7	-3.12	2.77575	Yes	n/a	-14.8163265306122	n/a	n/a	n/a	TrialHappPreview	Loss
251.912	4.015	0.023	755.646	43.0	2	-3.12	-1.56	20.0163	70.0	3.16	Outcome2	11.7	-3.12	2.77575	Yes	n/a	-14.8163265306122	n/a	n/a	504.0	TrialHappiness	Loss
251.913	0.165	n/a	757.337	43.0	2	-3.12	-1.56	20.0163	70.0	3.16	Outcome2	11.7	-3.12	2.77575	Yes	n/a	-14.8163265306122	n/a	n/a	504.0	TrialHappinessSliderResponse	Loss
255.927	3.103	4.015	759.661	43.0	2	-3.12	-1.56	20.0163	70.0	3.16	Outcome2	11.7	-3.12	2.77575	Yes	n/a	-14.8163265306122	n/a	n/a	n/a	ISIRate	Loss
259.06	3.0	0.03	762.794	44.0	2	-4.77	-2.38	19.42	70.0	2.48	Outcome1	-4.77	11.3	0.0	No	2.0	-16.0702947845805	1.355	260.415	n/a	GetAnswer	Loss
260.443	4.0	0.028	764.177	44.0	2	-4.77	-2.38	19.42	70.0	2.48	Outcome1	-4.77	11.3	0.0	No	n/a	-16.0702947845805	n/a	n/a	n/a	ShowChoice	Loss
264.458	1.0	0.015	768.192	44.0	2	-4.77	-2.38	19.42	70.0	2.48	Outcome1	-4.77	11.3	0.0	No	n/a	-16.0702947845805	n/a	n/a	n/a	ShowResult	Loss
265.474	2.42	0.016	769.208	44.0	2	-4.77	-2.38	19.42	70.0	2.48	Outcome1	-4.77	11.3	0.0	No	n/a	-16.0702947845805	n/a	n/a	n/a	ISITrial	Loss
267.923	3.0	0.029	771.657	45.0	2	-0.28	-1.0	19.385	70.0	0.4	Outcome2	-2.81	-0.28	0.0	No	2.0	2.52834467120181	1.621	269.544	n/a	GetAnswer	Mixed
269.573	4.0	0.029	773.307	45.0	2	-0.28	-1.0	19.385	70.0	0.4	Outcome2	-2.81	-0.28	0.0	No	n/a	2.52834467120181	n/a	n/a	n/a	ShowChoice	Mixed
273.588	1.0	0.015	777.322	45.0	2	-0.28	-1.0	19.385	70.0	0.4	Outcome2	-2.81	-0.28	0.0	No	n/a	2.52834467120181	n/a	n/a	n/a	ShowResult	Mixed
274.604	3.144	0.016	778.338	45.0	2	-0.28	-1.0	19.385	70.0	0.4	Outcome2	-2.81	-0.28	0.0	No	n/a	2.52834467120181	n/a	n/a	n/a	ISITrial	Mixed
277.77	3.0	0.022	781.504	46.0	2	-4.35	-2.17	18.8412	70.0	1.82	Outcome1	-4.35	12.7	3.84125	Yes	2.0	-17.0544217687075	1.056	278.826	n/a	GetAnswer	Loss
278.853	4.0	0.027	782.587	46.0	2	-4.35	-2.17	18.8412	70.0	1.82	Outcome1	-4.35	12.7	3.84125	Yes	n/a	-17.0544217687075	n/a	n/a	n/a	ShowChoice	Loss
282.868	1.0	0.015	786.602	46.0	2	-4.35	-2.17	18.8412	70.0	1.82	Outcome1	-4.35	12.7	3.84125	Yes	n/a	-17.0544217687075	n/a	n/a	n/a	ShowResult	Loss
283.884	2.246	0.016	787.618	46.0	2	-4.35	-2.17	18.8412	70.0	1.82	Outcome1	-4.35	12.7	3.84125	Yes	n/a	-17.0544217687075	n/a	n/a	n/a	ISITrial	Loss
286.15	3.841	0.02	789.884	46.0	2	-4.35	-2.17	18.8412	70.0	1.82	Outcome1	-4.35	12.7	3.84125	Yes	n/a	-17.0544217687075	n/a	n/a	n/a	TrialHappPreview	Loss
290.016	4.015	0.025	793.75	46.0	2	-4.35	-2.17	18.8412	70.0	1.82	Outcome1	-4.35	12.7	3.84125	Yes	n/a	-17.0544217687075	n/a	n/a	404.0	TrialHappiness	Loss
290.016	1.666	n/a	794.358	46.0	2	-4.35	-2.17	18.8412	70.0	1.82	Outcome1	-4.35	12.7	3.84125	Yes	n/a	-17.0544217687075	n/a	n/a	404.0	TrialHappinessSliderResponse	Loss
294.031	7.365	4.015	797.765	46.0	2	-4.35	-2.17	18.8412	70.0	1.82	Outcome1	-4.35	12.7	3.84125	Yes	n/a	-17.0544217687075	n/a	n/a	n/a	ISIRate	Loss
301.428	3.0	0.032	805.162	47.0	2	-8.0	-8.0	17.8412	70.0	0.66	Certain	-0.7	-16.55	0.0	No	4.0	-15.8458049886621	1.251	302.679	n/a	GetAnswer	Mixed
302.694	4.0	0.015	806.428	47.0	2	-8.0	-8.0	17.8412	70.0	0.66	Certain	-0.7	-16.55	0.0	No	n/a	-15.8458049886621	n/a	n/a	n/a	ShowChoice	Mixed
306.71	1.0	0.016	810.444	47.0	2	-8.0	-8.0	17.8412	70.0	0.66	Certain	-0.7	-16.55	0.0	No	n/a	-15.8458049886621	n/a	n/a	n/a	ShowResult	Mixed
307.726	2.0	0.016	811.46	47.0	2	-8.0	-8.0	17.8412	70.0	0.66	Certain	-0.7	-16.55	0.0	No	n/a	-15.8458049886621	n/a	n/a	n/a	ISITrial	Mixed
309.742	3.0	0.016	813.476	48.0	2	3.12	2.0	18.2312	70.0	1.68	Outcome2	0.88	3.12	2.83175	Yes	2.0	2.2356386999244102	1.303	311.045	n/a	GetAnswer	Loss
311.058	4.0	0.013	814.792	48.0	2	3.12	2.0	18.2312	70.0	1.68	Outcome2	0.88	3.12	2.83175	Yes	n/a	2.2356386999244102	n/a	n/a	n/a	ShowChoice	Loss
315.073	1.0	0.015	818.807	48.0	2	3.12	2.0	18.2312	70.0	1.68	Outcome2	0.88	3.12	2.83175	Yes	n/a	2.2356386999244102	n/a	n/a	n/a	ShowResult	Loss
316.09	3.692	0.017	819.824	48.0	2	3.12	2.0	18.2312	70.0	1.68	Outcome2	0.88	3.12	2.83175	Yes	n/a	2.2356386999244102	n/a	n/a	n/a	ISITrial	Loss
319.805	2.832	0.023	823.539	48.0	2	3.12	2.0	18.2312	70.0	1.68	Outcome2	0.88	3.12	2.83175	Yes	n/a	2.2356386999244102	n/a	n/a	n/a	TrialHappPreview	Loss
322.654	4.015	0.017	826.388	48.0	2	3.12	2.0	18.2312	70.0	1.68	Outcome2	0.88	3.12	2.83175	Yes	n/a	2.2356386999244102	n/a	n/a	568.0	TrialHappiness	Loss
322.655	0.259	n/a	829.669	48.0	2	3.12	2.0	18.2312	70.0	1.68	Outcome2	0.88	3.12	2.83175	Yes	n/a	2.2356386999244102	n/a	n/a	568.0	TrialHappinessSliderResponse	Loss
326.669	3.327	4.015	830.403	48.0	2	3.12	2.0	18.2312	70.0	1.68	Outcome2	0.88	3.12	2.83175	Yes	n/a	2.2356386999244102	n/a	n/a	n/a	ISIRate	Loss
330.018	3.0	0.022	833.752	49.0	2	-6.09	-3.04	17.47	70.0	2.48	Outcome2	13.3	-6.09	0.0	No	2.0	-19.392290249433103	2.817	332.835	n/a	GetAnswer	Loss
332.851	4.0	0.016	836.585	49.0	2	-6.09	-3.04	17.47	70.0	2.48	Outcome2	13.3	-6.09	0.0	No	n/a	-19.392290249433103	n/a	n/a	n/a	ShowChoice	Loss
336.866	1.0	0.015	840.6	49.0	2	-6.09	-3.04	17.47	70.0	2.48	Outcome2	13.3	-6.09	0.0	No	n/a	-19.392290249433103	n/a	n/a	n/a	ShowResult	Loss
337.882	8.0	0.016	841.616	49.0	2	-6.09	-3.04	17.47	70.0	2.48	Outcome2	13.3	-6.09	0.0	No	n/a	-19.392290249433103	n/a	n/a	n/a	ISITrial	Loss
345.913	3.0	0.031	849.647	50.0	2	-6.46	-3.23	16.6625	70.0	2.8	Outcome1	-6.46	13.5	3.54725	Yes	2.0	-19.9569160997732	2.548	348.461	n/a	GetAnswer	Loss
348.478	4.0	0.017	852.212	50.0	2	-6.46	-3.23	16.6625	70.0	2.8	Outcome1	-6.46	13.5	3.54725	Yes	n/a	-19.9569160997732	n/a	n/a	n/a	ShowChoice	Loss
352.494	1.0	0.016	856.228	50.0	2	-6.46	-3.23	16.6625	70.0	2.8	Outcome1	-6.46	13.5	3.54725	Yes	n/a	-19.9569160997732	n/a	n/a	n/a	ShowResult	Loss
353.51	7.537	0.016	857.244	50.0	2	-6.46	-3.23	16.6625	70.0	2.8	Outcome1	-6.46	13.5	3.54725	Yes	n/a	-19.9569160997732	n/a	n/a	n/a	ISITrial	Loss
361.057	3.547	0.01	864.791	50.0	2	-6.46	-3.23	16.6625	70.0	2.8	Outcome1	-6.46	13.5	3.54725	Yes	n/a	-19.9569160997732	n/a	n/a	n/a	TrialHappPreview	Loss
364.623	4.015	0.019	868.357	50.0	2	-6.46	-3.23	16.6625	70.0	2.8	Outcome1	-6.46	13.5	3.54725	Yes	n/a	-19.9569160997732	n/a	n/a	456.0	TrialHappiness	Loss
364.623	2.288	n/a	869.608	50.0	2	-6.46	-3.23	16.6625	70.0	2.8	Outcome1	-6.46	13.5	3.54725	Yes	n/a	-19.9569160997732	n/a	n/a	456.0	TrialHappinessSliderResponse	Loss
368.638	6.189	4.015	872.372	50.0	2	-6.46	-3.23	16.6625	70.0	2.8	Outcome1	-6.46	13.5	3.54725	Yes	n/a	-19.9569160997732	n/a	n/a	n/a	ISIRate	Loss
374.853	3.0	0.026	878.587	51.0	2	1.62	0.0	16.865	70.0	1.68	Outcome2	-0.95	1.62	0.0	No	2.0	2.5725623582766404	1.32	376.173	n/a	GetAnswer	Gain
376.185	4.0	0.012	879.919	51.0	2	1.62	0.0	16.865	70.0	1.68	Outcome2	-0.95	1.62	0.0	No	n/a	2.5725623582766404	n/a	n/a	n/a	ShowChoice	Gain
380.201	1.0	0.016	883.935	51.0	2	1.62	0.0	16.865	70.0	1.68	Outcome2	-0.95	1.62	0.0	No	n/a	2.5725623582766404	n/a	n/a	n/a	ShowResult	Gain
381.217	5.508	0.016	884.951	51.0	2	1.62	0.0	16.865	70.0	1.68	Outcome2	-0.95	1.62	0.0	No	n/a	2.5725623582766404	n/a	n/a	n/a	ISITrial	Gain
386.748	3.0	0.023	890.482	52.0	2	-1.0	-1.0	16.74	70.0	0.2	Certain	-2.99	-0.38	0.0	No	4.0	2.60903250188964	1.772	388.52	n/a	GetAnswer	Mixed
388.531	4.0	0.011	892.265	52.0	2	-1.0	-1.0	16.74	70.0	0.2	Certain	-2.99	-0.38	0.0	No	n/a	2.60903250188964	n/a	n/a	n/a	ShowChoice	Mixed
392.546	1.0	0.015	896.28	52.0	2	-1.0	-1.0	16.74	70.0	0.2	Certain	-2.99	-0.38	0.0	No	n/a	2.60903250188964	n/a	n/a	n/a	ShowResult	Mixed
393.563	5.913	0.017	897.297	52.0	2	-1.0	-1.0	16.74	70.0	0.2	Certain	-2.99	-0.38	0.0	No	n/a	2.60903250188964	n/a	n/a	n/a	ISITrial	Mixed
399.494	3.0	0.018	903.228	53.0	2	-14.59	-5.0	14.9162	70.0	2.0	Outcome2	4.9	-14.59	2.99675	Yes	n/a	-19.4920634920635	n/a	n/a	n/a	GetAnswer	Gain
402.51	4.0	0.016	906.244	53.0	2	-14.59	-5.0	14.9162	70.0	2.0	Outcome2	4.9	-14.59	2.99675	Yes	n/a	-19.4920634920635	n/a	n/a	n/a	ShowChoice	Gain
406.525	1.0	0.015	910.259	53.0	2	-14.59	-5.0	14.9162	70.0	2.0	Outcome2	4.9	-14.59	2.99675	Yes	n/a	-19.4920634920635	n/a	n/a	n/a	ShowResult	Gain
407.541	3.66	0.016	911.275	53.0	2	-14.59	-5.0	14.9162	70.0	2.0	Outcome2	4.9	-14.59	2.99675	Yes	n/a	-19.4920634920635	n/a	n/a	n/a	ISITrial	Gain
411.223	2.997	0.022	914.957	53.0	2	-14.59	-5.0	14.9162	70.0	2.0	Outcome2	4.9	-14.59	2.99675	Yes	n/a	-19.4920634920635	n/a	n/a	n/a	TrialHappPreview	Gain
414.239	4.015	0.019	917.973	53.0	2	-14.59	-5.0	14.9162	70.0	2.0	Outcome2	4.9	-14.59	2.99675	Yes	n/a	-19.4920634920635	n/a	n/a	416.0	TrialHappiness	Gain
414.24	2.612	n/a	918.668	53.0	2	-14.59	-5.0	14.9162	70.0	2.0	Outcome2	4.9	-14.59	2.99675	Yes	n/a	-19.4920634920635	n/a	n/a	416.0	TrialHappinessSliderResponse	Gain
418.254	3.987	4.015	921.988	53.0	2	-14.59	-5.0	14.9162	70.0	2.0	Outcome2	4.9	-14.59	2.99675	Yes	n/a	-19.4920634920635	n/a	n/a	n/a	ISIRate	Gain
422.269	3.0	0.028	926.003	54.0	2	-11.15	-1.0	13.5224	70.0	4.2	Outcome2	8.1	-11.15	0.0	No	2.0	-19.249433106576	1.279	423.548	n/a	GetAnswer	Gain
423.569	4.0	0.021	927.303	54.0	2	-11.15	-1.0	13.5224	70.0	4.2	Outcome2	8.1	-11.15	0.0	No	n/a	-19.249433106576	n/a	n/a	n/a	ShowChoice	Gain
427.584	1.0	0.015	931.318	54.0	2	-11.15	-1.0	13.5224	70.0	4.2	Outcome2	8.1	-11.15	0.0	No	n/a	-19.249433106576	n/a	n/a	n/a	ShowResult	Gain
428.601	8.0	0.017	932.335	54.0	2	-11.15	-1.0	13.5224	70.0	4.2	Outcome2	8.1	-11.15	0.0	No	n/a	-19.249433106576	n/a	n/a	n/a	ISITrial	Gain
469.737	1.974	n/a	974.303	n/a	2	n/a	n/a	n/a	n/a	n/a	n/a	n/a	n/a	n/a	n/a	n/a	n/a	n/a	n/a	480.0	BlockStartHappinessSliderResponse	n/a
-42.035	-0.001	0.03	940.365	n/a	3	n/a	n/a	n/a	n/a	n/a	n/a	n/a	n/a	n/a	n/a	{SPACE}	n/a	29.068	-12.967	n/a	Rest	n/a
-12.945	4.0	0.022	969.455	n/a	3	n/a	n/a	n/a	n/a	n/a	n/a	n/a	n/a	n/a	n/a	n/a	n/a	n/a	n/a	n/a	BlockHappyPreview	n/a
-8.93	2.806	0.015	973.47	n/a	3	n/a	n/a	n/a	n/a	n/a	n/a	n/a	n/a	n/a	n/a	n/a	n/a	n/a	n/a	480.0	BlockStartHappiness	n/a
-1.216	-0.001	0.023	981.184	n/a	3	n/a	n/a	n/a	n/a	n/a	n/a	n/a	n/a	n/a	n/a	5.0	n/a	1.193	-0.023	n/a	ScanWait	n/a
0.0	10.0	0.023	982.4	n/a	3	n/a	n/a	n/a	n/a	n/a	n/a	n/a	n/a	n/a	n/a	n/a	n/a	n/a	n/a	n/a	GetReady	n/a
10.014	3.0	0.014	992.414	55.0	3	-1.0	-1.0	13.3974	955.0	0.82	Certain	-0.5	-2.43	2.53325	Yes	4.0	-1.9276141940354896	1.972	11.986	n/a	GetAnswer	Mixed
12.013	4.0	0.026	994.413	55.0	3	-1.0	-1.0	13.3974	955.0	0.82	Certain	-0.5	-2.43	2.53325	Yes	n/a	-1.9276141940354896	n/a	n/a	n/a	ShowChoice	Mixed
16.028	1.0	0.015	998.428	55.0	3	-1.0	-1.0	13.3974	955.0	0.82	Certain	-0.5	-2.43	2.53325	Yes	n/a	-1.9276141940354896	n/a	n/a	n/a	ShowResult	Mixed
17.044	7.709	0.016	999.444	55.0	3	-1.0	-1.0	13.3974	955.0	0.82	Certain	-0.5	-2.43	2.53325	Yes	n/a	-1.9276141940354896	n/a	n/a	n/a	ISITrial	Mixed
24.775	2.533	0.022	1007.175	55.0	3	-1.0	-1.0	13.3974	955.0	0.82	Certain	-0.5	-2.43	2.53325	Yes	n/a	-1.9276141940354896	n/a	n/a	n/a	TrialHappPreview	Mixed
27.324	4.015	0.016	1009.724	55.0	3	-1.0	-1.0	13.3974	955.0	0.82	Certain	-0.5	-2.43	2.53325	Yes	2{-2}4{-4}	-1.9276141940354896	2.839	30.163	528.0	TrialHappiness	Mixed
27.325	1.23	n/a	1011.334	55.0	3	-1.0	-1.0	13.3974	955.0	0.82	Certain	-0.5	-2.43	2.53325	Yes	n/a	-1.9276141940354896	n/a	n/a	528.0	TrialHappinessSliderResponse	Mixed
31.339	2.133	4.015	1013.739	55.0	3	-1.0	-1.0	13.3974	955.0	0.82	Certain	-0.5	-2.43	2.53325	Yes	n/a	-1.9276141940354896	n/a	n/a	n/a	ISIRate	Mixed
33.505	3.0	0.033	1015.905	56.0	3	1.32	2.0	13.5624	955.0	0.52	Outcome1	1.32	3.1	0.0	No	2.0	-1.7776519441298602	1.284	34.789	n/a	GetAnswer	Mixed
34.805	4.0	0.016	1017.205	56.0	3	1.32	2.0	13.5624	955.0	0.52	Outcome1	1.32	3.1	0.0	No	n/a	-1.7776519441298602	n/a	n/a	n/a	ShowChoice	Mixed
38.82	1.0	0.015	1021.22	56.0	3	1.32	2.0	13.5624	955.0	0.52	Outcome1	1.32	3.1	0.0	No	n/a	-1.7776519441298602	n/a	n/a	n/a	ShowResult	Mixed
39.836	4.697	0.016	1022.236	56.0	3	1.32	2.0	13.5624	955.0	0.52	Outcome1	1.32	3.1	0.0	No	n/a	-1.7776519441298602	n/a	n/a	n/a	ISITrial	Mixed
44.552	3.0	0.019	1026.952	57.0	3	10.1	0.91	14.8249	955.0	4.2	Outcome1	10.1	1.82	0.0	No	2.0	8.27519818799547	1.167	45.719	n/a	GetAnswer	Gain
45.734	4.0	0.015	1028.134	57.0	3	10.1	0.91	14.8249	955.0	4.2	Outcome1	10.1	1.82	0.0	No	n/a	8.27519818799547	n/a	n/a	n/a	ShowChoice	Gain
49.75	1.0	0.016	1032.15	57.0	3	10.1	0.91	14.8249	955.0	4.2	Outcome1	10.1	1.82	0.0	No	n/a	8.27519818799547	n/a	n/a	n/a	ShowResult	Gain
50.766	4.291	0.016	1033.166	57.0	3	10.1	0.91	14.8249	955.0	4.2	Outcome1	10.1	1.82	0.0	No	n/a	8.27519818799547	n/a	n/a	n/a	ISITrial	Gain
55.081	3.0	0.024	1037.481	58.0	3	7.3	-0.73	15.7374	955.0	2.48	Outcome2	-1.46	7.3	3.04575	Yes	2.0	8.75877689694224	2.817	57.898	n/a	GetAnswer	Gain
57.914	4.0	0.016	1040.314	58.0	3	7.3	-0.73	15.7374	955.0	2.48	Outcome2	-1.46	7.3	3.04575	Yes	n/a	8.75877689694224	n/a	n/a	n/a	ShowChoice	Gain
61.929	1.0	0.015	1044.329	58.0	3	7.3	-0.73	15.7374	955.0	2.48	Outcome2	-1.46	7.3	3.04575	Yes	n/a	8.75877689694224	n/a	n/a	n/a	ShowResult	Gain
62.945	2.037	0.016	1045.345	58.0	3	7.3	-0.73	15.7374	955.0	2.48	Outcome2	-1.46	7.3	3.04575	Yes	n/a	8.75877689694224	n/a	n/a	n/a	ISITrial	Gain
64.994	3.046	0.012	1047.394	58.0	3	7.3	-0.73	15.7374	955.0	2.48	Outcome2	-1.46	7.3	3.04575	Yes	n/a	8.75877689694224	n/a	n/a	n/a	TrialHappPreview	Gain
68.06	4.015	0.02	1050.46	58.0	3	7.3	-0.73	15.7374	955.0	2.48	Outcome2	-1.46	7.3	3.04575	Yes	n/a	8.75877689694224	n/a	n/a	604.0	TrialHappiness	Gain
68.061	1.622	n/a	1050.937	58.0	3	7.3	-0.73	15.7374	955.0	2.48	Outcome2	-1.46	7.3	3.04575	Yes	n/a	8.75877689694224	n/a	n/a	604.0	TrialHappinessSliderResponse	Gain
72.075	4.183	4.015	1054.475	58.0	3	7.3	-0.73	15.7374	955.0	2.48	Outcome2	-1.46	7.3	3.04575	Yes	n/a	8.75877689694224	n/a	n/a	n/a	ISIRate	Gain
76.274	3.0	0.016	1058.674	59.0	3	7.5	-0.22	16.6749	955.0	2.8	Outcome2	-0.45	7.5	0.0	No	2.0	7.95130237825595	0.921	77.195	n/a	GetAnswer	Gain
77.207	4.0	0.012	1059.607	59.0	3	7.5	-0.22	16.6749	955.0	2.8	Outcome2	-0.45	7.5	0.0	No	n/a	7.95130237825595	n/a	n/a	n/a	ShowChoice	Gain
81.222	1.0	0.015	1063.622	59.0	3	7.5	-0.22	16.6749	955.0	2.8	Outcome2	-0.45	7.5	0.0	No	n/a	7.95130237825595	n/a	n/a	n/a	ShowResult	Gain
82.238	5.064	0.016	1064.638	59.0	3	7.5	-0.22	16.6749	955.0	2.8	Outcome2	-0.45	7.5	0.0	No	n/a	7.95130237825595	n/a	n/a	n/a	ISITrial	Gain
87.32	3.0	0.018	1069.72	60.0	3	9.5	0.57	17.8624	955.0	2.8	Outcome2	1.15	9.5	3.5625	Yes	2.0	8.34881087202718	0.905	88.225	n/a	GetAnswer	Gain
88.236	4.0	0.011	1070.636	60.0	3	9.5	0.57	17.8624	955.0	2.8	Outcome2	1.15	9.5	3.5625	Yes	n/a	8.34881087202718	n/a	n/a	n/a	ShowChoice	Gain
92.252	1.0	0.016	1074.652	60.0	3	9.5	0.57	17.8624	955.0	2.8	Outcome2	1.15	9.5	3.5625	Yes	n/a	8.34881087202718	n/a	n/a	n/a	ShowResult	Gain
93.268	8.0	0.016	1075.668	60.0	3	9.5	0.57	17.8624	955.0	2.8	Outcome2	1.15	9.5	3.5625	Yes	n/a	8.34881087202718	n/a	n/a	n/a	ISITrial	Gain
101.282	3.562	0.014	1083.682	60.0	3	9.5	0.57	17.8624	955.0	2.8	Outcome2	1.15	9.5	3.5625	Yes	n/a	8.34881087202718	n/a	n/a	n/a	TrialHappPreview	Gain
104.864	4.015	0.02	1087.264	60.0	3	9.5	0.57	17.8624	955.0	2.8	Outcome2	1.15	9.5	3.5625	Yes	n/a	8.34881087202718	n/a	n/a	568.0	TrialHappiness	Gain
104.864	0.614	n/a	1088.473	60.0	3	9.5	0.57	17.8624	955.0	2.8	Outcome2	1.15	9.5	3.5625	Yes	n/a	8.34881087202718	n/a	n/a	568.0	TrialHappinessSliderResponse	Gain
108.879	6.25	4.015	1091.279	60.0	3	9.5	0.57	17.8624	955.0	2.8	Outcome2	1.15	9.5	3.5625	Yes	n/a	8.34881087202718	n/a	n/a	n/a	ISIRate	Gain
115.16	3.0	0.031	1097.56	61.0	3	-2.0	-2.0	17.6124	955.0	0.3	Certain	-3.1	-1.3	0.0	No	4.0	-1.80247263118158	1.256	116.416	n/a	GetAnswer	Mixed
116.443	4.0	0.027	1098.843	61.0	3	-2.0	-2.0	17.6124	955.0	0.3	Certain	-3.1	-1.3	0.0	No	n/a	-1.80247263118158	n/a	n/a	n/a	ShowChoice	Mixed
120.458	1.0	0.015	1102.858	61.0	3	-2.0	-2.0	17.6124	955.0	0.3	Certain	-3.1	-1.3	0.0	No	n/a	-1.80247263118158	n/a	n/a	n/a	ShowResult	Mixed
121.475	4.586	0.017	1103.875	61.0	3	-2.0	-2.0	17.6124	955.0	0.3	Certain	-3.1	-1.3	0.0	No	n/a	-1.80247263118158	n/a	n/a	n/a	ISITrial	Mixed
126.09	3.0	0.029	1108.49	62.0	3	6.3	1.0	18.3999	955.0	5.0	Outcome2	-3.5	6.3	3.74875	Yes	2.0	9.79614949037373	1.108	127.198	n/a	GetAnswer	Gain
127.223	4.0	0.025	1109.623	62.0	3	6.3	1.0	18.3999	955.0	5.0	Outcome2	-3.5	6.3	3.74875	Yes	n/a	9.79614949037373	n/a	n/a	n/a	ShowChoice	Gain
131.238	1.0	0.015	1113.638	62.0	3	6.3	1.0	18.3999	955.0	5.0	Outcome2	-3.5	6.3	3.74875	Yes	n/a	9.79614949037373	n/a	n/a	n/a	ShowResult	Gain
132.254	5.212	0.016	1114.654	62.0	3	6.3	1.0	18.3999	955.0	5.0	Outcome2	-3.5	6.3	3.74875	Yes	n/a	9.79614949037373	n/a	n/a	n/a	ISITrial	Gain
137.486	3.749	0.02	1119.886	62.0	3	6.3	1.0	18.3999	955.0	5.0	Outcome2	-3.5	6.3	3.74875	Yes	n/a	9.79614949037373	n/a	n/a	n/a	TrialHappPreview	Gain
141.251	4.015	0.016	1123.651	62.0	3	6.3	1.0	18.3999	955.0	5.0	Outcome2	-3.5	6.3	3.74875	Yes	n/a	9.79614949037373	n/a	n/a	580.0	TrialHappiness	Gain
141.252	2.174	n/a	1124.495	62.0	3	6.3	1.0	18.3999	955.0	5.0	Outcome2	-3.5	6.3	3.74875	Yes	n/a	9.79614949037373	n/a	n/a	580.0	TrialHappinessSliderResponse	Gain
145.266	6.995	4.015	1127.666	62.0	3	6.3	1.0	18.3999	955.0	5.0	Outcome2	-3.5	6.3	3.74875	Yes	n/a	9.79614949037373	n/a	n/a	n/a	ISIRate	Gain
152.281	3.0	0.02	1134.681	63.0	3	11.5	0.74	19.8374	955.0	2.8	Outcome1	11.5	1.47	0.0	No	2.0	10.0305775764439	0.764	153.045	n/a	GetAnswer	Loss
153.064	4.0	0.019	1135.464	63.0	3	11.5	0.74	19.8374	955.0	2.8	Outcome1	11.5	1.47	0.0	No	n/a	10.0305775764439	n/a	n/a	n/a	ShowChoice	Loss
157.079	1.0	0.015	1139.479	63.0	3	11.5	0.74	19.8374	955.0	2.8	Outcome1	11.5	1.47	0.0	No	n/a	10.0305775764439	n/a	n/a	n/a	ShowResult	Loss
158.095	5.595	0.016	1140.495	63.0	3	11.5	0.74	19.8374	955.0	2.8	Outcome1	11.5	1.47	0.0	No	n/a	10.0305775764439	n/a	n/a	n/a	ISITrial	Loss
163.71	3.0	0.02	1146.11	64.0	3	5.3	0.0	20.4999	955.0	2.48	Outcome1	5.3	-5.16	0.0	No	2.0	10.4552661381653	0.918	164.628	n/a	GetAnswer	Gain
164.643	4.0	0.015	1147.043	64.0	3	5.3	0.0	20.4999	955.0	2.48	Outcome1	5.3	-5.16	0.0	No	n/a	10.4552661381653	n/a	n/a	n/a	ShowChoice	Gain
168.658	1.0	0.015	1151.058	64.0	3	5.3	0.0	20.4999	955.0	2.48	Outcome1	5.3	-5.16	0.0	No	n/a	10.4552661381653	n/a	n/a	n/a	ShowResult	Gain
169.675	5.47	0.017	1152.075	64.0	3	5.3	0.0	20.4999	955.0	2.48	Outcome1	5.3	-5.16	0.0	No	n/a	10.4552661381653	n/a	n/a	n/a	ISITrial	Gain
175.173	3.0	0.028	1157.573	65.0	3	13.9	1.51	22.2374	955.0	3.6	Outcome2	3.02	13.9	2.99675	Yes	2.0	10.8799546998867	2.691	177.864	n/a	GetAnswer	Loss
177.888	4.0	0.024	1160.288	65.0	3	13.9	1.51	22.2374	955.0	3.6	Outcome2	3.02	13.9	2.99675	Yes	n/a	10.8799546998867	n/a	n/a	n/a	ShowChoice	Loss
181.904	1.0	0.016	1164.304	65.0	3	13.9	1.51	22.2374	955.0	3.6	Outcome2	3.02	13.9	2.99675	Yes	n/a	10.8799546998867	n/a	n/a	n/a	ShowResult	Loss
182.92	3.344	0.016	1165.32	65.0	3	13.9	1.51	22.2374	955.0	3.6	Outcome2	3.02	13.9	2.99675	Yes	n/a	10.8799546998867	n/a	n/a	n/a	ISITrial	Loss
186.285	2.997	0.021	1168.685	65.0	3	13.9	1.51	22.2374	955.0	3.6	Outcome2	3.02	13.9	2.99675	Yes	n/a	10.8799546998867	n/a	n/a	n/a	TrialHappPreview	Loss
189.301	4.015	0.019	1171.701	65.0	3	13.9	1.51	22.2374	955.0	3.6	Outcome2	3.02	13.9	2.99675	Yes	n/a	10.8799546998867	n/a	n/a	588.0	TrialHappiness	Loss
189.302	1.122	n/a	1172.71	65.0	3	13.9	1.51	22.2374	955.0	3.6	Outcome2	3.02	13.9	2.99675	Yes	n/a	10.8799546998867	n/a	n/a	588.0	TrialHappinessSliderResponse	Loss
193.316	3.987	4.015	1175.716	65.0	3	13.9	1.51	22.2374	955.0	3.6	Outcome2	3.02	13.9	2.99675	Yes	n/a	10.8799546998867	n/a	n/a	n/a	ISIRate	Loss
197.332	3.0	0.029	1179.732	66.0	3	12.9	0.86	23.8499	955.0	2.0	Outcome2	1.73	12.9	0.0	No	2.0	11.1687429218573	2.435	199.767	n/a	GetAnswer	Loss
199.781	4.0	0.014	1182.181	66.0	3	12.9	0.86	23.8499	955.0	2.0	Outcome2	1.73	12.9	0.0	No	n/a	11.1687429218573	n/a	n/a	n/a	ShowChoice	Loss
203.796	1.0	0.015	1186.196	66.0	3	12.9	0.86	23.8499	955.0	2.0	Outcome2	1.73	12.9	0.0	No	n/a	11.1687429218573	n/a	n/a	n/a	ShowResult	Loss
204.812	3.959	0.016	1187.212	66.0	3	12.9	0.86	23.8499	955.0	2.0	Outcome2	1.73	12.9	0.0	No	n/a	11.1687429218573	n/a	n/a	n/a	ISITrial	Loss
208.794	3.0	0.023	1191.194	67.0	3	5.9	0.0	24.5874	955.0	3.6	Outcome1	5.9	-5.68	2.9185	Yes	2.0	11.5843714609287	1.526	210.32	n/a	GetAnswer	Gain
210.344	4.0	0.024	1192.744	67.0	3	5.9	0.0	24.5874	955.0	3.6	Outcome1	5.9	-5.68	2.9185	Yes	n/a	11.5843714609287	n/a	n/a	n/a	ShowChoice	Gain
214.359	1.0	0.015	1196.759	67.0	3	5.9	0.0	24.5874	955.0	3.6	Outcome1	5.9	-5.68	2.9185	Yes	n/a	11.5843714609287	n/a	n/a	n/a	ShowResult	Gain
215.375	4.199	0.016	1197.775	67.0	3	5.9	0.0	24.5874	955.0	3.6	Outcome1	5.9	-5.68	2.9185	Yes	n/a	11.5843714609287	n/a	n/a	n/a	ISITrial	Gain
219.59	2.918	0.016	1201.99	67.0	3	5.9	0.0	24.5874	955.0	3.6	Outcome1	5.9	-5.68	2.9185	Yes	n/a	11.5843714609287	n/a	n/a	n/a	TrialHappPreview	Gain
222.523	4.015	0.015	1204.923	67.0	3	5.9	0.0	24.5874	955.0	3.6	Outcome1	5.9	-5.68	2.9185	Yes	n/a	11.5843714609287	n/a	n/a	560.0	TrialHappiness	Gain
222.523	1.357	n/a	1205.389	67.0	3	5.9	0.0	24.5874	955.0	3.6	Outcome1	5.9	-5.68	2.9185	Yes	n/a	11.5843714609287	n/a	n/a	560.0	TrialHappinessSliderResponse	Gain
226.538	3.674	4.015	1208.938	67.0	3	5.9	0.0	24.5874	955.0	3.6	Outcome1	5.9	-5.68	2.9185	Yes	n/a	11.5843714609287	n/a	n/a	n/a	ISIRate	Gain
230.237	3.0	0.025	1212.637	68.0	3	-2.18	-1.0	24.3149	955.0	1.2	Outcome1	-2.18	-0.1	0.0	No	2.0	-2.0834277085692703	1.483	231.72	n/a	GetAnswer	Mixed
231.736	4.0	0.016	1214.136	68.0	3	-2.18	-1.0	24.3149	955.0	1.2	Outcome1	-2.18	-0.1	0.0	No	n/a	-2.0834277085692703	n/a	n/a	n/a	ShowChoice	Mixed
235.751	1.0	0.015	1218.151	68.0	3	-2.18	-1.0	24.3149	955.0	1.2	Outcome1	-2.18	-0.1	0.0	No	n/a	-2.0834277085692703	n/a	n/a	n/a	ShowResult	Mixed
236.768	2.185	0.017	1219.168	68.0	3	-2.18	-1.0	24.3149	955.0	1.2	Outcome1	-2.18	-0.1	0.0	No	n/a	-2.0834277085692703	n/a	n/a	n/a	ISITrial	Mixed
238.984	3.0	0.031	1221.384	69.0	3	6.38	3.19	25.1124	955.0	1.68	Outcome2	8.5	6.38	0.0	No	2.0	-2.12070592676482	0.999	239.983	n/a	GetAnswer	Gain
240.0	4.0	0.017	1222.4	69.0	3	6.38	3.19	25.1124	955.0	1.68	Outcome2	8.5	6.38	0.0	No	n/a	-2.12070592676482	n/a	n/a	n/a	ShowChoice	Gain
244.015	1.0	0.015	1226.415	69.0	3	6.38	3.19	25.1124	955.0	1.68	Outcome2	8.5	6.38	0.0	No	n/a	-2.12070592676482	n/a	n/a	n/a	ShowResult	Gain
245.032	2.0	0.017	1227.432	69.0	3	6.38	3.19	25.1124	955.0	1.68	Outcome2	8.5	6.38	0.0	No	n/a	-2.12070592676482	n/a	n/a	n/a	ISITrial	Gain
247.064	3.0	0.032	1229.464	70.0	3	-1.26	0.0	24.9549	955.0	0.4	Outcome1	-1.26	0.9	3.65125	Yes	n/a	-2.15798414496036	n/a	n/a	n/a	GetAnswer	Mixed
250.08	4.0	0.016	1232.48	70.0	3	-1.26	0.0	24.9549	955.0	0.4	Outcome1	-1.26	0.9	3.65125	Yes	n/a	-2.15798414496036	n/a	n/a	n/a	ShowChoice	Mixed
254.095	1.0	0.015	1236.495	70.0	3	-1.26	0.0	24.9549	955.0	0.4	Outcome1	-1.26	0.9	3.65125	Yes	n/a	-2.15798414496036	n/a	n/a	n/a	ShowResult	Mixed
255.111	2.623	0.016	1237.511	70.0	3	-1.26	0.0	24.9549	955.0	0.4	Outcome1	-1.26	0.9	3.65125	Yes	n/a	-2.15798414496036	n/a	n/a	n/a	ISITrial	Mixed
257.76	3.651	0.026	1240.16	70.0	3	-1.26	0.0	24.9549	955.0	0.4	Outcome1	-1.26	0.9	3.65125	Yes	n/a	-2.15798414496036	n/a	n/a	n/a	TrialHappPreview	Mixed
261.426	4.015	0.015	1243.826	70.0	3	-1.26	0.0	24.9549	955.0	0.4	Outcome1	-1.26	0.9	3.65125	Yes	n/a	-2.15798414496036	n/a	n/a	640.0	TrialHappiness	Mixed
261.426	0.699	n/a	1246.866	70.0	3	-1.26	0.0	24.9549	955.0	0.4	Outcome1	-1.26	0.9	3.65125	Yes	n/a	-2.15798414496036	n/a	n/a	640.0	TrialHappinessSliderResponse	Mixed
265.441	6.605	4.015	1247.841	70.0	3	-1.26	0.0	24.9549	955.0	0.4	Outcome1	-1.26	0.9	3.65125	Yes	n/a	-2.15798414496036	n/a	n/a	n/a	ISIRate	Mixed
272.072	3.0	0.026	1254.472	71.0	3	-2.0	-2.0	24.7049	955.0	1.2	Certain	-8.56	3.9	0.0	No	4.0	12.4586636466591	1.913	273.985	n/a	GetAnswer	Mixed
274.005	4.0	0.02	1256.405	71.0	3	-2.0	-2.0	24.7049	955.0	1.2	Certain	-8.56	3.9	0.0	No	n/a	12.4586636466591	n/a	n/a	n/a	ShowChoice	Mixed
278.02	1.0	0.015	1260.42	71.0	3	-2.0	-2.0	24.7049	955.0	1.2	Certain	-8.56	3.9	0.0	No	n/a	12.4586636466591	n/a	n/a	n/a	ShowResult	Mixed
279.036	5.499	0.016	1261.436	71.0	3	-2.0	-2.0	24.7049	955.0	1.2	Certain	-8.56	3.9	0.0	No	n/a	12.4586636466591	n/a	n/a	n/a	ISITrial	Mixed
284.551	3.0	0.016	1266.951	72.0	3	-5.0	-5.0	24.0799	955.0	0.82	Certain	1.5	-11.32	3.0805	Yes	4.0	12.815402038505098	1.584	286.135	n/a	GetAnswer	Mixed
286.151	4.0	0.016	1268.551	72.0	3	-5.0	-5.0	24.0799	955.0	0.82	Certain	1.5	-11.32	3.0805	Yes	n/a	12.815402038505098	n/a	n/a	n/a	ShowChoice	Mixed
290.166	1.0	0.015	1272.566	72.0	3	-5.0	-5.0	24.0799	955.0	0.82	Certain	1.5	-11.32	3.0805	Yes	n/a	12.815402038505098	n/a	n/a	n/a	ShowResult	Mixed
291.182	5.672	0.016	1273.582	72.0	3	-5.0	-5.0	24.0799	955.0	0.82	Certain	1.5	-11.32	3.0805	Yes	n/a	12.815402038505098	n/a	n/a	n/a	ISITrial	Mixed
296.88	3.08	0.026	1279.28	72.0	3	-5.0	-5.0	24.0799	955.0	0.82	Certain	1.5	-11.32	3.0805	Yes	n/a	12.815402038505098	n/a	n/a	n/a	TrialHappPreview	Mixed
299.979	4.015	0.019	1282.379	72.0	3	-5.0	-5.0	24.0799	955.0	0.82	Certain	1.5	-11.32	3.0805	Yes	n/a	12.815402038505098	n/a	n/a	560.0	TrialHappiness	Mixed
299.98	0.242	n/a	1283.178	72.0	3	-5.0	-5.0	24.0799	955.0	0.82	Certain	1.5	-11.32	3.0805	Yes	n/a	12.815402038505098	n/a	n/a	560.0	TrialHappinessSliderResponse	Mixed
303.994	4.322	4.015	1286.394	72.0	3	-5.0	-5.0	24.0799	955.0	0.82	Certain	1.5	-11.32	3.0805	Yes	n/a	12.815402038505098	n/a	n/a	n/a	ISIRate	Mixed
308.343	3.0	0.027	1290.743	73.0	3	10.9	-1.82	25.4424	955.0	2.0	Outcome2	-3.63	10.9	0.0	No	n/a	14.5311438278596	n/a	n/a	n/a	GetAnswer	Loss
311.358	4.0	0.015	1293.758	73.0	3	10.9	-1.82	25.4424	955.0	2.0	Outcome2	-3.63	10.9	0.0	No	n/a	14.5311438278596	n/a	n/a	n/a	ShowChoice	Loss
315.374	1.0	0.016	1297.774	73.0	3	10.9	-1.82	25.4424	955.0	2.0	Outcome2	-3.63	10.9	0.0	No	n/a	14.5311438278596	n/a	n/a	n/a	ShowResult	Loss
316.39	4.616	0.016	1298.79	73.0	3	10.9	-1.82	25.4424	955.0	2.0	Outcome2	-3.63	10.9	0.0	No	n/a	14.5311438278596	n/a	n/a	n/a	ISITrial	Loss
321.022	3.0	0.016	1303.422	74.0	3	-8.0	-8.0	24.4424	955.0	0.52	Certain	-0.9	-15.88	3.05625	Yes	4.0	14.9784824462061	1.344	322.366	n/a	GetAnswer	Mixed
322.388	4.0	0.022	1304.788	74.0	3	-8.0	-8.0	24.4424	955.0	0.52	Certain	-0.9	-15.88	3.05625	Yes	n/a	14.9784824462061	n/a	n/a	n/a	ShowChoice	Mixed
326.403	1.0	0.015	1308.803	74.0	3	-8.0	-8.0	24.4424	955.0	0.52	Certain	-0.9	-15.88	3.05625	Yes	n/a	14.9784824462061	n/a	n/a	n/a	ShowResult	Mixed
327.419	3.909	0.016	1309.819	74.0	3	-8.0	-8.0	24.4424	955.0	0.52	Certain	-0.9	-15.88	3.05625	Yes	n/a	14.9784824462061	n/a	n/a	n/a	ISITrial	Mixed
331.351	3.056	0.023	1313.751	74.0	3	-8.0	-8.0	24.4424	955.0	0.52	Certain	-0.9	-15.88	3.05625	Yes	n/a	14.9784824462061	n/a	n/a	n/a	TrialHappPreview	Mixed
334.434	4.015	0.027	1316.834	74.0	3	-8.0	-8.0	24.4424	955.0	0.52	Certain	-0.9	-15.88	3.05625	Yes	n/a	14.9784824462061	n/a	n/a	564.0	TrialHappiness	Mixed
334.434	1.366	n/a	1318.973	74.0	3	-8.0	-8.0	24.4424	955.0	0.52	Certain	-0.9	-15.88	3.05625	Yes	n/a	14.9784824462061	n/a	n/a	564.0	TrialHappinessSliderResponse	Mixed
338.449	4.225	4.015	1320.849	74.0	3	-8.0	-8.0	24.4424	955.0	0.52	Certain	-0.9	-15.88	3.05625	Yes	n/a	14.9784824462061	n/a	n/a	n/a	ISIRate	Mixed
342.698	3.0	0.024	1325.098	75.0	3	5.99	3.0	25.1912	955.0	5.0	Outcome2	8.3	5.99	0.0	No	2.0	-2.31304265760664	0.98	343.678	n/a	GetAnswer	Gain
343.697	4.0	0.019	1326.097	75.0	3	5.99	3.0	25.1912	955.0	5.0	Outcome2	8.3	5.99	0.0	No	n/a	-2.31304265760664	n/a	n/a	n/a	ShowChoice	Gain
347.712	1.0	0.015	1330.112	75.0	3	5.99	3.0	25.1912	955.0	5.0	Outcome2	8.3	5.99	0.0	No	n/a	-2.31304265760664	n/a	n/a	n/a	ShowResult	Gain
348.729	4.979	0.017	1331.129	75.0	3	5.99	3.0	25.1912	955.0	5.0	Outcome2	8.3	5.99	0.0	No	n/a	-2.31304265760664	n/a	n/a	n/a	ISITrial	Gain
353.727	3.0	0.019	1336.127	76.0	3	7.55	3.78	26.135	955.0	3.6	Outcome2	9.9	7.55	0.0	No	n/a	-2.34994337485844	n/a	n/a	n/a	GetAnswer	Gain
356.743	4.0	0.016	1339.143	76.0	3	7.55	3.78	26.135	955.0	3.6	Outcome2	9.9	7.55	0.0	No	n/a	-2.34994337485844	n/a	n/a	n/a	ShowChoice	Gain
360.758	1.0	0.015	1343.158	76.0	3	7.55	3.78	26.135	955.0	3.6	Outcome2	9.9	7.55	0.0	No	n/a	-2.34994337485844	n/a	n/a	n/a	ShowResult	Gain
361.774	3.931	0.016	1344.174	76.0	3	7.55	3.78	26.135	955.0	3.6	Outcome2	9.9	7.55	0.0	No	n/a	-2.34994337485844	n/a	n/a	n/a	ISITrial	Gain
365.723	3.0	0.018	1348.123	77.0	3	4.3	-4.0	26.6725	955.0	2.0	Outcome1	4.3	-11.94	4.0	Yes	2.0	16.2434881087203	1.637	367.36	n/a	GetAnswer	Mixed
367.372	4.0	0.012	1349.772	77.0	3	4.3	-4.0	26.6725	955.0	2.0	Outcome1	4.3	-11.94	4.0	Yes	n/a	16.2434881087203	n/a	n/a	n/a	ShowChoice	Mixed
371.387	1.0	0.015	1353.787	77.0	3	4.3	-4.0	26.6725	955.0	2.0	Outcome1	4.3	-11.94	4.0	Yes	n/a	16.2434881087203	n/a	n/a	n/a	ShowResult	Mixed
372.404	7.022	0.017	1354.804	77.0	3	4.3	-4.0	26.6725	955.0	2.0	Outcome1	4.3	-11.94	4.0	Yes	n/a	16.2434881087203	n/a	n/a	n/a	ISITrial	Mixed
379.451	4.0	0.025	1361.851	77.0	3	4.3	-4.0	26.6725	955.0	2.0	Outcome1	4.3	-11.94	4.0	Yes	n/a	16.2434881087203	n/a	n/a	n/a	TrialHappPreview	Mixed
383.467	4.015	0.016	1365.867	77.0	3	4.3	-4.0	26.6725	955.0	2.0	Outcome1	4.3	-11.94	4.0	Yes	n/a	16.2434881087203	n/a	n/a	552.0	TrialHappiness	Mixed
383.467	2.722	n/a	1366.75	77.0	3	4.3	-4.0	26.6725	955.0	2.0	Outcome1	4.3	-11.94	4.0	Yes	n/a	16.2434881087203	n/a	n/a	552.0	TrialHappinessSliderResponse	Mixed
387.482	8.0	4.015	1369.882	77.0	3	4.3	-4.0	26.6725	955.0	2.0	Outcome1	4.3	-11.94	4.0	Yes	n/a	16.2434881087203	n/a	n/a	n/a	ISIRate	Mixed
395.512	3.0	0.03	1377.912	78.0	3	0.7	-7.0	26.76	955.0	0.3	Outcome2	-16.19	0.7	0.0	No	n/a	16.8901472253681	n/a	n/a	n/a	GetAnswer	Mixed
398.528	4.0	0.016	1380.928	78.0	3	0.7	-7.0	26.76	955.0	0.3	Outcome2	-16.19	0.7	0.0	No	n/a	16.8901472253681	n/a	n/a	n/a	ShowChoice	Mixed
402.543	1.0	0.015	1384.943	78.0	3	0.7	-7.0	26.76	955.0	0.3	Outcome2	-16.19	0.7	0.0	No	n/a	16.8901472253681	n/a	n/a	n/a	ShowResult	Mixed
403.56	2.078	0.017	1385.96	78.0	3	0.7	-7.0	26.76	955.0	0.3	Outcome2	-16.19	0.7	0.0	No	n/a	16.8901472253681	n/a	n/a	n/a	ISITrial	Mixed
405.659	3.0	0.021	1388.059	79.0	3	4.39	2.19	27.3088	955.0	2.0	Outcome2	6.9	4.39	2.7295	Yes	2.0	-2.5104756511891297	0.887	406.546	n/a	GetAnswer	Gain
406.559	4.0	0.013	1388.959	79.0	3	4.39	2.19	27.3088	955.0	2.0	Outcome2	6.9	4.39	2.7295	Yes	n/a	-2.5104756511891297	n/a	n/a	n/a	ShowChoice	Gain
410.574	1.0	0.015	1392.974	79.0	3	4.39	2.19	27.3088	955.0	2.0	Outcome2	6.9	4.39	2.7295	Yes	n/a	-2.5104756511891297	n/a	n/a	n/a	ShowResult	Gain
411.59	3.829	0.016	1393.99	79.0	3	4.39	2.19	27.3088	955.0	2.0	Outcome2	6.9	4.39	2.7295	Yes	n/a	-2.5104756511891297	n/a	n/a	n/a	ISITrial	Gain
415.439	2.73	0.02	1397.839	79.0	3	4.39	2.19	27.3088	955.0	2.0	Outcome2	6.9	4.39	2.7295	Yes	n/a	-2.5104756511891297	n/a	n/a	n/a	TrialHappPreview	Gain
418.188	4.015	0.019	1400.588	79.0	3	4.39	2.19	27.3088	955.0	2.0	Outcome2	6.9	4.39	2.7295	Yes	n/a	-2.5104756511891297	n/a	n/a	436.0	TrialHappiness	Gain
418.188	2.298	n/a	1402.275	79.0	3	4.39	2.19	27.3088	955.0	2.0	Outcome2	6.9	4.39	2.7295	Yes	n/a	-2.5104756511891297	n/a	n/a	436.0	TrialHappinessSliderResponse	Gain
422.203	2.918	4.015	1404.603	79.0	3	4.39	2.19	27.3088	955.0	2.0	Outcome2	6.9	4.39	2.7295	Yes	n/a	-2.5104756511891297	n/a	n/a	n/a	ISIRate	Gain
425.152	3.0	0.031	1407.552	80.0	3	-9.0	-9.0	26.1838	955.0	0.3	Certain	-19.07	0.7	0.0	No	4.0	19.7734994337486	1.152	426.304	n/a	GetAnswer	Mixed
426.318	4.0	0.014	1408.718	80.0	3	-9.0	-9.0	26.1838	955.0	0.3	Certain	-19.07	0.7	0.0	No	n/a	19.7734994337486	n/a	n/a	n/a	ShowChoice	Mixed
430.334	1.0	0.016	1412.734	80.0	3	-9.0	-9.0	26.1838	955.0	0.3	Certain	-19.07	0.7	0.0	No	n/a	19.7734994337486	n/a	n/a	n/a	ShowResult	Mixed
431.35	3.336	0.016	1413.75	80.0	3	-9.0	-9.0	26.1838	955.0	0.3	Certain	-19.07	0.7	0.0	No	n/a	19.7734994337486	n/a	n/a	n/a	ISITrial	Mixed
434.715	3.0	0.029	1417.115	81.0	3	8.43	4.22	27.2376	955.0	2.8	Outcome2	11.5	8.43	3.92375	Yes	2.0	-3.0682332955832403	0.762	435.477	n/a	GetAnswer	Loss
435.498	4.0	0.021	1417.898	81.0	3	8.43	4.22	27.2376	955.0	2.8	Outcome2	11.5	8.43	3.92375	Yes	n/a	-3.0682332955832403	n/a	n/a	n/a	ShowChoice	Loss
439.514	1.0	0.016	1421.914	81.0	3	8.43	4.22	27.2376	955.0	2.8	Outcome2	11.5	8.43	3.92375	Yes	n/a	-3.0682332955832403	n/a	n/a	n/a	ShowResult	Loss
440.53	3.919	0.016	1422.93	81.0	3	8.43	4.22	27.2376	955.0	2.8	Outcome2	11.5	8.43	3.92375	Yes	n/a	-3.0682332955832403	n/a	n/a	n/a	ISITrial	Loss
444.462	3.924	0.013	1426.862	81.0	3	8.43	4.22	27.2376	955.0	2.8	Outcome2	11.5	8.43	3.92375	Yes	n/a	-3.0682332955832403	n/a	n/a	n/a	TrialHappPreview	Loss
448.411	4.015	0.025	1430.811	81.0	3	8.43	4.22	27.2376	955.0	2.8	Outcome2	11.5	8.43	3.92375	Yes	n/a	-3.0682332955832403	n/a	n/a	568.0	TrialHappiness	Loss
448.411	0.832	n/a	1431.869	81.0	3	8.43	4.22	27.2376	955.0	2.8	Outcome2	11.5	8.43	3.92375	Yes	n/a	-3.0682332955832403	n/a	n/a	568.0	TrialHappinessSliderResponse	Loss
452.426	7.695	4.015	1434.826	81.0	3	8.43	4.22	27.2376	955.0	2.8	Outcome2	11.5	8.43	3.92375	Yes	n/a	-3.0682332955832403	n/a	n/a	n/a	ISIRate	Loss
460.14	3.0	0.019	1442.54	n/a	3	n/a	n/a	n/a	n/a	n/a	n/a	n/a	n/a	n/a	n/a	n/a	n/a	n/a	n/a	n/a	CurrentEarnings	n/a
463.155	-0.001	0.015	1445.555	n/a	3	n/a	n/a	n/a	n/a	n/a	n/a	n/a	n/a	n/a	n/a	{SPACE}	n/a	3.548	466.703	n/a	Goodbye	n/a
