onset	duration	onset_delay	onset_unadjusted	trial_number	block	amount_change	certain_amount	current_amount	mood_target	multiplier	outcome	outcome1_amount	outcome2_amount	question_duration	rating	response	rpe	rt	rt_time	slider_response	trial_phase	trial_type
-36.038	-0.001	0.029	11.055	n/a	0	n/a	n/a	n/a	n/a	n/a	n/a	n/a	n/a	n/a	n/a	{SPACE}	n/a	1.301	-34.737	n/a	Welcome	n/a
-34.705	5.0	0.032	12.388	n/a	0	n/a	n/a	n/a	n/a	n/a	n/a	n/a	n/a	n/a	n/a	n/a	n/a	n/a	n/a	n/a	LifeHappyPreview	n/a
-29.673	3.273	0.032	17.42	n/a	0	n/a	n/a	n/a	n/a	n/a	n/a	n/a	n/a	n/a	n/a	n/a	n/a	n/a	n/a	376.0	LifeHappiness	n/a
-29.672	0.614	n/a	20.08	n/a	0	n/a	n/a	n/a	n/a	n/a	n/a	n/a	n/a	n/a	n/a	n/a	n/a	n/a	n/a	376.0	LifeHappinessSliderResponse	n/a
-15.662	4.0	0.019	31.431	n/a	0	n/a	n/a	n/a	n/a	n/a	n/a	n/a	n/a	n/a	n/a	n/a	n/a	n/a	n/a	n/a	BlockHappyPreview	n/a
-11.646	0.381	0.016	35.447	n/a	0	n/a	n/a	n/a	n/a	n/a	n/a	n/a	n/a	n/a	n/a	n/a	n/a	n/a	n/a	512.0	BlockStartHappiness	n/a
-11.646	0.0	n/a	35.828	n/a	0	n/a	n/a	n/a	n/a	n/a	n/a	n/a	n/a	n/a	n/a	n/a	n/a	n/a	n/a	512.0	BlockStartHappinessSliderResponse	n/a
-5.149	-0.001	0.02	41.944	n/a	0	n/a	n/a	n/a	n/a	n/a	n/a	n/a	n/a	n/a	n/a	5.0	n/a	5.126	-0.023	n/a	ScanWait	n/a
0.0	10.0	0.023	47.093	n/a	1	n/a	n/a	n/a	n/a	n/a	n/a	n/a	n/a	n/a	n/a	n/a	n/a	n/a	n/a	n/a	GetReady	n/a
10.03	3.0	0.03	57.123	1.0	1	-2.0	-2.0	9.75	955.0	0.3	Certain	-1.3	-3.1	0.0	No	4.0	-1.79775386938467	1.553	11.583	n/a	GetAnswer	Mixed
11.612	4.0	0.029	58.705	1.0	1	-2.0	-2.0	9.75	955.0	0.3	Certain	-1.3	-3.1	0.0	No	n/a	-1.79775386938467	n/a	n/a	n/a	ShowChoice	Mixed
15.628	1.0	0.016	62.721	1.0	1	-2.0	-2.0	9.75	955.0	0.3	Certain	-1.3	-3.1	0.0	No	n/a	-1.79775386938467	n/a	n/a	n/a	ShowResult	Mixed
16.644	2.431	0.016	63.737	1.0	1	-2.0	-2.0	9.75	955.0	0.3	Certain	-1.3	-3.1	0.0	No	n/a	-1.79775386938467	n/a	n/a	n/a	ISITrial	Mixed
19.11	3.0	0.035	66.203	2.0	1	3.1	-1.0	10.1375	955.0	0.52	Outcome1	3.1	-4.93	0.0	No	2.0	8.02718006795017	1.728	20.838	n/a	GetAnswer	Mixed
20.859	4.0	0.021	67.952	2.0	1	3.1	-1.0	10.1375	955.0	0.52	Outcome1	3.1	-4.93	0.0	No	n/a	8.02718006795017	n/a	n/a	n/a	ShowChoice	Mixed
24.874	1.0	0.015	71.967	2.0	1	3.1	-1.0	10.1375	955.0	0.52	Outcome1	3.1	-4.93	0.0	No	n/a	8.02718006795017	n/a	n/a	n/a	ShowResult	Mixed
25.891	4.568	0.017	72.984	2.0	1	3.1	-1.0	10.1375	955.0	0.52	Outcome1	3.1	-4.93	0.0	No	n/a	8.02718006795017	n/a	n/a	n/a	ISITrial	Mixed
30.489	3.0	0.03	77.582	3.0	1	5.7	1.0	10.85	955.0	3.16	Outcome1	5.7	-2.83	2.868	Yes	2.0	8.52887882219705	1.16	31.649	n/a	GetAnswer	Gain
31.672	4.0	0.023	78.765	3.0	1	5.7	1.0	10.85	955.0	3.16	Outcome1	5.7	-2.83	2.868	Yes	n/a	8.52887882219705	n/a	n/a	n/a	ShowChoice	Gain
35.687	1.0	0.015	82.78	3.0	1	5.7	1.0	10.85	955.0	3.16	Outcome1	5.7	-2.83	2.868	Yes	n/a	8.52887882219705	n/a	n/a	n/a	ShowResult	Gain
36.704	3.243	0.017	83.797	3.0	1	5.7	1.0	10.85	955.0	3.16	Outcome1	5.7	-2.83	2.868	Yes	n/a	8.52887882219705	n/a	n/a	n/a	ISITrial	Gain
39.969	2.868	0.022	87.062	3.0	1	5.7	1.0	10.85	955.0	3.16	Outcome1	5.7	-2.83	2.868	Yes	n/a	8.52887882219705	n/a	n/a	n/a	TrialHappPreview	Gain
42.868	4.015	0.031	89.961	3.0	1	5.7	1.0	10.85	955.0	3.16	Outcome1	5.7	-2.83	2.868	Yes	n/a	8.52887882219705	n/a	n/a	504.0	TrialHappiness	Gain
42.869	3.009	n/a	90.292	3.0	1	5.7	1.0	10.85	955.0	3.16	Outcome1	5.7	-2.83	2.868	Yes	n/a	8.52887882219705	n/a	n/a	504.0	TrialHappinessSliderResponse	Gain
46.883	3.472	4.015	93.976	3.0	1	5.7	1.0	10.85	955.0	3.16	Outcome1	5.7	-2.83	2.868	Yes	n/a	8.52887882219705	n/a	n/a	n/a	ISIRate	Gain
50.382	3.0	0.027	97.475	4.0	1	10.7	0.76	12.1875	955.0	1.82	Outcome2	1.53	10.7	0.0	No	2.0	9.16647791619479	1.622	52.004	n/a	GetAnswer	Loss
52.032	4.0	0.028	99.125	4.0	1	10.7	0.76	12.1875	955.0	1.82	Outcome2	1.53	10.7	0.0	No	n/a	9.16647791619479	n/a	n/a	n/a	ShowChoice	Loss
56.047	1.0	0.015	103.14	4.0	1	10.7	0.76	12.1875	955.0	1.82	Outcome2	1.53	10.7	0.0	No	n/a	9.16647791619479	n/a	n/a	n/a	ShowResult	Loss
57.063	2.011	0.016	104.156	4.0	1	10.7	0.76	12.1875	955.0	1.82	Outcome2	1.53	10.7	0.0	No	n/a	9.16647791619479	n/a	n/a	n/a	ISITrial	Loss
59.096	3.0	0.022	106.189	5.0	1	2.0	2.0	12.4375	955.0	2.8	Certain	7.5	-2.18	2.5825	Yes	4.0	9.67723669309173	1.259	60.355	n/a	GetAnswer	Gain
60.379	4.0	0.024	107.472	5.0	1	2.0	2.0	12.4375	955.0	2.8	Certain	7.5	-2.18	2.5825	Yes	n/a	9.67723669309173	n/a	n/a	n/a	ShowChoice	Gain
64.394	1.0	0.015	111.487	5.0	1	2.0	2.0	12.4375	955.0	2.8	Certain	7.5	-2.18	2.5825	Yes	n/a	9.67723669309173	n/a	n/a	n/a	ShowResult	Gain
65.41	5.129	0.016	112.503	5.0	1	2.0	2.0	12.4375	955.0	2.8	Certain	7.5	-2.18	2.5825	Yes	n/a	9.67723669309173	n/a	n/a	n/a	ISITrial	Gain
70.559	2.582	0.02	117.652	5.0	1	2.0	2.0	12.4375	955.0	2.8	Certain	7.5	-2.18	2.5825	Yes	n/a	9.67723669309173	n/a	n/a	n/a	TrialHappPreview	Gain
73.158	4.015	0.017	120.251	5.0	1	2.0	2.0	12.4375	955.0	2.8	Certain	7.5	-2.18	2.5825	Yes	n/a	9.67723669309173	n/a	n/a	548.0	TrialHappiness	Gain
73.158	2.515	n/a	121.641	5.0	1	2.0	2.0	12.4375	955.0	2.8	Certain	7.5	-2.18	2.5825	Yes	n/a	9.67723669309173	n/a	n/a	548.0	TrialHappinessSliderResponse	Gain
77.173	2.33	4.015	124.266	5.0	1	2.0	2.0	12.4375	955.0	2.8	Certain	7.5	-2.18	2.5825	Yes	n/a	9.67723669309173	n/a	n/a	n/a	ISIRate	Gain
79.522	3.0	0.019	126.615	6.0	1	6.3	1.0	13.225	955.0	5.0	Outcome1	6.3	-3.14	0.0	No	2.0	9.440543601359	1.531	81.053	n/a	GetAnswer	Gain
81.072	4.0	0.019	128.165	6.0	1	6.3	1.0	13.225	955.0	5.0	Outcome1	6.3	-3.14	0.0	No	n/a	9.440543601359	n/a	n/a	n/a	ShowChoice	Gain
85.087	1.0	0.015	132.18	6.0	1	6.3	1.0	13.225	955.0	5.0	Outcome1	6.3	-3.14	0.0	No	n/a	9.440543601359	n/a	n/a	n/a	ShowResult	Gain
86.103	6.232	0.016	133.196	6.0	1	6.3	1.0	13.225	955.0	5.0	Outcome1	6.3	-3.14	0.0	No	n/a	9.440543601359	n/a	n/a	n/a	ISITrial	Gain
92.368	3.0	0.033	139.461	7.0	1	-1.0	-1.0	13.1	955.0	1.2	Certain	-6.0	3.9	0.0	No	4.0	9.90147225368063	1.82	94.188	n/a	GetAnswer	Mixed
94.217	4.0	0.029	141.31	7.0	1	-1.0	-1.0	13.1	955.0	1.2	Certain	-6.0	3.9	0.0	No	n/a	9.90147225368063	n/a	n/a	n/a	ShowChoice	Mixed
98.232	1.0	0.015	145.325	7.0	1	-1.0	-1.0	13.1	955.0	1.2	Certain	-6.0	3.9	0.0	No	n/a	9.90147225368063	n/a	n/a	n/a	ShowResult	Mixed
99.249	2.305	0.017	146.342	7.0	1	-1.0	-1.0	13.1	955.0	1.2	Certain	-6.0	3.9	0.0	No	n/a	9.90147225368063	n/a	n/a	n/a	ISITrial	Mixed
101.581	3.0	0.027	148.674	8.0	1	7.7	2.0	14.0625	955.0	3.16	Outcome1	7.7	-2.66	3.1125	Yes	2.0	10.362400906002302	1.847	103.428	n/a	GetAnswer	Gain
103.447	4.0	0.019	150.54	8.0	1	7.7	2.0	14.0625	955.0	3.16	Outcome1	7.7	-2.66	3.1125	Yes	n/a	10.362400906002302	n/a	n/a	n/a	ShowChoice	Gain
107.463	1.0	0.016	154.556	8.0	1	7.7	2.0	14.0625	955.0	3.16	Outcome1	7.7	-2.66	3.1125	Yes	n/a	10.362400906002302	n/a	n/a	n/a	ShowResult	Gain
108.479	3.506	0.016	155.572	8.0	1	7.7	2.0	14.0625	955.0	3.16	Outcome1	7.7	-2.66	3.1125	Yes	n/a	10.362400906002302	n/a	n/a	n/a	ISITrial	Gain
112.011	3.112	0.026	159.104	8.0	1	7.7	2.0	14.0625	955.0	3.16	Outcome1	7.7	-2.66	3.1125	Yes	n/a	10.362400906002302	n/a	n/a	n/a	TrialHappPreview	Gain
115.143	4.015	0.02	162.236	8.0	1	7.7	2.0	14.0625	955.0	3.16	Outcome1	7.7	-2.66	3.1125	Yes	n/a	10.362400906002302	n/a	n/a	544.0	TrialHappiness	Gain
115.144	0.871	n/a	163.023	8.0	1	7.7	2.0	14.0625	955.0	3.16	Outcome1	7.7	-2.66	3.1125	Yes	n/a	10.362400906002302	n/a	n/a	544.0	TrialHappinessSliderResponse	Gain
119.158	4.45	4.015	166.251	8.0	1	7.7	2.0	14.0625	955.0	3.16	Outcome1	7.7	-2.66	3.1125	Yes	n/a	10.362400906002302	n/a	n/a	n/a	ISIRate	Gain
123.64	3.0	0.032	170.733	9.0	1	11.3	0.2	15.475	955.0	2.48	Outcome2	0.41	11.3	0.0	No	2.0	10.8912797281993	1.728	125.368	n/a	GetAnswer	Loss
125.39	4.0	0.022	172.483	9.0	1	11.3	0.2	15.475	955.0	2.48	Outcome2	0.41	11.3	0.0	No	n/a	10.8912797281993	n/a	n/a	n/a	ShowChoice	Loss
129.405	1.0	0.015	176.498	9.0	1	11.3	0.2	15.475	955.0	2.48	Outcome2	0.41	11.3	0.0	No	n/a	10.8912797281993	n/a	n/a	n/a	ShowResult	Loss
130.421	2.0	0.016	177.514	9.0	1	11.3	0.2	15.475	955.0	2.48	Outcome2	0.41	11.3	0.0	No	n/a	10.8912797281993	n/a	n/a	n/a	ISITrial	Loss
132.454	3.0	0.033	179.547	10.0	1	2.07	1.03	15.7338	955.0	1.5	Outcome2	4.1	2.07	4.0	Yes	2.0	-2.0324650811627	1.211	133.665	n/a	GetAnswer	Mixed
133.687	4.0	0.022	180.78	10.0	1	2.07	1.03	15.7338	955.0	1.5	Outcome2	4.1	2.07	4.0	Yes	n/a	-2.0324650811627	n/a	n/a	n/a	ShowChoice	Mixed
137.702	1.0	0.015	184.795	10.0	1	2.07	1.03	15.7338	955.0	1.5	Outcome2	4.1	2.07	4.0	Yes	n/a	-2.0324650811627	n/a	n/a	n/a	ShowResult	Mixed
138.718	2.0	0.016	185.811	10.0	1	2.07	1.03	15.7338	955.0	1.5	Outcome2	4.1	2.07	4.0	Yes	n/a	-2.0324650811627	n/a	n/a	n/a	ISITrial	Mixed
140.734	4.0	0.016	187.827	10.0	1	2.07	1.03	15.7338	955.0	1.5	Outcome2	4.1	2.07	4.0	Yes	n/a	-2.0324650811627	n/a	n/a	n/a	TrialHappPreview	Mixed
144.766	4.016	0.032	191.859	10.0	1	2.07	1.03	15.7338	955.0	1.5	Outcome2	4.1	2.07	4.0	Yes	n/a	-2.0324650811627	n/a	n/a	548.0	TrialHappiness	Mixed
144.767	1.414	n/a	192.269	10.0	1	2.07	1.03	15.7338	955.0	1.5	Outcome2	4.1	2.07	4.0	Yes	n/a	-2.0324650811627	n/a	n/a	548.0	TrialHappinessSliderResponse	Mixed
148.782	8.0	4.016	195.875	10.0	1	2.07	1.03	15.7338	955.0	1.5	Outcome2	4.1	2.07	4.0	Yes	n/a	-2.0324650811627	n/a	n/a	n/a	ISIRate	Mixed
156.812	3.0	0.03	203.905	11.0	1	10.1	-0.82	16.9963	955.0	4.2	Outcome2	-1.65	10.1	0.0	No	2.0	11.7542468856172	1.592	158.404	n/a	GetAnswer	Gain
158.428	4.0	0.024	205.521	11.0	1	10.1	-0.82	16.9963	955.0	4.2	Outcome2	-1.65	10.1	0.0	No	n/a	11.7542468856172	n/a	n/a	n/a	ShowChoice	Gain
162.443	1.0	0.015	209.536	11.0	1	10.1	-0.82	16.9963	955.0	4.2	Outcome2	-1.65	10.1	0.0	No	n/a	11.7542468856172	n/a	n/a	n/a	ShowResult	Gain
163.46	3.324	0.017	210.553	11.0	1	10.1	-0.82	16.9963	955.0	4.2	Outcome2	-1.65	10.1	0.0	No	n/a	11.7542468856172	n/a	n/a	n/a	ISITrial	Gain
166.809	3.0	0.025	213.902	12.0	1	-0.59	0.0	16.9225	955.0	0.82	Outcome2	1.5	-0.59	2.61875	Yes	2.0	-2.09343148357871	1.956	168.765	n/a	GetAnswer	Mixed
168.791	4.0	0.026	215.884	12.0	1	-0.59	0.0	16.9225	955.0	0.82	Outcome2	1.5	-0.59	2.61875	Yes	n/a	-2.09343148357871	n/a	n/a	n/a	ShowChoice	Mixed
172.807	1.0	0.016	219.9	12.0	1	-0.59	0.0	16.9225	955.0	0.82	Outcome2	1.5	-0.59	2.61875	Yes	n/a	-2.09343148357871	n/a	n/a	n/a	ShowResult	Mixed
173.823	6.642	0.016	220.916	12.0	1	-0.59	0.0	16.9225	955.0	0.82	Outcome2	1.5	-0.59	2.61875	Yes	n/a	-2.09343148357871	n/a	n/a	n/a	ISITrial	Mixed
180.487	2.619	0.022	227.58	12.0	1	-0.59	0.0	16.9225	955.0	0.82	Outcome2	1.5	-0.59	2.61875	Yes	n/a	-2.09343148357871	n/a	n/a	n/a	TrialHappPreview	Mixed
183.136	4.016	0.03	230.229	12.0	1	-0.59	0.0	16.9225	955.0	0.82	Outcome2	1.5	-0.59	2.61875	Yes	n/a	-2.09343148357871	n/a	n/a	512.0	TrialHappiness	Mixed
183.137	0.0	n/a	230.23	12.0	1	-0.59	0.0	16.9225	955.0	0.82	Outcome2	1.5	-0.59	2.61875	Yes	n/a	-2.09343148357871	n/a	n/a	512.0	TrialHappinessSliderResponse	Mixed
187.152	2.475	4.016	234.245	12.0	1	-0.59	0.0	16.9225	955.0	0.82	Outcome2	1.5	-0.59	2.61875	Yes	n/a	-2.09343148357871	n/a	n/a	n/a	ISIRate	Mixed
189.651	3.0	0.024	236.744	13.0	1	-5.0	-5.0	16.2975	955.0	1.0	Certain	-11.59	1.7	0.0	No	4.0	13.287655719139302	2.172	191.823	n/a	GetAnswer	Mixed
191.85	4.0	0.027	238.943	13.0	1	-5.0	-5.0	16.2975	955.0	1.0	Certain	-11.59	1.7	0.0	No	n/a	13.287655719139302	n/a	n/a	n/a	ShowChoice	Mixed
195.865	1.0	0.015	242.958	13.0	1	-5.0	-5.0	16.2975	955.0	1.0	Certain	-11.59	1.7	0.0	No	n/a	13.287655719139302	n/a	n/a	n/a	ShowResult	Mixed
196.882	3.48	0.017	243.975	13.0	1	-5.0	-5.0	16.2975	955.0	1.0	Certain	-11.59	1.7	0.0	No	n/a	13.287655719139302	n/a	n/a	n/a	ISITrial	Mixed
200.397	3.0	0.035	247.49	14.0	1	4.3	-2.0	16.835	955.0	2.0	Outcome1	4.3	-9.49	0.0	No	2.0	13.7893544733862	1.88	202.277	n/a	GetAnswer	Mixed
202.296	4.0	0.019	249.389	14.0	1	4.3	-2.0	16.835	955.0	2.0	Outcome1	4.3	-9.49	0.0	No	n/a	13.7893544733862	n/a	n/a	n/a	ShowChoice	Mixed
206.312	1.0	0.016	253.405	14.0	1	4.3	-2.0	16.835	955.0	2.0	Outcome1	4.3	-9.49	0.0	No	n/a	13.7893544733862	n/a	n/a	n/a	ShowResult	Mixed
207.328	5.019	0.016	254.421	14.0	1	4.3	-2.0	16.835	955.0	2.0	Outcome1	4.3	-9.49	0.0	No	n/a	13.7893544733862	n/a	n/a	n/a	ISITrial	Mixed
212.376	3.0	0.029	259.469	15.0	1	-0.1	-7.0	16.8225	955.0	1.2	Outcome2	-14.39	-0.1	3.3485	Yes	2.0	14.2910532276331	2.604	214.98	n/a	GetAnswer	Mixed
215.009	4.0	0.029	262.102	15.0	1	-0.1	-7.0	16.8225	955.0	1.2	Outcome2	-14.39	-0.1	3.3485	Yes	n/a	14.2910532276331	n/a	n/a	n/a	ShowChoice	Mixed
219.024	1.0	0.015	266.117	15.0	1	-0.1	-7.0	16.8225	955.0	1.2	Outcome2	-14.39	-0.1	3.3485	Yes	n/a	14.2910532276331	n/a	n/a	n/a	ShowResult	Mixed
220.04	7.614	0.016	267.133	15.0	1	-0.1	-7.0	16.8225	955.0	1.2	Outcome2	-14.39	-0.1	3.3485	Yes	n/a	14.2910532276331	n/a	n/a	n/a	ISITrial	Mixed
227.671	3.348	0.017	274.764	15.0	1	-0.1	-7.0	16.8225	955.0	1.2	Outcome2	-14.39	-0.1	3.3485	Yes	n/a	14.2910532276331	n/a	n/a	n/a	TrialHappPreview	Mixed
231.036	4.016	0.017	278.129	15.0	1	-0.1	-7.0	16.8225	955.0	1.2	Outcome2	-14.39	-0.1	3.3485	Yes	n/a	14.2910532276331	n/a	n/a	552.0	TrialHappiness	Mixed
231.037	0.235	n/a	278.586	15.0	1	-0.1	-7.0	16.8225	955.0	1.2	Outcome2	-14.39	-0.1	3.3485	Yes	n/a	14.2910532276331	n/a	n/a	552.0	TrialHappinessSliderResponse	Mixed
235.052	5.394	4.016	282.145	15.0	1	-0.1	-7.0	16.8225	955.0	1.2	Outcome2	-14.39	-0.1	3.3485	Yes	n/a	14.2910532276331	n/a	n/a	n/a	ISIRate	Mixed
240.467	3.0	0.021	287.56	16.0	1	8.1	1.0	17.835	955.0	4.2	Outcome1	8.1	-6.01	0.0	No	2.0	14.113250283125698	2.401	242.868	n/a	GetAnswer	Gain
242.882	4.0	0.014	289.975	16.0	1	8.1	1.0	17.835	955.0	4.2	Outcome1	8.1	-6.01	0.0	No	n/a	14.113250283125698	n/a	n/a	n/a	ShowChoice	Gain
246.898	1.0	0.016	293.991	16.0	1	8.1	1.0	17.835	955.0	4.2	Outcome1	8.1	-6.01	0.0	No	n/a	14.113250283125698	n/a	n/a	n/a	ShowResult	Gain
247.914	3.008	0.016	295.007	16.0	1	8.1	1.0	17.835	955.0	4.2	Outcome1	8.1	-6.01	0.0	No	n/a	14.113250283125698	n/a	n/a	n/a	ISITrial	Gain
250.946	3.0	0.024	298.039	17.0	1	2.0	2.0	18.085	955.0	3.6	Certain	9.9	-4.67	3.0415	Yes	4.0	14.5696489241223	2.377	253.323	n/a	GetAnswer	Gain
253.345	4.0	0.022	300.438	17.0	1	2.0	2.0	18.085	955.0	3.6	Certain	9.9	-4.67	3.0415	Yes	n/a	14.5696489241223	n/a	n/a	n/a	ShowChoice	Gain
257.361	1.0	0.016	304.454	17.0	1	2.0	2.0	18.085	955.0	3.6	Certain	9.9	-4.67	3.0415	Yes	n/a	14.5696489241223	n/a	n/a	n/a	ShowResult	Gain
258.377	3.566	0.016	305.47	17.0	1	2.0	2.0	18.085	955.0	3.6	Certain	9.9	-4.67	3.0415	Yes	n/a	14.5696489241223	n/a	n/a	n/a	ISITrial	Gain
261.959	3.042	0.016	309.052	17.0	1	2.0	2.0	18.085	955.0	3.6	Certain	9.9	-4.67	3.0415	Yes	n/a	14.5696489241223	n/a	n/a	n/a	TrialHappPreview	Gain
265.025	4.015	0.024	312.118	17.0	1	2.0	2.0	18.085	955.0	3.6	Certain	9.9	-4.67	3.0415	Yes	n/a	14.5696489241223	n/a	n/a	552.0	TrialHappiness	Gain
265.025	2.889	n/a	312.603	17.0	1	2.0	2.0	18.085	955.0	3.6	Certain	9.9	-4.67	3.0415	Yes	n/a	14.5696489241223	n/a	n/a	552.0	TrialHappinessSliderResponse	Gain
269.04	4.166	4.015	316.133	17.0	1	2.0	2.0	18.085	955.0	3.6	Certain	9.9	-4.67	3.0415	Yes	n/a	14.5696489241223	n/a	n/a	n/a	ISIRate	Gain
273.239	3.0	0.033	320.332	18.0	1	-1.5	-9.0	17.8975	955.0	0.2	Outcome2	-16.53	-1.5	0.0	No	2.0	15.0260475651189	1.595	274.834	n/a	GetAnswer	Mixed
274.855	4.0	0.021	321.948	18.0	1	-1.5	-9.0	17.8975	955.0	0.2	Outcome2	-16.53	-1.5	0.0	No	n/a	15.0260475651189	n/a	n/a	n/a	ShowChoice	Mixed
278.87	1.0	0.015	325.963	18.0	1	-1.5	-9.0	17.8975	955.0	0.2	Outcome2	-16.53	-1.5	0.0	No	n/a	15.0260475651189	n/a	n/a	n/a	ShowResult	Mixed
279.886	6.787	0.016	326.979	18.0	1	-1.5	-9.0	17.8975	955.0	0.2	Outcome2	-16.53	-1.5	0.0	No	n/a	15.0260475651189	n/a	n/a	n/a	ISITrial	Mixed
286.701	3.0	0.028	333.794	19.0	1	2.0	2.0	18.1475	955.0	2.8	Certain	-5.98	9.5	0.0	No	4.0	15.4824462061155	1.17	287.871	n/a	GetAnswer	Gain
287.9	4.0	0.029	334.993	19.0	1	2.0	2.0	18.1475	955.0	2.8	Certain	-5.98	9.5	0.0	No	n/a	15.4824462061155	n/a	n/a	n/a	ShowChoice	Gain
291.915	1.0	0.015	339.008	19.0	1	2.0	2.0	18.1475	955.0	2.8	Certain	-5.98	9.5	0.0	No	n/a	15.4824462061155	n/a	n/a	n/a	ShowResult	Gain
292.932	2.0	0.017	340.025	19.0	1	2.0	2.0	18.1475	955.0	2.8	Certain	-5.98	9.5	0.0	No	n/a	15.4824462061155	n/a	n/a	n/a	ISITrial	Gain
294.964	3.0	0.032	342.057	20.0	1	-5.0	-5.0	17.5225	955.0	0.4	Certain	2.9	-13.04	2.92125	Yes	4.0	15.9388448471121	1.712	296.676	n/a	GetAnswer	Mixed
296.697	4.0	0.021	343.79	20.0	1	-5.0	-5.0	17.5225	955.0	0.4	Certain	2.9	-13.04	2.92125	Yes	n/a	15.9388448471121	n/a	n/a	n/a	ShowChoice	Mixed
300.712	1.0	0.015	347.805	20.0	1	-5.0	-5.0	17.5225	955.0	0.4	Certain	2.9	-13.04	2.92125	Yes	n/a	15.9388448471121	n/a	n/a	n/a	ShowResult	Mixed
301.729	8.0	0.017	348.822	20.0	1	-5.0	-5.0	17.5225	955.0	0.4	Certain	2.9	-13.04	2.92125	Yes	n/a	15.9388448471121	n/a	n/a	n/a	ISITrial	Mixed
309.743	2.921	0.014	356.836	20.0	1	-5.0	-5.0	17.5225	955.0	0.4	Certain	2.9	-13.04	2.92125	Yes	n/a	15.9388448471121	n/a	n/a	n/a	TrialHappPreview	Mixed
312.692	4.015	0.028	359.785	20.0	1	-5.0	-5.0	17.5225	955.0	0.4	Certain	2.9	-13.04	2.92125	Yes	n/a	15.9388448471121	n/a	n/a	504.0	TrialHappiness	Mixed
312.692	3.229	n/a	360.377	20.0	1	-5.0	-5.0	17.5225	955.0	0.4	Certain	2.9	-13.04	2.92125	Yes	n/a	15.9388448471121	n/a	n/a	504.0	TrialHappinessSliderResponse	Mixed
316.707	3.685	4.015	363.8	20.0	1	-5.0	-5.0	17.5225	955.0	0.4	Certain	2.9	-13.04	2.92125	Yes	n/a	15.9388448471121	n/a	n/a	n/a	ISIRate	Mixed
320.422	3.0	0.03	367.515	21.0	1	9.47	4.74	18.7063	955.0	4.2	Outcome1	9.47	12.1	0.0	No	2.0	-2.6259909399773504	1.449	321.871	n/a	GetAnswer	Loss
321.888	4.0	0.017	368.981	21.0	1	9.47	4.74	18.7063	955.0	4.2	Outcome1	9.47	12.1	0.0	No	n/a	-2.6259909399773504	n/a	n/a	n/a	ShowChoice	Loss
325.904	1.0	0.016	372.997	21.0	1	9.47	4.74	18.7063	955.0	4.2	Outcome1	9.47	12.1	0.0	No	n/a	-2.6259909399773504	n/a	n/a	n/a	ShowResult	Loss
326.92	3.555	0.016	374.013	21.0	1	9.47	4.74	18.7063	955.0	4.2	Outcome1	9.47	12.1	0.0	No	n/a	-2.6259909399773504	n/a	n/a	n/a	ISITrial	Loss
330.502	3.0	0.027	377.595	22.0	1	0.0	0.0	18.7063	955.0	1.68	Certain	8.5	-9.22	3.2195	Yes	4.0	17.721404303510802	1.421	331.923	n/a	GetAnswer	Gain
331.952	4.0	0.029	379.045	22.0	1	0.0	0.0	18.7063	955.0	1.68	Certain	8.5	-9.22	3.2195	Yes	n/a	17.721404303510802	n/a	n/a	n/a	ShowChoice	Gain
335.967	1.0	0.015	383.06	22.0	1	0.0	0.0	18.7063	955.0	1.68	Certain	8.5	-9.22	3.2195	Yes	n/a	17.721404303510802	n/a	n/a	n/a	ShowResult	Gain
336.983	6.793	0.016	384.076	22.0	1	0.0	0.0	18.7063	955.0	1.68	Certain	8.5	-9.22	3.2195	Yes	n/a	17.721404303510802	n/a	n/a	n/a	ISITrial	Gain
343.797	3.22	0.021	390.89	22.0	1	0.0	0.0	18.7063	955.0	1.68	Certain	8.5	-9.22	3.2195	Yes	n/a	17.721404303510802	n/a	n/a	n/a	TrialHappPreview	Gain
347.046	4.016	0.029	394.139	22.0	1	0.0	0.0	18.7063	955.0	1.68	Certain	8.5	-9.22	3.2195	Yes	n/a	17.721404303510802	n/a	n/a	532.0	TrialHappiness	Gain
347.047	0.133	n/a	395.405	22.0	1	0.0	0.0	18.7063	955.0	1.68	Certain	8.5	-9.22	3.2195	Yes	n/a	17.721404303510802	n/a	n/a	532.0	TrialHappinessSliderResponse	Gain
351.062	4.878	4.016	398.155	22.0	1	0.0	0.0	18.7063	955.0	1.68	Certain	8.5	-9.22	3.2195	Yes	n/a	17.721404303510802	n/a	n/a	n/a	ISIRate	Gain
355.96	3.0	0.02	403.053	23.0	1	3.9	1.95	19.1938	955.0	1.68	Outcome2	6.5	3.9	0.0	No	2.0	-2.5974896187240497	1.417	357.377	n/a	GetAnswer	Gain
357.393	4.0	0.016	404.486	23.0	1	3.9	1.95	19.1938	955.0	1.68	Outcome2	6.5	3.9	0.0	No	n/a	-2.5974896187240497	n/a	n/a	n/a	ShowChoice	Gain
361.408	1.0	0.015	408.501	23.0	1	3.9	1.95	19.1938	955.0	1.68	Outcome2	6.5	3.9	0.0	No	n/a	-2.5974896187240497	n/a	n/a	n/a	ShowResult	Gain
362.424	8.0	0.016	409.517	23.0	1	3.9	1.95	19.1938	955.0	1.68	Outcome2	6.5	3.9	0.0	No	n/a	-2.5974896187240497	n/a	n/a	n/a	ISITrial	Gain
370.455	3.0	0.031	417.548	24.0	1	-8.0	-8.0	18.1938	955.0	0.4	Certain	-17.34	0.9	3.255	Yes	4.0	18.2355605889015	2.958	373.413	n/a	GetAnswer	Mixed
373.437	4.0	0.023	420.53	24.0	1	-8.0	-8.0	18.1938	955.0	0.4	Certain	-17.34	0.9	3.255	Yes	n/a	18.2355605889015	n/a	n/a	n/a	ShowChoice	Mixed
377.452	1.0	0.015	424.545	24.0	1	-8.0	-8.0	18.1938	955.0	0.4	Certain	-17.34	0.9	3.255	Yes	n/a	18.2355605889015	n/a	n/a	n/a	ShowResult	Mixed
378.469	2.0	0.017	425.562	24.0	1	-8.0	-8.0	18.1938	955.0	0.4	Certain	-17.34	0.9	3.255	Yes	n/a	18.2355605889015	n/a	n/a	n/a	ISITrial	Mixed
380.485	3.255	0.016	427.578	24.0	1	-8.0	-8.0	18.1938	955.0	0.4	Certain	-17.34	0.9	3.255	Yes	n/a	18.2355605889015	n/a	n/a	n/a	TrialHappPreview	Mixed
383.767	4.015	0.027	430.86	24.0	1	-8.0	-8.0	18.1938	955.0	0.4	Certain	-17.34	0.9	3.255	Yes	n/a	18.2355605889015	n/a	n/a	512.0	TrialHappiness	Mixed
383.768	0.0	n/a	430.861	24.0	1	-8.0	-8.0	18.1938	955.0	0.4	Certain	-17.34	0.9	3.255	Yes	n/a	18.2355605889015	n/a	n/a	512.0	TrialHappinessSliderResponse	Mixed
387.782	5.02	4.015	434.875	24.0	1	-8.0	-8.0	18.1938	955.0	0.4	Certain	-17.34	0.9	3.255	Yes	n/a	18.2355605889015	n/a	n/a	n/a	ISIRate	Mixed
392.83	3.0	0.028	439.923	25.0	1	-0.5	-10.0	18.1313	955.0	0.82	Outcome2	-19.55	-0.5	0.0	No	n/a	19.054360135900303	n/a	n/a	n/a	GetAnswer	Mixed
395.846	4.0	0.016	442.939	25.0	1	-0.5	-10.0	18.1313	955.0	0.82	Outcome2	-19.55	-0.5	0.0	No	n/a	19.054360135900303	n/a	n/a	n/a	ShowChoice	Mixed
399.861	1.0	0.015	446.954	25.0	1	-0.5	-10.0	18.1313	955.0	0.82	Outcome2	-19.55	-0.5	0.0	No	n/a	19.054360135900303	n/a	n/a	n/a	ShowResult	Mixed
400.878	3.749	0.017	447.971	25.0	1	-0.5	-10.0	18.1313	955.0	0.82	Outcome2	-19.55	-0.5	0.0	No	n/a	19.054360135900303	n/a	n/a	n/a	ISITrial	Mixed
404.66	3.0	0.033	451.753	26.0	1	-5.0	-5.0	17.5063	955.0	1.82	Certain	-14.86	4.7	0.0	No	4.0	19.5560588901472	1.982	406.642	n/a	GetAnswer	Gain
406.659	4.0	0.017	453.752	26.0	1	-5.0	-5.0	17.5063	955.0	1.82	Certain	-14.86	4.7	0.0	No	n/a	19.5560588901472	n/a	n/a	n/a	ShowChoice	Gain
410.674	1.0	0.015	457.767	26.0	1	-5.0	-5.0	17.5063	955.0	1.82	Certain	-14.86	4.7	0.0	No	n/a	19.5560588901472	n/a	n/a	n/a	ShowResult	Gain
411.691	7.834	0.017	458.784	26.0	1	-5.0	-5.0	17.5063	955.0	1.82	Certain	-14.86	4.7	0.0	No	n/a	19.5560588901472	n/a	n/a	n/a	ISITrial	Gain
419.555	3.0	0.03	466.648	27.0	1	1.0	1.0	17.6313	955.0	2.8	Certain	11.5	-8.56	2.54975	Yes	4.0	20.0577576443941	1.896	421.451	n/a	GetAnswer	Loss
421.471	4.0	0.02	468.564	27.0	1	1.0	1.0	17.6313	955.0	2.8	Certain	11.5	-8.56	2.54975	Yes	n/a	20.0577576443941	n/a	n/a	n/a	ShowChoice	Loss
425.486	1.0	0.015	472.579	27.0	1	1.0	1.0	17.6313	955.0	2.8	Certain	11.5	-8.56	2.54975	Yes	n/a	20.0577576443941	n/a	n/a	n/a	ShowResult	Loss
426.502	4.225	0.016	473.595	27.0	1	1.0	1.0	17.6313	955.0	2.8	Certain	11.5	-8.56	2.54975	Yes	n/a	20.0577576443941	n/a	n/a	n/a	ISITrial	Loss
430.751	2.55	0.024	477.844	27.0	1	1.0	1.0	17.6313	955.0	2.8	Certain	11.5	-8.56	2.54975	Yes	n/a	20.0577576443941	n/a	n/a	n/a	TrialHappPreview	Loss
433.333	4.015	0.032	480.426	27.0	1	1.0	1.0	17.6313	955.0	2.8	Certain	11.5	-8.56	2.54975	Yes	n/a	20.0577576443941	n/a	n/a	512.0	TrialHappiness	Loss
433.334	0.0	n/a	480.427	27.0	1	1.0	1.0	17.6313	955.0	2.8	Certain	11.5	-8.56	2.54975	Yes	n/a	20.0577576443941	n/a	n/a	512.0	TrialHappinessSliderResponse	Loss
437.348	2.199	4.015	484.441	27.0	1	1.0	1.0	17.6313	955.0	2.8	Certain	11.5	-8.56	2.54975	Yes	n/a	20.0577576443941	n/a	n/a	n/a	ISIRate	Loss
470.687	1.997	n/a	519.714	n/a	1	n/a	n/a	n/a	n/a	n/a	n/a	n/a	n/a	n/a	n/a	n/a	n/a	n/a	n/a	508.0	BlockStartHappinessSliderResponse	n/a
-47.667	-0.001	0.034	486.674	n/a	2	n/a	n/a	n/a	n/a	n/a	n/a	n/a	n/a	n/a	n/a	{SPACE}	n/a	27.066	-20.601	n/a	Rest	n/a
-20.576	4.0	0.025	513.765	n/a	2	n/a	n/a	n/a	n/a	n/a	n/a	n/a	n/a	n/a	n/a	n/a	n/a	n/a	n/a	n/a	BlockHappyPreview	n/a
-16.561	3.931	0.015	517.78	n/a	2	n/a	n/a	n/a	n/a	n/a	n/a	n/a	n/a	n/a	n/a	n/a	n/a	n/a	n/a	508.0	BlockStartHappiness	n/a
-9.747	-0.001	0.022	524.594	n/a	2	n/a	n/a	n/a	n/a	n/a	n/a	n/a	n/a	n/a	n/a	5.0	n/a	9.727	-0.02	n/a	ScanWait	n/a
0.0	10.0	0.02	534.341	n/a	2	n/a	n/a	n/a	n/a	n/a	n/a	n/a	n/a	n/a	n/a	n/a	n/a	n/a	n/a	n/a	GetReady	n/a
10.03	3.0	0.03	544.371	28.0	2	-2.0	-2.0	17.3813	70.0	1.2	Certain	-5.55	1.9	0.0	No	4.0	-7.44897959183673	1.739	11.769	n/a	GetAnswer	Mixed
11.796	4.0	0.027	546.137	28.0	2	-2.0	-2.0	17.3813	70.0	1.2	Certain	-5.55	1.9	0.0	No	n/a	-7.44897959183673	n/a	n/a	n/a	ShowChoice	Mixed
15.811	1.0	0.015	550.152	28.0	2	-2.0	-2.0	17.3813	70.0	1.2	Certain	-5.55	1.9	0.0	No	n/a	-7.44897959183673	n/a	n/a	n/a	ShowResult	Mixed
16.827	3.575	0.016	551.168	28.0	2	-2.0	-2.0	17.3813	70.0	1.2	Certain	-5.55	1.9	0.0	No	n/a	-7.44897959183673	n/a	n/a	n/a	ISITrial	Mixed
20.426	3.0	0.024	554.767	29.0	2	0.82	0.0	17.4838	70.0	0.66	Outcome1	0.82	-1.0	3.529	Yes	2.0	1.82086167800454	2.11	22.536	n/a	GetAnswer	Mixed
22.559	4.0	0.023	556.9	29.0	2	0.82	0.0	17.4838	70.0	0.66	Outcome1	0.82	-1.0	3.529	Yes	n/a	1.82086167800454	n/a	n/a	n/a	ShowChoice	Mixed
26.574	1.0	0.015	560.915	29.0	2	0.82	0.0	17.4838	70.0	0.66	Outcome1	0.82	-1.0	3.529	Yes	n/a	1.82086167800454	n/a	n/a	n/a	ShowResult	Mixed
27.59	3.955	0.016	561.931	29.0	2	0.82	0.0	17.4838	70.0	0.66	Outcome1	0.82	-1.0	3.529	Yes	n/a	1.82086167800454	n/a	n/a	n/a	ISITrial	Mixed
31.572	3.529	0.027	565.913	29.0	2	0.82	0.0	17.4838	70.0	0.66	Outcome1	0.82	-1.0	3.529	Yes	n/a	1.82086167800454	n/a	n/a	n/a	TrialHappPreview	Mixed
35.121	4.015	0.02	569.462	29.0	2	0.82	0.0	17.4838	70.0	0.66	Outcome1	0.82	-1.0	3.529	Yes	n/a	1.82086167800454	n/a	n/a	532.0	TrialHappiness	Mixed
35.122	0.105	n/a	571.255	29.0	2	0.82	0.0	17.4838	70.0	0.66	Outcome1	0.82	-1.0	3.529	Yes	n/a	1.82086167800454	n/a	n/a	532.0	TrialHappinessSliderResponse	Mixed
39.136	6.116	4.015	573.477	29.0	2	0.82	0.0	17.4838	70.0	0.66	Outcome1	0.82	-1.0	3.529	Yes	n/a	1.82086167800454	n/a	n/a	n/a	ISIRate	Mixed
45.284	3.0	0.032	579.625	30.0	2	-5.15	0.0	16.84	70.0	1.0	Outcome1	-5.15	3.7	0.0	No	2.0	-8.85034013605442	2.209	47.493	n/a	GetAnswer	Mixed
47.517	4.0	0.024	581.858	30.0	2	-5.15	0.0	16.84	70.0	1.0	Outcome1	-5.15	3.7	0.0	No	n/a	-8.85034013605442	n/a	n/a	n/a	ShowChoice	Mixed
51.532	1.0	0.015	585.873	30.0	2	-5.15	0.0	16.84	70.0	1.0	Outcome1	-5.15	3.7	0.0	No	n/a	-8.85034013605442	n/a	n/a	n/a	ShowResult	Mixed
52.548	4.453	0.016	586.889	30.0	2	-5.15	0.0	16.84	70.0	1.0	Outcome1	-5.15	3.7	0.0	No	n/a	-8.85034013605442	n/a	n/a	n/a	ISITrial	Mixed
57.03	3.0	0.029	591.371	31.0	2	2.42	1.0	17.1425	70.0	3.16	Outcome2	0.42	2.42	2.50325	Yes	2.0	2.00340136054422	1.525	58.555	n/a	GetAnswer	Gain
58.58	4.0	0.025	592.921	31.0	2	2.42	1.0	17.1425	70.0	3.16	Outcome2	0.42	2.42	2.50325	Yes	n/a	2.00340136054422	n/a	n/a	n/a	ShowChoice	Gain
62.595	1.0	0.015	596.936	31.0	2	2.42	1.0	17.1425	70.0	3.16	Outcome2	0.42	2.42	2.50325	Yes	n/a	2.00340136054422	n/a	n/a	n/a	ShowResult	Gain
63.611	4.786	0.016	597.952	31.0	2	2.42	1.0	17.1425	70.0	3.16	Outcome2	0.42	2.42	2.50325	Yes	n/a	2.00340136054422	n/a	n/a	n/a	ISITrial	Gain
68.426	2.503	0.029	602.767	31.0	2	2.42	1.0	17.1425	70.0	3.16	Outcome2	0.42	2.42	2.50325	Yes	n/a	2.00340136054422	n/a	n/a	n/a	TrialHappPreview	Gain
70.959	4.032	0.03	605.3	31.0	2	2.42	1.0	17.1425	70.0	3.16	Outcome2	0.42	2.42	2.50325	Yes	n/a	2.00340136054422	n/a	n/a	528.0	TrialHappiness	Gain
70.959	0.19	n/a	606.634	31.0	2	2.42	1.0	17.1425	70.0	3.16	Outcome2	0.42	2.42	2.50325	Yes	n/a	2.00340136054422	n/a	n/a	528.0	TrialHappinessSliderResponse	Gain
74.991	2.013	4.032	609.332	31.0	2	2.42	1.0	17.1425	70.0	3.16	Outcome2	0.42	2.42	2.50325	Yes	n/a	2.00340136054422	n/a	n/a	n/a	ISIRate	Gain
77.023	3.0	0.019	611.364	32.0	2	2.17	1.0	17.4137	70.0	1.82	Outcome2	0.14	2.17	0.0	No	2.0	2.03080120937264	1.243	78.266	n/a	GetAnswer	Gain
78.289	4.0	0.023	612.63	32.0	2	2.17	1.0	17.4137	70.0	1.82	Outcome2	0.14	2.17	0.0	No	n/a	2.03080120937264	n/a	n/a	n/a	ShowChoice	Gain
82.305	1.0	0.016	616.646	32.0	2	2.17	1.0	17.4137	70.0	1.82	Outcome2	0.14	2.17	0.0	No	n/a	2.03080120937264	n/a	n/a	n/a	ShowResult	Gain
83.321	2.0	0.016	617.662	32.0	2	2.17	1.0	17.4137	70.0	1.82	Outcome2	0.14	2.17	0.0	No	n/a	2.03080120937264	n/a	n/a	n/a	ISITrial	Gain
85.354	3.0	0.033	619.695	33.0	2	0.15	0.08	17.4325	70.0	1.68	Outcome1	0.15	10.5	0.0	No	2.0	-10.349206349206302	1.902	87.256	n/a	GetAnswer	Loss
87.286	4.0	0.03	621.627	33.0	2	0.15	0.08	17.4325	70.0	1.68	Outcome1	0.15	10.5	0.0	No	n/a	-10.349206349206302	n/a	n/a	n/a	ShowChoice	Loss
91.302	1.0	0.016	625.643	33.0	2	0.15	0.08	17.4325	70.0	1.68	Outcome1	0.15	10.5	0.0	No	n/a	-10.349206349206302	n/a	n/a	n/a	ShowResult	Loss
92.318	5.099	0.016	626.659	33.0	2	0.15	0.08	17.4325	70.0	1.68	Outcome1	0.15	10.5	0.0	No	n/a	-10.349206349206302	n/a	n/a	n/a	ISITrial	Loss
97.449	3.0	0.032	631.79	34.0	2	1.63	0.82	17.6363	70.0	1.68	Outcome1	1.63	12.5	3.2315	Yes	2.0	-10.8684807256236	1.389	98.838	n/a	GetAnswer	Loss
98.866	4.0	0.028	633.207	34.0	2	1.63	0.82	17.6363	70.0	1.68	Outcome1	1.63	12.5	3.2315	Yes	n/a	-10.8684807256236	n/a	n/a	n/a	ShowChoice	Loss
102.881	1.0	0.015	637.222	34.0	2	1.63	0.82	17.6363	70.0	1.68	Outcome1	1.63	12.5	3.2315	Yes	n/a	-10.8684807256236	n/a	n/a	n/a	ShowResult	Loss
103.897	4.784	0.016	638.238	34.0	2	1.63	0.82	17.6363	70.0	1.68	Outcome1	1.63	12.5	3.2315	Yes	n/a	-10.8684807256236	n/a	n/a	n/a	ISITrial	Loss
108.696	3.232	0.015	643.037	34.0	2	1.63	0.82	17.6363	70.0	1.68	Outcome1	1.63	12.5	3.2315	Yes	n/a	-10.8684807256236	n/a	n/a	n/a	TrialHappPreview	Loss
111.961	4.015	0.033	646.302	34.0	2	1.63	0.82	17.6363	70.0	1.68	Outcome1	1.63	12.5	3.2315	Yes	n/a	-10.8684807256236	n/a	n/a	496.0	TrialHappiness	Loss
111.962	1.903	n/a	647.538	34.0	2	1.63	0.82	17.6363	70.0	1.68	Outcome1	1.63	12.5	3.2315	Yes	n/a	-10.8684807256236	n/a	n/a	496.0	TrialHappinessSliderResponse	Loss
115.976	4.926	4.015	650.317	34.0	2	1.63	0.82	17.6363	70.0	1.68	Outcome1	1.63	12.5	3.2315	Yes	n/a	-10.8684807256236	n/a	n/a	n/a	ISIRate	Loss
120.925	3.0	0.023	655.266	35.0	2	-8.54	-3.0	16.5688	70.0	2.0	Outcome2	2.3	-8.54	0.0	No	2.0	-10.843537414966	2.242	123.167	n/a	GetAnswer	Mixed
123.191	4.0	0.024	657.532	35.0	2	-8.54	-3.0	16.5688	70.0	2.0	Outcome2	2.3	-8.54	0.0	No	n/a	-10.843537414966	n/a	n/a	n/a	ShowChoice	Mixed
127.206	1.0	0.015	661.547	35.0	2	-8.54	-3.0	16.5688	70.0	2.0	Outcome2	2.3	-8.54	0.0	No	n/a	-10.843537414966	n/a	n/a	n/a	ShowResult	Mixed
128.222	2.098	0.016	662.563	35.0	2	-8.54	-3.0	16.5688	70.0	2.0	Outcome2	2.3	-8.54	0.0	No	n/a	-10.843537414966	n/a	n/a	n/a	ISITrial	Mixed
130.355	3.0	0.035	664.696	36.0	2	0.0	0.0	16.5688	70.0	1.68	Certain	-0.95	1.12	3.33575	Yes	4.0	2.07086167800454	1.735	132.09	n/a	GetAnswer	Gain
132.104	4.0	0.013	666.445	36.0	2	0.0	0.0	16.5688	70.0	1.68	Certain	-0.95	1.12	3.33575	Yes	n/a	2.07086167800454	n/a	n/a	n/a	ShowChoice	Gain
136.119	1.0	0.015	670.46	36.0	2	0.0	0.0	16.5688	70.0	1.68	Certain	-0.95	1.12	3.33575	Yes	n/a	2.07086167800454	n/a	n/a	n/a	ShowResult	Gain
137.136	5.156	0.017	671.477	36.0	2	0.0	0.0	16.5688	70.0	1.68	Certain	-0.95	1.12	3.33575	Yes	n/a	2.07086167800454	n/a	n/a	n/a	ISITrial	Gain
142.317	3.336	0.025	676.658	36.0	2	0.0	0.0	16.5688	70.0	1.68	Certain	-0.95	1.12	3.33575	Yes	n/a	2.07086167800454	n/a	n/a	n/a	TrialHappPreview	Gain
145.683	4.015	0.03	680.024	36.0	2	0.0	0.0	16.5688	70.0	1.68	Certain	-0.95	1.12	3.33575	Yes	n/a	2.07086167800454	n/a	n/a	536.0	TrialHappiness	Gain
145.684	0.205	n/a	680.96	36.0	2	0.0	0.0	16.5688	70.0	1.68	Certain	-0.95	1.12	3.33575	Yes	n/a	2.07086167800454	n/a	n/a	536.0	TrialHappinessSliderResponse	Gain
149.698	5.343	4.015	684.039	36.0	2	0.0	0.0	16.5688	70.0	1.68	Certain	-0.95	1.12	3.33575	Yes	n/a	2.07086167800454	n/a	n/a	n/a	ISIRate	Gain
155.063	3.0	0.022	689.404	37.0	2	0.08	-1.0	16.5788	70.0	2.0	Outcome1	0.08	-2.19	0.0	No	2.0	2.27362055933485	2.64	157.703	n/a	GetAnswer	Mixed
157.729	4.0	0.026	692.07	37.0	2	0.08	-1.0	16.5788	70.0	2.0	Outcome1	0.08	-2.19	0.0	No	n/a	2.27362055933485	n/a	n/a	n/a	ShowChoice	Mixed
161.744	1.0	0.015	696.085	37.0	2	0.08	-1.0	16.5788	70.0	2.0	Outcome1	0.08	-2.19	0.0	No	n/a	2.27362055933485	n/a	n/a	n/a	ShowResult	Mixed
162.76	3.598	0.016	697.101	37.0	2	0.08	-1.0	16.5788	70.0	2.0	Outcome1	0.08	-2.19	0.0	No	n/a	2.27362055933485	n/a	n/a	n/a	ISITrial	Mixed
166.392	3.0	0.034	700.733	38.0	2	-1.92	-0.96	16.3388	70.0	2.22	Outcome2	11.1	-1.92	0.0	No	2.0	-13.0181405895692	1.576	167.968	n/a	GetAnswer	Loss
167.992	4.0	0.024	702.333	38.0	2	-1.92	-0.96	16.3388	70.0	2.22	Outcome2	11.1	-1.92	0.0	No	n/a	-13.0181405895692	n/a	n/a	n/a	ShowChoice	Loss
172.007	1.0	0.015	706.348	38.0	2	-1.92	-0.96	16.3388	70.0	2.22	Outcome2	11.1	-1.92	0.0	No	n/a	-13.0181405895692	n/a	n/a	n/a	ShowResult	Loss
173.023	4.787	0.016	707.364	38.0	2	-1.92	-0.96	16.3388	70.0	2.22	Outcome2	11.1	-1.92	0.0	No	n/a	-13.0181405895692	n/a	n/a	n/a	ISITrial	Loss
177.838	3.0	0.028	712.179	39.0	2	1.72	0.0	16.5538	70.0	2.0	Outcome1	1.72	-0.64	2.86425	Yes	2.0	2.36167800453515	1.794	179.632	n/a	GetAnswer	Gain
179.654	4.0	0.022	713.995	39.0	2	1.72	0.0	16.5538	70.0	2.0	Outcome1	1.72	-0.64	2.86425	Yes	n/a	2.36167800453515	n/a	n/a	n/a	ShowChoice	Gain
183.67	1.0	0.016	718.011	39.0	2	1.72	0.0	16.5538	70.0	2.0	Outcome1	1.72	-0.64	2.86425	Yes	n/a	2.36167800453515	n/a	n/a	n/a	ShowResult	Gain
184.686	2.348	0.016	719.027	39.0	2	1.72	0.0	16.5538	70.0	2.0	Outcome1	1.72	-0.64	2.86425	Yes	n/a	2.36167800453515	n/a	n/a	n/a	ISITrial	Gain
187.052	2.864	0.018	721.393	39.0	2	1.72	0.0	16.5538	70.0	2.0	Outcome1	1.72	-0.64	2.86425	Yes	n/a	2.36167800453515	n/a	n/a	n/a	TrialHappPreview	Gain
189.934	4.015	0.018	724.275	39.0	2	1.72	0.0	16.5538	70.0	2.0	Outcome1	1.72	-0.64	2.86425	Yes	n/a	2.36167800453515	n/a	n/a	520.0	TrialHappiness	Gain
189.935	0.164	n/a	724.848	39.0	2	1.72	0.0	16.5538	70.0	2.0	Outcome1	1.72	-0.64	2.86425	Yes	n/a	2.36167800453515	n/a	n/a	520.0	TrialHappinessSliderResponse	Gain
193.949	3.457	4.015	728.29	39.0	2	1.72	0.0	16.5538	70.0	2.0	Outcome1	1.72	-0.64	2.86425	Yes	n/a	2.36167800453515	n/a	n/a	n/a	ISIRate	Gain
197.432	3.0	0.026	731.773	40.0	2	-0.1	-0.05	16.5413	70.0	3.16	Outcome2	13.7	-0.1	0.0	No	2.0	-13.8027210884354	1.458	198.89	n/a	GetAnswer	Loss
198.914	4.0	0.024	733.255	40.0	2	-0.1	-0.05	16.5413	70.0	3.16	Outcome2	13.7	-0.1	0.0	No	n/a	-13.8027210884354	n/a	n/a	n/a	ShowChoice	Loss
202.93	1.0	0.016	737.271	40.0	2	-0.1	-0.05	16.5413	70.0	3.16	Outcome2	13.7	-0.1	0.0	No	n/a	-13.8027210884354	n/a	n/a	n/a	ShowResult	Loss
203.946	3.158	0.016	738.287	40.0	2	-0.1	-0.05	16.5413	70.0	3.16	Outcome2	13.7	-0.1	0.0	No	n/a	-13.8027210884354	n/a	n/a	n/a	ISITrial	Loss
207.128	3.0	0.024	741.469	41.0	2	-0.08	-1.0	16.5313	70.0	1.0	Outcome2	-2.46	-0.08	4.0	Yes	2.0	2.38321995464853	1.693	208.821	n/a	GetAnswer	Mixed
208.844	4.0	0.023	743.185	41.0	2	-0.08	-1.0	16.5313	70.0	1.0	Outcome2	-2.46	-0.08	4.0	Yes	n/a	2.38321995464853	n/a	n/a	n/a	ShowChoice	Mixed
212.86	1.0	0.016	747.201	41.0	2	-0.08	-1.0	16.5313	70.0	1.0	Outcome2	-2.46	-0.08	4.0	Yes	n/a	2.38321995464853	n/a	n/a	n/a	ShowResult	Mixed
213.876	4.506	0.016	748.217	41.0	2	-0.08	-1.0	16.5313	70.0	1.0	Outcome2	-2.46	-0.08	4.0	Yes	n/a	2.38321995464853	n/a	n/a	n/a	ISITrial	Mixed
218.408	4.0	0.026	752.749	41.0	2	-0.08	-1.0	16.5313	70.0	1.0	Outcome2	-2.46	-0.08	4.0	Yes	n/a	2.38321995464853	n/a	n/a	n/a	TrialHappPreview	Mixed
222.44	4.015	0.032	756.781	41.0	2	-0.08	-1.0	16.5313	70.0	1.0	Outcome2	-2.46	-0.08	4.0	Yes	n/a	2.38321995464853	n/a	n/a	532.0	TrialHappiness	Mixed
222.44	1.657	n/a	757.667	41.0	2	-0.08	-1.0	16.5313	70.0	1.0	Outcome2	-2.46	-0.08	4.0	Yes	n/a	2.38321995464853	n/a	n/a	532.0	TrialHappinessSliderResponse	Mixed
226.455	8.0	4.015	760.796	41.0	2	-0.08	-1.0	16.5313	70.0	1.0	Outcome2	-2.46	-0.08	4.0	Yes	n/a	2.38321995464853	n/a	n/a	n/a	ISIRate	Mixed
234.485	3.0	0.03	768.826	42.0	2	-8.0	-8.0	15.5313	70.0	0.52	Certain	-0.9	-15.93	0.0	No	4.0	-15.0272108843537	2.286	236.771	n/a	GetAnswer	Mixed
236.785	4.0	0.014	771.126	42.0	2	-8.0	-8.0	15.5313	70.0	0.52	Certain	-0.9	-15.93	0.0	No	n/a	-15.0272108843537	n/a	n/a	n/a	ShowChoice	Mixed
240.817	1.0	0.032	775.158	42.0	2	-8.0	-8.0	15.5313	70.0	0.52	Certain	-0.9	-15.93	0.0	No	n/a	-15.0272108843537	n/a	n/a	n/a	ShowResult	Mixed
241.833	6.248	0.016	776.174	42.0	2	-8.0	-8.0	15.5313	70.0	0.52	Certain	-0.9	-15.93	0.0	No	n/a	-15.0272108843537	n/a	n/a	n/a	ISITrial	Mixed
248.114	3.0	0.033	782.455	43.0	2	-6.25	1.0	14.7501	70.0	2.48	Outcome2	9.3	-6.25	2.77575	Yes	2.0	-15.551020408163302	1.324	249.438	n/a	GetAnswer	Gain
249.464	4.0	0.025	783.805	43.0	2	-6.25	1.0	14.7501	70.0	2.48	Outcome2	9.3	-6.25	2.77575	Yes	n/a	-15.551020408163302	n/a	n/a	n/a	ShowChoice	Gain
253.496	1.0	0.032	787.837	43.0	2	-6.25	1.0	14.7501	70.0	2.48	Outcome2	9.3	-6.25	2.77575	Yes	n/a	-15.551020408163302	n/a	n/a	n/a	ShowResult	Gain
254.512	4.596	0.016	788.853	43.0	2	-6.25	1.0	14.7501	70.0	2.48	Outcome2	9.3	-6.25	2.77575	Yes	n/a	-15.551020408163302	n/a	n/a	n/a	ISITrial	Gain
259.127	2.776	0.019	793.468	43.0	2	-6.25	1.0	14.7501	70.0	2.48	Outcome2	9.3	-6.25	2.77575	Yes	n/a	-15.551020408163302	n/a	n/a	n/a	TrialHappPreview	Gain
261.926	4.015	0.023	796.267	43.0	2	-6.25	1.0	14.7501	70.0	2.48	Outcome2	9.3	-6.25	2.77575	Yes	n/a	-15.551020408163302	n/a	n/a	512.0	TrialHappiness	Gain
261.927	0.0	n/a	796.268	43.0	2	-6.25	1.0	14.7501	70.0	2.48	Outcome2	9.3	-6.25	2.77575	Yes	n/a	-15.551020408163302	n/a	n/a	512.0	TrialHappinessSliderResponse	Gain
265.941	3.103	4.015	800.282	43.0	2	-6.25	1.0	14.7501	70.0	2.48	Outcome2	9.3	-6.25	2.77575	Yes	n/a	-15.551020408163302	n/a	n/a	n/a	ISIRate	Gain
269.073	3.0	0.029	803.414	44.0	2	-15.23	-7.0	12.8463	70.0	0.2	Outcome2	0.5	-15.23	0.0	No	2.0	-15.734693877551	2.126	271.199	n/a	GetAnswer	Mixed
271.223	4.0	0.024	805.564	44.0	2	-15.23	-7.0	12.8463	70.0	0.2	Outcome2	0.5	-15.23	0.0	No	n/a	-15.734693877551	n/a	n/a	n/a	ShowChoice	Mixed
275.238	1.0	0.015	809.579	44.0	2	-15.23	-7.0	12.8463	70.0	0.2	Outcome2	0.5	-15.23	0.0	No	n/a	-15.734693877551	n/a	n/a	n/a	ShowResult	Mixed
276.254	2.42	0.016	810.595	44.0	2	-15.23	-7.0	12.8463	70.0	0.2	Outcome2	0.5	-15.23	0.0	No	n/a	-15.734693877551	n/a	n/a	n/a	ISITrial	Mixed
278.703	3.0	0.029	813.044	45.0	2	-5.0	-5.0	12.2213	70.0	0.2	Certain	2.5	-13.74	0.0	No	4.0	-16.2358276643991	1.704	280.407	n/a	GetAnswer	Mixed
280.436	4.0	0.029	814.777	45.0	2	-5.0	-5.0	12.2213	70.0	0.2	Certain	2.5	-13.74	0.0	No	n/a	-16.2358276643991	n/a	n/a	n/a	ShowChoice	Mixed
284.451	1.0	0.015	818.792	45.0	2	-5.0	-5.0	12.2213	70.0	0.2	Certain	2.5	-13.74	0.0	No	n/a	-16.2358276643991	n/a	n/a	n/a	ShowResult	Mixed
285.468	3.144	0.017	819.809	45.0	2	-5.0	-5.0	12.2213	70.0	0.2	Certain	2.5	-13.74	0.0	No	n/a	-16.2358276643991	n/a	n/a	n/a	ISITrial	Mixed
288.633	3.0	0.021	822.974	46.0	2	0.0	0.0	12.2213	70.0	0.3	Certain	-1.88	0.68	3.84125	Yes	4.0	2.5640589569161	2.102	290.735	n/a	GetAnswer	Mixed
290.749	4.0	0.014	825.09	46.0	2	0.0	0.0	12.2213	70.0	0.3	Certain	-1.88	0.68	3.84125	Yes	n/a	2.5640589569161	n/a	n/a	n/a	ShowChoice	Mixed
294.765	1.0	0.016	829.106	46.0	2	0.0	0.0	12.2213	70.0	0.3	Certain	-1.88	0.68	3.84125	Yes	n/a	2.5640589569161	n/a	n/a	n/a	ShowResult	Mixed
295.781	2.246	0.016	830.122	46.0	2	0.0	0.0	12.2213	70.0	0.3	Certain	-1.88	0.68	3.84125	Yes	n/a	2.5640589569161	n/a	n/a	n/a	ISITrial	Mixed
298.047	3.841	0.02	832.388	46.0	2	0.0	0.0	12.2213	70.0	0.3	Certain	-1.88	0.68	3.84125	Yes	n/a	2.5640589569161	n/a	n/a	n/a	TrialHappPreview	Mixed
301.912	4.015	0.024	836.253	46.0	2	0.0	0.0	12.2213	70.0	0.3	Certain	-1.88	0.68	3.84125	Yes	n/a	2.5640589569161	n/a	n/a	504.0	TrialHappiness	Mixed
301.913	2.19	n/a	836.47	46.0	2	0.0	0.0	12.2213	70.0	0.3	Certain	-1.88	0.68	3.84125	Yes	n/a	2.5640589569161	n/a	n/a	504.0	TrialHappinessSliderResponse	Mixed
305.927	7.365	4.015	840.268	46.0	2	0.0	0.0	12.2213	70.0	0.3	Certain	-1.88	0.68	3.84125	Yes	n/a	2.5640589569161	n/a	n/a	n/a	ISIRate	Mixed
313.325	3.0	0.033	847.666	47.0	2	-11.2	-2.0	10.8213	70.0	3.6	Outcome1	-11.2	5.9	0.0	No	2.0	-17.1020408163265	2.164	315.489	n/a	GetAnswer	Gain
315.507	4.0	0.018	849.848	47.0	2	-11.2	-2.0	10.8213	70.0	3.6	Outcome1	-11.2	5.9	0.0	No	n/a	-17.1020408163265	n/a	n/a	n/a	ShowChoice	Gain
319.523	1.0	0.016	853.864	47.0	2	-11.2	-2.0	10.8213	70.0	3.6	Outcome1	-11.2	5.9	0.0	No	n/a	-17.1020408163265	n/a	n/a	n/a	ShowResult	Gain
320.539	2.0	0.016	854.88	47.0	2	-11.2	-2.0	10.8213	70.0	3.6	Outcome1	-11.2	5.9	0.0	No	n/a	-17.1020408163265	n/a	n/a	n/a	ISITrial	Gain
322.572	3.0	0.033	856.913	48.0	2	0.0	0.0	10.8213	70.0	0.82	Certain	0.88	-1.73	2.83175	Yes	4.0	2.61432350718065	1.533	324.105	n/a	GetAnswer	Mixed
324.138	4.0	0.033	858.479	48.0	2	0.0	0.0	10.8213	70.0	0.82	Certain	0.88	-1.73	2.83175	Yes	n/a	2.61432350718065	n/a	n/a	n/a	ShowChoice	Mixed
328.153	1.0	0.015	862.494	48.0	2	0.0	0.0	10.8213	70.0	0.82	Certain	0.88	-1.73	2.83175	Yes	n/a	2.61432350718065	n/a	n/a	n/a	ShowResult	Mixed
329.169	3.692	0.016	863.51	48.0	2	0.0	0.0	10.8213	70.0	0.82	Certain	0.88	-1.73	2.83175	Yes	n/a	2.61432350718065	n/a	n/a	n/a	ISITrial	Mixed
332.885	2.832	0.024	867.226	48.0	2	0.0	0.0	10.8213	70.0	0.82	Certain	0.88	-1.73	2.83175	Yes	n/a	2.61432350718065	n/a	n/a	n/a	TrialHappPreview	Mixed
335.75	4.016	0.033	870.091	48.0	2	0.0	0.0	10.8213	70.0	0.82	Certain	0.88	-1.73	2.83175	Yes	n/a	2.61432350718065	n/a	n/a	508.0	TrialHappiness	Mixed
335.751	0.999	n/a	870.851	48.0	2	0.0	0.0	10.8213	70.0	0.82	Certain	0.88	-1.73	2.83175	Yes	n/a	2.61432350718065	n/a	n/a	508.0	TrialHappinessSliderResponse	Mixed
339.766	3.327	4.016	874.107	48.0	2	0.0	0.0	10.8213	70.0	0.82	Certain	0.88	-1.73	2.83175	Yes	n/a	2.61432350718065	n/a	n/a	n/a	ISIRate	Mixed
343.115	3.0	0.022	877.456	49.0	2	-5.05	-2.52	10.1901	70.0	2.22	Outcome2	13.1	-5.05	0.0	No	2.0	-18.154195011337897	1.481	344.596	n/a	GetAnswer	Loss
344.614	4.0	0.018	878.955	49.0	2	-5.05	-2.52	10.1901	70.0	2.22	Outcome2	13.1	-5.05	0.0	No	n/a	-18.154195011337897	n/a	n/a	n/a	ShowChoice	Loss
348.629	1.0	0.015	882.97	49.0	2	-5.05	-2.52	10.1901	70.0	2.22	Outcome2	13.1	-5.05	0.0	No	n/a	-18.154195011337897	n/a	n/a	n/a	ShowResult	Loss
349.646	8.0	0.017	883.987	49.0	2	-5.05	-2.52	10.1901	70.0	2.22	Outcome2	13.1	-5.05	0.0	No	n/a	-18.154195011337897	n/a	n/a	n/a	ISITrial	Loss
357.676	3.0	0.03	892.017	50.0	2	-5.95	-2.98	9.4463	70.0	1.82	Outcome1	-5.95	12.7	3.54725	Yes	2.0	-18.6507936507937	1.601	359.277	n/a	GetAnswer	Loss
359.309	4.0	0.032	893.65	50.0	2	-5.95	-2.98	9.4463	70.0	1.82	Outcome1	-5.95	12.7	3.54725	Yes	n/a	-18.6507936507937	n/a	n/a	n/a	ShowChoice	Loss
363.324	1.0	0.015	897.665	50.0	2	-5.95	-2.98	9.4463	70.0	1.82	Outcome1	-5.95	12.7	3.54725	Yes	n/a	-18.6507936507937	n/a	n/a	n/a	ShowResult	Loss
364.341	7.537	0.017	898.682	50.0	2	-5.95	-2.98	9.4463	70.0	1.82	Outcome1	-5.95	12.7	3.54725	Yes	n/a	-18.6507936507937	n/a	n/a	n/a	ISITrial	Loss
371.905	3.547	0.027	906.246	50.0	2	-5.95	-2.98	9.4463	70.0	1.82	Outcome1	-5.95	12.7	3.54725	Yes	n/a	-18.6507936507937	n/a	n/a	n/a	TrialHappPreview	Loss
375.47	4.015	0.018	909.811	50.0	2	-5.95	-2.98	9.4463	70.0	1.82	Outcome1	-5.95	12.7	3.54725	Yes	n/a	-18.6507936507937	n/a	n/a	512.0	TrialHappiness	Loss
375.471	0.0	n/a	909.812	50.0	2	-5.95	-2.98	9.4463	70.0	1.82	Outcome1	-5.95	12.7	3.54725	Yes	n/a	-18.6507936507937	n/a	n/a	512.0	TrialHappinessSliderResponse	Loss
379.485	6.189	4.015	913.826	50.0	2	-5.95	-2.98	9.4463	70.0	1.82	Outcome1	-5.95	12.7	3.54725	Yes	n/a	-18.6507936507937	n/a	n/a	n/a	ISIRate	Loss
385.7	3.0	0.026	920.041	51.0	2	1.52	0.0	9.6363	70.0	4.2	Outcome2	-1.25	1.52	0.0	No	2.0	2.7705971277399906	1.645	387.345	n/a	GetAnswer	Gain
387.366	4.0	0.021	921.707	51.0	2	1.52	0.0	9.6363	70.0	4.2	Outcome2	-1.25	1.52	0.0	No	n/a	2.7705971277399906	n/a	n/a	n/a	ShowChoice	Gain
391.381	1.0	0.015	925.722	51.0	2	1.52	0.0	9.6363	70.0	4.2	Outcome2	-1.25	1.52	0.0	No	n/a	2.7705971277399906	n/a	n/a	n/a	ShowResult	Gain
392.397	5.508	0.016	926.738	51.0	2	1.52	0.0	9.6363	70.0	4.2	Outcome2	-1.25	1.52	0.0	No	n/a	2.7705971277399906	n/a	n/a	n/a	ISITrial	Gain
397.929	3.0	0.024	932.27	52.0	2	-7.42	2.0	8.7088	70.0	5.0	Outcome1	-7.42	12.3	0.0	No	2.0	-19.7165532879819	1.959	399.888	n/a	GetAnswer	Loss
399.912	4.0	0.024	934.253	52.0	2	-7.42	2.0	8.7088	70.0	5.0	Outcome1	-7.42	12.3	0.0	No	n/a	-19.7165532879819	n/a	n/a	n/a	ShowChoice	Loss
403.927	1.0	0.015	938.268	52.0	2	-7.42	2.0	8.7088	70.0	5.0	Outcome1	-7.42	12.3	0.0	No	n/a	-19.7165532879819	n/a	n/a	n/a	ShowResult	Loss
404.943	5.913	0.016	939.284	52.0	2	-7.42	2.0	8.7088	70.0	5.0	Outcome1	-7.42	12.3	0.0	No	n/a	-19.7165532879819	n/a	n/a	n/a	ISITrial	Loss
410.874	3.0	0.018	945.215	53.0	2	-9.0	-9.0	7.5838	70.0	0.3	Certain	-19.52	0.7	2.99675	Yes	4.0	-20.217687074829897	2.022	412.896	n/a	GetAnswer	Mixed
412.924	4.0	0.028	947.265	53.0	2	-9.0	-9.0	7.5838	70.0	0.3	Certain	-19.52	0.7	2.99675	Yes	n/a	-20.217687074829897	n/a	n/a	n/a	ShowChoice	Mixed
416.939	1.0	0.015	951.28	53.0	2	-9.0	-9.0	7.5838	70.0	0.3	Certain	-19.52	0.7	2.99675	Yes	n/a	-20.217687074829897	n/a	n/a	n/a	ShowResult	Mixed
417.955	3.66	0.016	952.296	53.0	2	-9.0	-9.0	7.5838	70.0	0.3	Certain	-19.52	0.7	2.99675	Yes	n/a	-20.217687074829897	n/a	n/a	n/a	ISITrial	Mixed
421.637	2.997	0.022	955.978	53.0	2	-9.0	-9.0	7.5838	70.0	0.3	Certain	-19.52	0.7	2.99675	Yes	n/a	-20.217687074829897	n/a	n/a	n/a	TrialHappPreview	Mixed
424.653	4.015	0.019	958.994	53.0	2	-9.0	-9.0	7.5838	70.0	0.3	Certain	-19.52	0.7	2.99675	Yes	n/a	-20.217687074829897	n/a	n/a	492.0	TrialHappiness	Mixed
424.654	2.211	n/a	960.38	53.0	2	-9.0	-9.0	7.5838	70.0	0.3	Certain	-19.52	0.7	2.99675	Yes	n/a	-20.217687074829897	n/a	n/a	492.0	TrialHappinessSliderResponse	Mixed
428.668	3.987	4.015	963.009	53.0	2	-9.0	-9.0	7.5838	70.0	0.3	Certain	-19.52	0.7	2.99675	Yes	n/a	-20.217687074829897	n/a	n/a	n/a	ISIRate	Mixed
432.684	3.0	0.029	967.025	54.0	2	-2.0	-2.0	7.3338	70.0	5.0	Certain	-12.08	8.3	0.0	No	4.0	-20.3786848072562	1.441	434.125	n/a	GetAnswer	Gain
434.15	4.0	0.025	968.491	54.0	2	-2.0	-2.0	7.3338	70.0	5.0	Certain	-12.08	8.3	0.0	No	n/a	-20.3786848072562	n/a	n/a	n/a	ShowChoice	Gain
438.182	1.0	0.032	972.523	54.0	2	-2.0	-2.0	7.3338	70.0	5.0	Certain	-12.08	8.3	0.0	No	n/a	-20.3786848072562	n/a	n/a	n/a	ShowResult	Gain
439.198	8.0	0.016	973.539	54.0	2	-2.0	-2.0	7.3338	70.0	5.0	Certain	-12.08	8.3	0.0	No	n/a	-20.3786848072562	n/a	n/a	n/a	ISITrial	Gain
459.675	2.897	n/a	994.881	n/a	2	n/a	n/a	n/a	n/a	n/a	n/a	n/a	n/a	n/a	n/a	n/a	n/a	n/a	n/a	512.0	BlockStartHappinessSliderResponse	n/a
-55.547	-0.001	0.031	981.57	n/a	3	n/a	n/a	n/a	n/a	n/a	n/a	n/a	n/a	n/a	n/a	4	n/a	8.414	-47.133	n/a	Rest	n/a
-47.117	4.0	0.016	990.0	n/a	3	n/a	n/a	n/a	n/a	n/a	n/a	n/a	n/a	n/a	n/a	n/a	n/a	n/a	n/a	n/a	BlockHappyPreview	n/a
-43.102	3.762	0.015	994.015	n/a	3	n/a	n/a	n/a	n/a	n/a	n/a	n/a	n/a	n/a	n/a	n/a	n/a	n/a	n/a	512.0	BlockStartHappiness	n/a
-2.349	-0.001	0.029	1034.768	n/a	3	n/a	n/a	n/a	n/a	n/a	n/a	n/a	n/a	n/a	n/a	5.0	n/a	2.326	-0.023	n/a	ScanWait	n/a
0.0	10.0	0.023	1037.117	n/a	3	n/a	n/a	n/a	n/a	n/a	n/a	n/a	n/a	n/a	n/a	n/a	n/a	n/a	n/a	n/a	GetReady	n/a
10.03	3.0	0.03	1047.147	55.0	3	7.9	0.18	8.3213	955.0	3.6	Outcome2	0.37	7.9	2.53325	Yes	2.0	7.52548131370328	1.465	11.495	n/a	GetAnswer	Gain
11.513	4.0	0.018	1048.63	55.0	3	7.9	0.18	8.3213	955.0	3.6	Outcome2	0.37	7.9	2.53325	Yes	n/a	7.52548131370328	n/a	n/a	n/a	ShowChoice	Gain
15.528	1.0	0.015	1052.645	55.0	3	7.9	0.18	8.3213	955.0	3.6	Outcome2	0.37	7.9	2.53325	Yes	n/a	7.52548131370328	n/a	n/a	n/a	ShowResult	Gain
16.544	7.709	0.016	1053.661	55.0	3	7.9	0.18	8.3213	955.0	3.6	Outcome2	0.37	7.9	2.53325	Yes	n/a	7.52548131370328	n/a	n/a	n/a	ISITrial	Gain
24.275	2.533	0.022	1061.392	55.0	3	7.9	0.18	8.3213	955.0	3.6	Outcome2	0.37	7.9	2.53325	Yes	n/a	7.52548131370328	n/a	n/a	n/a	TrialHappPreview	Gain
26.841	4.015	0.033	1063.958	55.0	3	7.9	0.18	8.3213	955.0	3.6	Outcome2	0.37	7.9	2.53325	Yes	n/a	7.52548131370328	n/a	n/a	512.0	TrialHappiness	Gain
26.841	0.0	n/a	1063.958	55.0	3	7.9	0.18	8.3213	955.0	3.6	Outcome2	0.37	7.9	2.53325	Yes	n/a	7.52548131370328	n/a	n/a	512.0	TrialHappinessSliderResponse	Gain
30.856	2.133	4.015	1067.973	55.0	3	7.9	0.18	8.3213	955.0	3.6	Outcome2	0.37	7.9	2.53325	Yes	n/a	7.52548131370328	n/a	n/a	n/a	ISIRate	Gain
33.022	3.0	0.033	1070.139	56.0	3	3.26	1.63	8.7288	955.0	2.22	Outcome1	3.26	5.1	0.0	No	2.0	-1.83956209890525	1.543	34.565	n/a	GetAnswer	Gain
34.588	4.0	0.023	1071.705	56.0	3	3.26	1.63	8.7288	955.0	2.22	Outcome1	3.26	5.1	0.0	No	n/a	-1.83956209890525	n/a	n/a	n/a	ShowChoice	Gain
38.603	1.0	0.015	1075.72	56.0	3	3.26	1.63	8.7288	955.0	2.22	Outcome1	3.26	5.1	0.0	No	n/a	-1.83956209890525	n/a	n/a	n/a	ShowResult	Gain
39.62	4.697	0.017	1076.737	56.0	3	3.26	1.63	8.7288	955.0	2.22	Outcome1	3.26	5.1	0.0	No	n/a	-1.83956209890525	n/a	n/a	n/a	ISITrial	Gain
44.351	3.0	0.034	1081.468	57.0	3	12.9	2.18	10.3413	955.0	2.0	Outcome2	4.37	12.9	0.0	No	2.0	8.52887882219705	1.035	45.386	n/a	GetAnswer	Loss
45.401	4.0	0.015	1082.518	57.0	3	12.9	2.18	10.3413	955.0	2.0	Outcome2	4.37	12.9	0.0	No	n/a	8.52887882219705	n/a	n/a	n/a	ShowChoice	Loss
49.416	1.0	0.015	1086.533	57.0	3	12.9	2.18	10.3413	955.0	2.0	Outcome2	4.37	12.9	0.0	No	n/a	8.52887882219705	n/a	n/a	n/a	ShowResult	Loss
50.433	4.291	0.017	1087.55	57.0	3	12.9	2.18	10.3413	955.0	2.0	Outcome2	4.37	12.9	0.0	No	n/a	8.52887882219705	n/a	n/a	n/a	ISITrial	Loss
54.748	3.0	0.024	1091.865	58.0	3	-4.0	-4.0	9.8413	955.0	1.5	Certain	0.1	-8.93	3.04575	Yes	4.0	9.03057757644394	2.247	56.995	n/a	GetAnswer	Mixed
57.014	4.0	0.019	1094.131	58.0	3	-4.0	-4.0	9.8413	955.0	1.5	Certain	0.1	-8.93	3.04575	Yes	n/a	9.03057757644394	n/a	n/a	n/a	ShowChoice	Mixed
61.029	1.0	0.015	1098.146	58.0	3	-4.0	-4.0	9.8413	955.0	1.5	Certain	0.1	-8.93	3.04575	Yes	n/a	9.03057757644394	n/a	n/a	n/a	ShowResult	Mixed
62.045	2.037	0.016	1099.162	58.0	3	-4.0	-4.0	9.8413	955.0	1.5	Certain	0.1	-8.93	3.04575	Yes	n/a	9.03057757644394	n/a	n/a	n/a	ISITrial	Mixed
64.111	3.046	0.029	1101.228	58.0	3	-4.0	-4.0	9.8413	955.0	1.5	Certain	0.1	-8.93	3.04575	Yes	n/a	9.03057757644394	n/a	n/a	n/a	TrialHappPreview	Mixed
67.177	4.015	0.02	1104.294	58.0	3	-4.0	-4.0	9.8413	955.0	1.5	Certain	0.1	-8.93	3.04575	Yes	n/a	9.03057757644394	n/a	n/a	488.0	TrialHappiness	Mixed
67.177	1.04	n/a	1105.242	58.0	3	-4.0	-4.0	9.8413	955.0	1.5	Certain	0.1	-8.93	3.04575	Yes	n/a	9.03057757644394	n/a	n/a	488.0	TrialHappinessSliderResponse	Mixed
71.192	4.183	4.015	1108.309	58.0	3	-4.0	-4.0	9.8413	955.0	1.5	Certain	0.1	-8.93	3.04575	Yes	n/a	9.03057757644394	n/a	n/a	n/a	ISIRate	Mixed
75.407	3.0	0.032	1112.524	59.0	3	10.9	0.48	11.2038	955.0	2.0	Outcome2	0.96	10.9	0.0	No	2.0	9.93997734994337	1.776	77.183	n/a	GetAnswer	Loss
77.207	4.0	0.024	1114.324	59.0	3	10.9	0.48	11.2038	955.0	2.0	Outcome2	0.96	10.9	0.0	No	n/a	9.93997734994337	n/a	n/a	n/a	ShowChoice	Loss
81.239	1.0	0.032	1118.356	59.0	3	10.9	0.48	11.2038	955.0	2.0	Outcome2	0.96	10.9	0.0	No	n/a	9.93997734994337	n/a	n/a	n/a	ShowResult	Loss
82.255	5.064	0.016	1119.372	59.0	3	10.9	0.48	11.2038	955.0	2.0	Outcome2	0.96	10.9	0.0	No	n/a	9.93997734994337	n/a	n/a	n/a	ISITrial	Loss
87.353	3.0	0.034	1124.47	60.0	3	13.5	1.52	12.8913	955.0	2.8	Outcome1	13.5	3.03	3.5625	Yes	2.0	10.4688561721404	1.688	89.041	n/a	GetAnswer	Loss
89.069	4.0	0.028	1126.186	60.0	3	13.5	1.52	12.8913	955.0	2.8	Outcome1	13.5	3.03	3.5625	Yes	n/a	10.4688561721404	n/a	n/a	n/a	ShowChoice	Loss
93.084	1.0	0.015	1130.201	60.0	3	13.5	1.52	12.8913	955.0	2.8	Outcome1	13.5	3.03	3.5625	Yes	n/a	10.4688561721404	n/a	n/a	n/a	ShowResult	Loss
94.101	8.0	0.017	1131.218	60.0	3	13.5	1.52	12.8913	955.0	2.8	Outcome1	13.5	3.03	3.5625	Yes	n/a	10.4688561721404	n/a	n/a	n/a	ISITrial	Loss
102.131	3.562	0.03	1139.248	60.0	3	13.5	1.52	12.8913	955.0	2.8	Outcome1	13.5	3.03	3.5625	Yes	n/a	10.4688561721404	n/a	n/a	n/a	TrialHappPreview	Loss
105.713	4.016	0.02	1142.83	60.0	3	13.5	1.52	12.8913	955.0	2.8	Outcome1	13.5	3.03	3.5625	Yes	n/a	10.4688561721404	n/a	n/a	512.0	TrialHappiness	Loss
105.714	0.0	n/a	1142.831	60.0	3	13.5	1.52	12.8913	955.0	2.8	Outcome1	13.5	3.03	3.5625	Yes	n/a	10.4688561721404	n/a	n/a	512.0	TrialHappinessSliderResponse	Loss
109.729	6.25	4.016	1146.846	60.0	3	13.5	1.52	12.8913	955.0	2.8	Outcome1	13.5	3.03	3.5625	Yes	n/a	10.4688561721404	n/a	n/a	n/a	ISIRate	Loss
116.01	3.0	0.031	1153.127	61.0	3	2.0	2.0	13.1413	955.0	2.22	Certain	-3.49	7.1	0.0	No	4.0	10.590033975084902	1.69	117.7	n/a	GetAnswer	Gain
117.726	4.0	0.026	1154.843	61.0	3	2.0	2.0	13.1413	955.0	2.22	Certain	-3.49	7.1	0.0	No	n/a	10.590033975084902	n/a	n/a	n/a	ShowChoice	Gain
121.741	1.0	0.015	1158.858	61.0	3	2.0	2.0	13.1413	955.0	2.22	Certain	-3.49	7.1	0.0	No	n/a	10.590033975084902	n/a	n/a	n/a	ShowResult	Gain
122.758	4.586	0.017	1159.875	61.0	3	2.0	2.0	13.1413	955.0	2.22	Certain	-3.49	7.1	0.0	No	n/a	10.590033975084902	n/a	n/a	n/a	ISITrial	Gain
127.373	3.0	0.029	1164.49	62.0	3	-6.0	-6.0	12.3913	955.0	0.4	Certain	-12.19	-1.1	3.74875	Yes	4.0	11.0917327293318	2.24	129.613	n/a	GetAnswer	Mixed
129.638	4.0	0.025	1166.755	62.0	3	-6.0	-6.0	12.3913	955.0	0.4	Certain	-12.19	-1.1	3.74875	Yes	n/a	11.0917327293318	n/a	n/a	n/a	ShowChoice	Mixed
133.654	1.0	0.016	1170.771	62.0	3	-6.0	-6.0	12.3913	955.0	0.4	Certain	-12.19	-1.1	3.74875	Yes	n/a	11.0917327293318	n/a	n/a	n/a	ShowResult	Mixed
134.67	5.212	0.016	1171.787	62.0	3	-6.0	-6.0	12.3913	955.0	0.4	Certain	-12.19	-1.1	3.74875	Yes	n/a	11.0917327293318	n/a	n/a	n/a	ISITrial	Mixed
139.902	3.749	0.02	1177.019	62.0	3	-6.0	-6.0	12.3913	955.0	0.4	Certain	-12.19	-1.1	3.74875	Yes	n/a	11.0917327293318	n/a	n/a	n/a	TrialHappPreview	Mixed
143.684	4.015	0.033	1180.801	62.0	3	-6.0	-6.0	12.3913	955.0	0.4	Certain	-12.19	-1.1	3.74875	Yes	n/a	11.0917327293318	n/a	n/a	532.0	TrialHappiness	Mixed
143.684	0.148	n/a	1181.744	62.0	3	-6.0	-6.0	12.3913	955.0	0.4	Certain	-12.19	-1.1	3.74875	Yes	n/a	11.0917327293318	n/a	n/a	532.0	TrialHappinessSliderResponse	Mixed
147.699	6.995	4.015	1184.816	62.0	3	-6.0	-6.0	12.3913	955.0	0.4	Certain	-12.19	-1.1	3.74875	Yes	n/a	11.0917327293318	n/a	n/a	n/a	ISIRate	Mixed
154.713	3.0	0.019	1191.83	63.0	3	-3.0	-3.0	12.0163	955.0	1.5	Certain	2.1	-9.15	0.0	No	4.0	11.2536806342016	2.036	156.749	n/a	GetAnswer	Mixed
156.762	4.0	0.013	1193.879	63.0	3	-3.0	-3.0	12.0163	955.0	1.5	Certain	2.1	-9.15	0.0	No	n/a	11.2536806342016	n/a	n/a	n/a	ShowChoice	Mixed
160.778	1.0	0.016	1197.895	63.0	3	-3.0	-3.0	12.0163	955.0	1.5	Certain	2.1	-9.15	0.0	No	n/a	11.2536806342016	n/a	n/a	n/a	ShowResult	Mixed
161.794	5.595	0.016	1198.911	63.0	3	-3.0	-3.0	12.0163	955.0	1.5	Certain	2.1	-9.15	0.0	No	n/a	11.2536806342016	n/a	n/a	n/a	ISITrial	Mixed
167.409	3.0	0.02	1204.526	64.0	3	3.2	1.6	12.4163	955.0	2.48	Outcome1	3.2	5.3	0.0	No	2.0	-2.09550773876935	1.144	168.553	n/a	GetAnswer	Gain
168.575	4.0	0.022	1205.692	64.0	3	3.2	1.6	12.4163	955.0	2.48	Outcome1	3.2	5.3	0.0	No	n/a	-2.09550773876935	n/a	n/a	n/a	ShowChoice	Gain
172.59	1.0	0.015	1209.707	64.0	3	3.2	1.6	12.4163	955.0	2.48	Outcome1	3.2	5.3	0.0	No	n/a	-2.09550773876935	n/a	n/a	n/a	ShowResult	Gain
173.607	5.47	0.017	1210.724	64.0	3	3.2	1.6	12.4163	955.0	2.48	Outcome1	3.2	5.3	0.0	No	n/a	-2.09550773876935	n/a	n/a	n/a	ISITrial	Gain
179.105	3.0	0.028	1216.222	65.0	3	-5.0	-5.0	11.7913	955.0	0.66	Certain	-10.91	1.3	2.99675	Yes	4.0	12.2117780294451	1.454	180.559	n/a	GetAnswer	Mixed
180.588	4.0	0.029	1217.705	65.0	3	-5.0	-5.0	11.7913	955.0	0.66	Certain	-10.91	1.3	2.99675	Yes	n/a	12.2117780294451	n/a	n/a	n/a	ShowChoice	Mixed
184.603	1.0	0.015	1221.72	65.0	3	-5.0	-5.0	11.7913	955.0	0.66	Certain	-10.91	1.3	2.99675	Yes	n/a	12.2117780294451	n/a	n/a	n/a	ShowResult	Mixed
185.619	3.344	0.016	1222.736	65.0	3	-5.0	-5.0	11.7913	955.0	0.66	Certain	-10.91	1.3	2.99675	Yes	n/a	12.2117780294451	n/a	n/a	n/a	ISITrial	Mixed
188.985	2.997	0.022	1226.102	65.0	3	-5.0	-5.0	11.7913	955.0	0.66	Certain	-10.91	1.3	2.99675	Yes	n/a	12.2117780294451	n/a	n/a	n/a	TrialHappPreview	Mixed
192.0	4.016	0.018	1229.117	65.0	3	-5.0	-5.0	11.7913	955.0	0.66	Certain	-10.91	1.3	2.99675	Yes	n/a	12.2117780294451	n/a	n/a	512.0	TrialHappiness	Mixed
192.001	0.0	n/a	1229.118	65.0	3	-5.0	-5.0	11.7913	955.0	0.66	Certain	-10.91	1.3	2.99675	Yes	n/a	12.2117780294451	n/a	n/a	512.0	TrialHappinessSliderResponse	Mixed
196.016	3.987	4.016	1233.133	65.0	3	-5.0	-5.0	11.7913	955.0	0.66	Certain	-10.91	1.3	2.99675	Yes	n/a	12.2117780294451	n/a	n/a	n/a	ISIRate	Mixed
200.031	3.0	0.028	1237.148	66.0	3	-5.0	-5.0	11.1663	955.0	0.52	Certain	1.1	-11.93	0.0	No	4.0	13.030577576443902	1.589	201.62	n/a	GetAnswer	Mixed
201.647	4.0	0.027	1238.764	66.0	3	-5.0	-5.0	11.1663	955.0	0.52	Certain	1.1	-11.93	0.0	No	n/a	13.030577576443902	n/a	n/a	n/a	ShowChoice	Mixed
205.662	1.0	0.015	1242.779	66.0	3	-5.0	-5.0	11.1663	955.0	0.52	Certain	1.1	-11.93	0.0	No	n/a	13.030577576443902	n/a	n/a	n/a	ShowResult	Mixed
206.679	3.959	0.017	1243.796	66.0	3	-5.0	-5.0	11.1663	955.0	0.52	Certain	1.1	-11.93	0.0	No	n/a	13.030577576443902	n/a	n/a	n/a	ISITrial	Mixed
210.66	3.0	0.022	1247.777	67.0	3	11.7	-0.92	12.6288	955.0	3.16	Outcome2	-1.83	11.7	2.9185	Yes	2.0	13.5322763306908	1.726	212.386	n/a	GetAnswer	Loss
212.41	4.0	0.024	1249.527	67.0	3	11.7	-0.92	12.6288	955.0	3.16	Outcome2	-1.83	11.7	2.9185	Yes	n/a	13.5322763306908	n/a	n/a	n/a	ShowChoice	Loss
216.425	1.0	0.015	1253.542	67.0	3	11.7	-0.92	12.6288	955.0	3.16	Outcome2	-1.83	11.7	2.9185	Yes	n/a	13.5322763306908	n/a	n/a	n/a	ShowResult	Loss
217.441	4.199	0.016	1254.558	67.0	3	11.7	-0.92	12.6288	955.0	3.16	Outcome2	-1.83	11.7	2.9185	Yes	n/a	13.5322763306908	n/a	n/a	n/a	ISITrial	Loss
221.657	2.918	0.017	1258.774	67.0	3	11.7	-0.92	12.6288	955.0	3.16	Outcome2	-1.83	11.7	2.9185	Yes	n/a	13.5322763306908	n/a	n/a	n/a	TrialHappPreview	Loss
224.606	4.015	0.031	1261.723	67.0	3	11.7	-0.92	12.6288	955.0	3.16	Outcome2	-1.83	11.7	2.9185	Yes	n/a	13.5322763306908	n/a	n/a	552.0	TrialHappiness	Loss
224.606	1.452	n/a	1262.223	67.0	3	11.7	-0.92	12.6288	955.0	3.16	Outcome2	-1.83	11.7	2.9185	Yes	n/a	13.5322763306908	n/a	n/a	552.0	TrialHappinessSliderResponse	Loss
228.621	3.674	4.015	1265.738	67.0	3	11.7	-0.92	12.6288	955.0	3.16	Outcome2	-1.83	11.7	2.9185	Yes	n/a	13.5322763306908	n/a	n/a	n/a	ISIRate	Loss
232.32	3.0	0.025	1269.437	68.0	3	3.32	1.66	13.0438	955.0	2.8	Outcome1	3.32	5.5	0.0	No	2.0	-2.17780294450736	1.279	233.599	n/a	GetAnswer	Gain
233.619	4.0	0.02	1270.736	68.0	3	3.32	1.66	13.0438	955.0	2.8	Outcome1	3.32	5.5	0.0	No	n/a	-2.17780294450736	n/a	n/a	n/a	ShowChoice	Gain
237.635	1.0	0.016	1274.752	68.0	3	3.32	1.66	13.0438	955.0	2.8	Outcome1	3.32	5.5	0.0	No	n/a	-2.17780294450736	n/a	n/a	n/a	ShowResult	Gain
238.651	2.185	0.016	1275.768	68.0	3	3.32	1.66	13.0438	955.0	2.8	Outcome1	3.32	5.5	0.0	No	n/a	-2.17780294450736	n/a	n/a	n/a	ISITrial	Gain
240.867	3.0	0.031	1277.984	69.0	3	4.9	-2.0	13.6563	955.0	2.0	Outcome1	4.9	-8.91	0.0	No	2.0	13.8108720271801	2.388	243.255	n/a	GetAnswer	Gain
243.283	4.0	0.028	1280.4	69.0	3	4.9	-2.0	13.6563	955.0	2.0	Outcome1	4.9	-8.91	0.0	No	n/a	13.8108720271801	n/a	n/a	n/a	ShowChoice	Gain
247.298	1.0	0.015	1284.415	69.0	3	4.9	-2.0	13.6563	955.0	2.0	Outcome1	4.9	-8.91	0.0	No	n/a	13.8108720271801	n/a	n/a	n/a	ShowResult	Gain
248.314	2.0	0.016	1285.431	69.0	3	4.9	-2.0	13.6563	955.0	2.0	Outcome1	4.9	-8.91	0.0	No	n/a	13.8108720271801	n/a	n/a	n/a	ISITrial	Gain
250.347	3.0	0.033	1287.464	70.0	3	6.7	0.0	14.4938	955.0	1.82	Outcome1	6.7	-7.57	3.65125	Yes	2.0	14.267270668176698	2.056	252.403	n/a	GetAnswer	Gain
252.429	4.0	0.026	1289.546	70.0	3	6.7	0.0	14.4938	955.0	1.82	Outcome1	6.7	-7.57	3.65125	Yes	n/a	14.267270668176698	n/a	n/a	n/a	ShowChoice	Gain
256.445	1.0	0.016	1293.562	70.0	3	6.7	0.0	14.4938	955.0	1.82	Outcome1	6.7	-7.57	3.65125	Yes	n/a	14.267270668176698	n/a	n/a	n/a	ShowResult	Gain
257.461	2.623	0.016	1294.578	70.0	3	6.7	0.0	14.4938	955.0	1.82	Outcome1	6.7	-7.57	3.65125	Yes	n/a	14.267270668176698	n/a	n/a	n/a	ISITrial	Gain
260.11	3.651	0.026	1297.227	70.0	3	6.7	0.0	14.4938	955.0	1.82	Outcome1	6.7	-7.57	3.65125	Yes	n/a	14.267270668176698	n/a	n/a	n/a	TrialHappPreview	Gain
263.792	4.015	0.031	1300.909	70.0	3	6.7	0.0	14.4938	955.0	1.82	Outcome1	6.7	-7.57	3.65125	Yes	n/a	14.267270668176698	n/a	n/a	540.0	TrialHappiness	Gain
263.793	0.436	n/a	1301.862	70.0	3	6.7	0.0	14.4938	955.0	1.82	Outcome1	6.7	-7.57	3.65125	Yes	n/a	14.267270668176698	n/a	n/a	540.0	TrialHappinessSliderResponse	Gain
267.807	6.605	4.015	1304.924	70.0	3	6.7	0.0	14.4938	955.0	1.82	Outcome1	6.7	-7.57	3.65125	Yes	n/a	14.267270668176698	n/a	n/a	n/a	ISIRate	Gain
274.438	3.0	0.026	1311.555	71.0	3	11.56	5.78	15.9388	955.0	3.6	Outcome1	11.56	13.9	0.0	No	2.0	-2.34060022650057	1.187	275.625	n/a	GetAnswer	Loss
275.655	4.0	0.03	1312.772	71.0	3	11.56	5.78	15.9388	955.0	3.6	Outcome1	11.56	13.9	0.0	No	n/a	-2.34060022650057	n/a	n/a	n/a	ShowChoice	Loss
279.67	1.0	0.015	1316.787	71.0	3	11.56	5.78	15.9388	955.0	3.6	Outcome1	11.56	13.9	0.0	No	n/a	-2.34060022650057	n/a	n/a	n/a	ShowResult	Loss
280.686	5.499	0.016	1317.803	71.0	3	11.56	5.78	15.9388	955.0	3.6	Outcome1	11.56	13.9	0.0	No	n/a	-2.34060022650057	n/a	n/a	n/a	ISITrial	Loss
286.218	3.0	0.033	1323.335	72.0	3	13.3	-1.05	17.6013	955.0	2.48	Outcome2	-2.1	13.3	3.0805	Yes	2.0	15.3975084937712	1.605	287.823	n/a	GetAnswer	Loss
287.85	4.0	0.027	1324.967	72.0	3	13.3	-1.05	17.6013	955.0	2.48	Outcome2	-2.1	13.3	3.0805	Yes	n/a	15.3975084937712	n/a	n/a	n/a	ShowChoice	Loss
291.866	1.0	0.016	1328.983	72.0	3	13.3	-1.05	17.6013	955.0	2.48	Outcome2	-2.1	13.3	3.0805	Yes	n/a	15.3975084937712	n/a	n/a	n/a	ShowResult	Loss
292.882	5.672	0.016	1329.999	72.0	3	13.3	-1.05	17.6013	955.0	2.48	Outcome2	-2.1	13.3	3.0805	Yes	n/a	15.3975084937712	n/a	n/a	n/a	ISITrial	Loss
298.58	3.08	0.026	1335.697	72.0	3	13.3	-1.05	17.6013	955.0	2.48	Outcome2	-2.1	13.3	3.0805	Yes	n/a	15.3975084937712	n/a	n/a	n/a	TrialHappPreview	Loss
301.679	4.015	0.019	1338.796	72.0	3	13.3	-1.05	17.6013	955.0	2.48	Outcome2	-2.1	13.3	3.0805	Yes	n/a	15.3975084937712	n/a	n/a	544.0	TrialHappiness	Loss
301.68	2.675	n/a	1338.921	72.0	3	13.3	-1.05	17.6013	955.0	2.48	Outcome2	-2.1	13.3	3.0805	Yes	n/a	15.3975084937712	n/a	n/a	544.0	TrialHappinessSliderResponse	Loss
305.694	4.322	4.015	1342.811	72.0	3	13.3	-1.05	17.6013	955.0	2.48	Outcome2	-2.1	13.3	3.0805	Yes	n/a	15.3975084937712	n/a	n/a	n/a	ISIRate	Loss
310.043	3.0	0.027	1347.16	73.0	3	10.3	2.0	18.8888	955.0	5.0	Outcome1	10.3	-5.5	0.0	No	2.0	15.7995469988675	1.313	311.356	n/a	GetAnswer	Gain
311.376	4.0	0.02	1348.493	73.0	3	10.3	2.0	18.8888	955.0	5.0	Outcome1	10.3	-5.5	0.0	No	n/a	15.7995469988675	n/a	n/a	n/a	ShowChoice	Gain
315.391	1.0	0.015	1352.508	73.0	3	10.3	2.0	18.8888	955.0	5.0	Outcome1	10.3	-5.5	0.0	No	n/a	15.7995469988675	n/a	n/a	n/a	ShowResult	Gain
316.407	4.616	0.016	1353.524	73.0	3	10.3	2.0	18.8888	955.0	5.0	Outcome1	10.3	-5.5	0.0	No	n/a	15.7995469988675	n/a	n/a	n/a	ISITrial	Gain
321.056	3.0	0.033	1358.173	74.0	3	6.46	3.23	19.6963	955.0	2.0	Outcome2	8.9	6.46	3.05625	Yes	2.0	-2.44148735371838	1.022	322.078	n/a	GetAnswer	Gain
322.105	4.0	0.027	1359.222	74.0	3	6.46	3.23	19.6963	955.0	2.0	Outcome2	8.9	6.46	3.05625	Yes	n/a	-2.44148735371838	n/a	n/a	n/a	ShowChoice	Gain
326.121	1.0	0.016	1363.238	74.0	3	6.46	3.23	19.6963	955.0	2.0	Outcome2	8.9	6.46	3.05625	Yes	n/a	-2.44148735371838	n/a	n/a	n/a	ShowResult	Gain
327.137	3.909	0.016	1364.254	74.0	3	6.46	3.23	19.6963	955.0	2.0	Outcome2	8.9	6.46	3.05625	Yes	n/a	-2.44148735371838	n/a	n/a	n/a	ISITrial	Gain
331.069	3.056	0.023	1368.186	74.0	3	6.46	3.23	19.6963	955.0	2.0	Outcome2	8.9	6.46	3.05625	Yes	n/a	-2.44148735371838	n/a	n/a	n/a	TrialHappPreview	Gain
334.151	4.015	0.026	1371.268	74.0	3	6.46	3.23	19.6963	955.0	2.0	Outcome2	8.9	6.46	3.05625	Yes	n/a	-2.44148735371838	n/a	n/a	532.0	TrialHappiness	Gain
334.152	0.122	n/a	1372.743	74.0	3	6.46	3.23	19.6963	955.0	2.0	Outcome2	8.9	6.46	3.05625	Yes	n/a	-2.44148735371838	n/a	n/a	532.0	TrialHappinessSliderResponse	Gain
338.166	4.225	4.015	1375.283	74.0	3	6.46	3.23	19.6963	955.0	2.0	Outcome2	8.9	6.46	3.05625	Yes	n/a	-2.44148735371838	n/a	n/a	n/a	ISIRate	Gain
342.415	3.0	0.024	1379.532	75.0	3	11.9	-2.52	21.1838	955.0	3.6	Outcome1	11.9	-5.03	0.0	No	2.0	16.934314835787102	2.45	344.865	n/a	GetAnswer	Loss
344.881	4.0	0.016	1381.998	75.0	3	11.9	-2.52	21.1838	955.0	3.6	Outcome1	11.9	-5.03	0.0	No	n/a	16.934314835787102	n/a	n/a	n/a	ShowChoice	Loss
348.913	1.0	0.032	1386.03	75.0	3	11.9	-2.52	21.1838	955.0	3.6	Outcome1	11.9	-5.03	0.0	No	n/a	16.934314835787102	n/a	n/a	n/a	ShowResult	Loss
349.929	4.979	0.016	1387.046	75.0	3	11.9	-2.52	21.1838	955.0	3.6	Outcome1	11.9	-5.03	0.0	No	n/a	16.934314835787102	n/a	n/a	n/a	ISITrial	Loss
354.927	3.0	0.019	1392.044	76.0	3	-9.0	-9.0	20.0588	955.0	0.66	Certain	-0.7	-18.11	0.0	No	4.0	17.413363533408802	1.66	356.587	n/a	GetAnswer	Mixed
356.61	4.0	0.023	1393.727	76.0	3	-9.0	-9.0	20.0588	955.0	0.66	Certain	-0.7	-18.11	0.0	No	n/a	17.413363533408802	n/a	n/a	n/a	ShowChoice	Mixed
360.625	1.0	0.015	1397.742	76.0	3	-9.0	-9.0	20.0588	955.0	0.66	Certain	-0.7	-18.11	0.0	No	n/a	17.413363533408802	n/a	n/a	n/a	ShowResult	Mixed
361.642	3.931	0.017	1398.759	76.0	3	-9.0	-9.0	20.0588	955.0	0.66	Certain	-0.7	-18.11	0.0	No	n/a	17.413363533408802	n/a	n/a	n/a	ISITrial	Mixed
365.607	3.0	0.034	1402.724	77.0	3	7.3	-1.0	20.9713	955.0	2.48	Outcome2	-10.59	7.3	4.0	Yes	2.0	17.8924122310306	1.781	367.388	n/a	GetAnswer	Gain
367.406	4.0	0.018	1404.523	77.0	3	7.3	-1.0	20.9713	955.0	2.48	Outcome2	-10.59	7.3	4.0	Yes	n/a	17.8924122310306	n/a	n/a	n/a	ShowChoice	Gain
371.422	1.0	0.016	1408.539	77.0	3	7.3	-1.0	20.9713	955.0	2.48	Outcome2	-10.59	7.3	4.0	Yes	n/a	17.8924122310306	n/a	n/a	n/a	ShowResult	Gain
372.438	7.022	0.016	1409.555	77.0	3	7.3	-1.0	20.9713	955.0	2.48	Outcome2	-10.59	7.3	4.0	Yes	n/a	17.8924122310306	n/a	n/a	n/a	ISITrial	Gain
379.485	4.0	0.025	1416.602	77.0	3	7.3	-1.0	20.9713	955.0	2.48	Outcome2	-10.59	7.3	4.0	Yes	n/a	17.8924122310306	n/a	n/a	n/a	TrialHappPreview	Gain
383.517	4.016	0.032	1420.634	77.0	3	7.3	-1.0	20.9713	955.0	2.48	Outcome2	-10.59	7.3	4.0	Yes	n/a	17.8924122310306	n/a	n/a	532.0	TrialHappiness	Gain
383.518	0.144	n/a	1421.786	77.0	3	7.3	-1.0	20.9713	955.0	2.48	Outcome2	-10.59	7.3	4.0	Yes	n/a	17.8924122310306	n/a	n/a	532.0	TrialHappinessSliderResponse	Gain
387.533	8.0	4.016	1424.65	77.0	3	7.3	-1.0	20.9713	955.0	2.48	Outcome2	-10.59	7.3	4.0	Yes	n/a	17.8924122310306	n/a	n/a	n/a	ISIRate	Gain
395.563	3.0	0.03	1432.68	78.0	3	9.1	0.0	22.1088	955.0	2.22	Outcome2	-9.27	9.1	0.0	No	2.0	18.3714609286523	1.451	397.014	n/a	GetAnswer	Gain
397.029	4.0	0.015	1434.146	78.0	3	9.1	0.0	22.1088	955.0	2.22	Outcome2	-9.27	9.1	0.0	No	n/a	18.3714609286523	n/a	n/a	n/a	ShowChoice	Gain
401.045	1.0	0.016	1438.162	78.0	3	9.1	0.0	22.1088	955.0	2.22	Outcome2	-9.27	9.1	0.0	No	n/a	18.3714609286523	n/a	n/a	n/a	ShowResult	Gain
402.061	2.078	0.016	1439.178	78.0	3	9.1	0.0	22.1088	955.0	2.22	Outcome2	-9.27	9.1	0.0	No	n/a	18.3714609286523	n/a	n/a	n/a	ISITrial	Gain
404.16	3.0	0.021	1441.277	79.0	3	2.01	1.0	22.3601	955.0	1.82	Outcome2	4.7	2.01	2.7295	Yes	2.0	-2.68865609664024	1.333	405.493	n/a	GetAnswer	Gain
405.51	4.0	0.017	1442.627	79.0	3	2.01	1.0	22.3601	955.0	1.82	Outcome2	4.7	2.01	2.7295	Yes	n/a	-2.68865609664024	n/a	n/a	n/a	ShowChoice	Gain
409.525	1.0	0.015	1446.642	79.0	3	2.01	1.0	22.3601	955.0	1.82	Outcome2	4.7	2.01	2.7295	Yes	n/a	-2.68865609664024	n/a	n/a	n/a	ShowResult	Gain
410.541	3.829	0.016	1447.658	79.0	3	2.01	1.0	22.3601	955.0	1.82	Outcome2	4.7	2.01	2.7295	Yes	n/a	-2.68865609664024	n/a	n/a	n/a	ISITrial	Gain
414.39	2.73	0.02	1451.507	79.0	3	2.01	1.0	22.3601	955.0	1.82	Outcome2	4.7	2.01	2.7295	Yes	n/a	-2.68865609664024	n/a	n/a	n/a	TrialHappPreview	Gain
417.139	4.015	0.019	1454.256	79.0	3	2.01	1.0	22.3601	955.0	1.82	Outcome2	4.7	2.01	2.7295	Yes	n/a	-2.68865609664024	n/a	n/a	532.0	TrialHappiness	Gain
417.14	0.782	n/a	1454.82	79.0	3	2.01	1.0	22.3601	955.0	1.82	Outcome2	4.7	2.01	2.7295	Yes	n/a	-2.68865609664024	n/a	n/a	532.0	TrialHappinessSliderResponse	Gain
421.154	2.918	4.015	1458.271	79.0	3	2.01	1.0	22.3601	955.0	1.82	Outcome2	4.7	2.01	2.7295	Yes	n/a	-2.68865609664024	n/a	n/a	n/a	ISIRate	Gain
424.103	3.0	0.031	1461.22	80.0	3	-10.0	-10.0	21.1101	955.0	0.66	Certain	-0.7	-20.03	0.0	No	4.0	19.3295583238958	1.571	425.674	n/a	GetAnswer	Mixed
425.703	4.0	0.029	1462.82	80.0	3	-10.0	-10.0	21.1101	955.0	0.66	Certain	-0.7	-20.03	0.0	No	n/a	19.3295583238958	n/a	n/a	n/a	ShowChoice	Mixed
429.718	1.0	0.015	1466.835	80.0	3	-10.0	-10.0	21.1101	955.0	0.66	Certain	-0.7	-20.03	0.0	No	n/a	19.3295583238958	n/a	n/a	n/a	ShowResult	Mixed
430.734	3.336	0.016	1467.851	80.0	3	-10.0	-10.0	21.1101	955.0	0.66	Certain	-0.7	-20.03	0.0	No	n/a	19.3295583238958	n/a	n/a	n/a	ISITrial	Mixed
434.1	3.0	0.03	1471.217	81.0	3	-2.47	-1.0	20.8013	955.0	2.0	Outcome1	-2.47	0.3	3.92375	Yes	n/a	-2.76849754624387	n/a	n/a	n/a	GetAnswer	Mixed
437.116	4.0	0.016	1474.233	81.0	3	-2.47	-1.0	20.8013	955.0	2.0	Outcome1	-2.47	0.3	3.92375	Yes	n/a	-2.76849754624387	n/a	n/a	n/a	ShowChoice	Mixed
441.131	1.0	0.015	1478.248	81.0	3	-2.47	-1.0	20.8013	955.0	2.0	Outcome1	-2.47	0.3	3.92375	Yes	n/a	-2.76849754624387	n/a	n/a	n/a	ShowResult	Mixed
442.147	3.919	0.016	1479.264	81.0	3	-2.47	-1.0	20.8013	955.0	2.0	Outcome1	-2.47	0.3	3.92375	Yes	n/a	-2.76849754624387	n/a	n/a	n/a	ISITrial	Mixed
446.096	3.924	0.03	1483.213	81.0	3	-2.47	-1.0	20.8013	955.0	2.0	Outcome1	-2.47	0.3	3.92375	Yes	n/a	-2.76849754624387	n/a	n/a	n/a	TrialHappPreview	Mixed
450.044	4.016	0.024	1487.161	81.0	3	-2.47	-1.0	20.8013	955.0	2.0	Outcome1	-2.47	0.3	3.92375	Yes	n/a	-2.76849754624387	n/a	n/a	448.0	TrialHappiness	Mixed
450.045	3.486	n/a	1487.666	81.0	3	-2.47	-1.0	20.8013	955.0	2.0	Outcome1	-2.47	0.3	3.92375	Yes	n/a	-2.76849754624387	n/a	n/a	448.0	TrialHappinessSliderResponse	Mixed
454.06	7.695	4.016	1491.177	81.0	3	-2.47	-1.0	20.8013	955.0	2.0	Outcome1	-2.47	0.3	3.92375	Yes	n/a	-2.76849754624387	n/a	n/a	n/a	ISIRate	Mixed
461.79	3.0	0.035	1498.907	n/a	3	n/a	n/a	n/a	n/a	n/a	n/a	n/a	n/a	n/a	n/a	{SPACE}	n/a	2.416	464.206	n/a	CurrentEarnings	n/a
464.223	-0.001	0.016	1501.34	n/a	3	n/a	n/a	n/a	n/a	n/a	n/a	n/a	n/a	n/a	n/a	{SPACE}	n/a	4.671	468.894	n/a	Goodbye	n/a
