onset	duration	onset_delay	onset_unadjusted	trial_number	block	amount_change	certain_amount	current_amount	mood_target	multiplier	outcome	outcome1_amount	outcome2_amount	question_duration	rating	response	rpe	rt	rt_time	slider_response	trial_phase	trial_type
-42.544	-0.001	0.021	23.063	n/a	0	n/a	n/a	n/a	n/a	n/a	n/a	n/a	n/a	n/a	n/a	{SPACE}	n/a	3.578	-38.966	n/a	Welcome	n/a
-38.95	5.0	0.015	26.657	n/a	0	n/a	n/a	n/a	n/a	n/a	n/a	n/a	n/a	n/a	n/a	n/a	n/a	n/a	n/a	n/a	LifeHappyPreview	n/a
-33.935	4.849	0.015	31.672	n/a	0	n/a	n/a	n/a	n/a	n/a	n/a	n/a	n/a	n/a	n/a	n/a	n/a	n/a	n/a	712.0	LifeHappiness	n/a
-33.934	4.336	n/a	32.186	n/a	0	n/a	n/a	n/a	n/a	n/a	n/a	n/a	n/a	n/a	n/a	n/a	n/a	n/a	n/a	712.0	LifeHappinessSliderResponse	n/a
-13.774	4.0	0.024	51.833	n/a	0	n/a	n/a	n/a	n/a	n/a	n/a	n/a	n/a	n/a	n/a	n/a	n/a	n/a	n/a	n/a	BlockHappyPreview	n/a
-9.762	1.008	0.012	55.845	n/a	0	n/a	n/a	n/a	n/a	n/a	n/a	n/a	n/a	n/a	n/a	n/a	n/a	n/a	n/a	656.0	BlockStartHappiness	n/a
-9.762	0.442	n/a	56.411	n/a	0	n/a	n/a	n/a	n/a	n/a	n/a	n/a	n/a	n/a	n/a	n/a	n/a	n/a	n/a	656.0	BlockStartHappinessSliderResponse	n/a
-2.056	-0.001	0.014	63.551	n/a	0	n/a	n/a	n/a	n/a	n/a	n/a	n/a	n/a	n/a	n/a	5.0	n/a	2.035	-0.021	n/a	ScanWait	n/a
0.0	10.0	0.021	65.607	n/a	1	n/a	n/a	n/a	n/a	n/a	n/a	n/a	n/a	n/a	n/a	n/a	n/a	n/a	n/a	n/a	GetReady	n/a
10.013	3.0	0.013	75.62	1.0	1	8.1	1.51	11.0125	955.0	4.2	Outcome1	8.1	3.02	0.0	No	2.0	5.0792751981879904	1.344	11.357	n/a	GetAnswer	Gain
11.384	4.0	0.027	76.991	1.0	1	8.1	1.51	11.0125	955.0	4.2	Outcome1	8.1	3.02	0.0	No	n/a	5.0792751981879904	n/a	n/a	n/a	ShowChoice	Gain
15.396	1.0	0.012	81.003	1.0	1	8.1	1.51	11.0125	955.0	4.2	Outcome1	8.1	3.02	0.0	No	n/a	5.0792751981879904	n/a	n/a	n/a	ShowResult	Gain
16.416	2.431	0.02	82.023	1.0	1	8.1	1.51	11.0125	955.0	4.2	Outcome1	8.1	3.02	0.0	No	n/a	5.0792751981879904	n/a	n/a	n/a	ISITrial	Gain
18.873	3.0	0.026	84.48	2.0	1	3.86	1.93	11.495	955.0	2.22	Outcome2	5.1	3.86	0.0	No	2.0	-1.24160060400151	1.175	20.048	n/a	GetAnswer	Gain
20.06	4.0	0.012	85.667	2.0	1	3.86	1.93	11.495	955.0	2.22	Outcome2	5.1	3.86	0.0	No	n/a	-1.24160060400151	n/a	n/a	n/a	ShowChoice	Gain
24.072	1.0	0.012	89.679	2.0	1	3.86	1.93	11.495	955.0	2.22	Outcome2	5.1	3.86	0.0	No	n/a	-1.24160060400151	n/a	n/a	n/a	ShowResult	Gain
25.092	4.568	0.02	90.699	2.0	1	3.86	1.93	11.495	955.0	2.22	Outcome2	5.1	3.86	0.0	No	n/a	-1.24160060400151	n/a	n/a	n/a	ISITrial	Gain
29.689	3.0	0.029	95.296	3.0	1	9.03	4.51	12.6238	955.0	5.0	Outcome2	10.3	9.03	2.868	Yes	2.0	-1.2698187995469998	1.16	30.849	n/a	GetAnswer	Gain
30.876	4.0	0.027	96.483	3.0	1	9.03	4.51	12.6238	955.0	5.0	Outcome2	10.3	9.03	2.868	Yes	n/a	-1.2698187995469998	n/a	n/a	n/a	ShowChoice	Gain
34.888	1.0	0.012	100.495	3.0	1	9.03	4.51	12.6238	955.0	5.0	Outcome2	10.3	9.03	2.868	Yes	n/a	-1.2698187995469998	n/a	n/a	n/a	ShowResult	Gain
35.908	3.243	0.02	101.515	3.0	1	9.03	4.51	12.6238	955.0	5.0	Outcome2	10.3	9.03	2.868	Yes	n/a	-1.2698187995469998	n/a	n/a	n/a	ISITrial	Gain
39.167	2.868	0.016	104.774	3.0	1	9.03	4.51	12.6238	955.0	5.0	Outcome2	10.3	9.03	2.868	Yes	n/a	-1.2698187995469998	n/a	n/a	n/a	TrialHappPreview	Gain
42.059	4.012	0.024	107.666	3.0	1	9.03	4.51	12.6238	955.0	5.0	Outcome2	10.3	9.03	2.868	Yes	2{-2}2{-2}2{-2}	-1.2698187995469998	2.047	44.106	616.0	TrialHappiness	Gain
42.06	1.529	n/a	108.185	3.0	1	9.03	4.51	12.6238	955.0	5.0	Outcome2	10.3	9.03	2.868	Yes	n/a	-1.2698187995469998	n/a	n/a	616.0	TrialHappinessSliderResponse	Gain
46.071	3.472	4.012	111.678	3.0	1	9.03	4.51	12.6238	955.0	5.0	Outcome2	10.3	9.03	2.868	Yes	n/a	-1.2698187995469998	n/a	n/a	n/a	ISIRate	Gain
49.565	3.0	0.022	115.172	4.0	1	5.44	2.72	13.3038	955.0	2.0	Outcome1	5.44	6.9	0.0	No	2.0	-1.460362400906	1.053	50.618	n/a	GetAnswer	Gain
50.635	4.0	0.017	116.242	4.0	1	5.44	2.72	13.3038	955.0	2.0	Outcome1	5.44	6.9	0.0	No	n/a	-1.460362400906	n/a	n/a	n/a	ShowChoice	Gain
54.647	1.0	0.012	120.254	4.0	1	5.44	2.72	13.3038	955.0	2.0	Outcome1	5.44	6.9	0.0	No	n/a	-1.460362400906	n/a	n/a	n/a	ShowResult	Gain
55.667	2.011	0.02	121.274	4.0	1	5.44	2.72	13.3038	955.0	2.0	Outcome1	5.44	6.9	0.0	No	n/a	-1.460362400906	n/a	n/a	n/a	ISITrial	Gain
57.706	3.0	0.028	123.313	5.0	1	11.3	2.07	14.7163	955.0	2.48	Outcome2	4.14	11.3	2.5825	Yes	2.0	7.15855039637599	0.89	58.596	n/a	GetAnswer	Loss
58.609	4.0	0.013	124.216	5.0	1	11.3	2.07	14.7163	955.0	2.48	Outcome2	4.14	11.3	2.5825	Yes	n/a	7.15855039637599	n/a	n/a	n/a	ShowChoice	Loss
62.621	1.0	0.012	128.228	5.0	1	11.3	2.07	14.7163	955.0	2.48	Outcome2	4.14	11.3	2.5825	Yes	n/a	7.15855039637599	n/a	n/a	n/a	ShowResult	Loss
63.641	5.129	0.02	129.248	5.0	1	11.3	2.07	14.7163	955.0	2.48	Outcome2	4.14	11.3	2.5825	Yes	n/a	7.15855039637599	n/a	n/a	n/a	ISITrial	Loss
68.789	2.582	0.019	134.396	5.0	1	11.3	2.07	14.7163	955.0	2.48	Outcome2	4.14	11.3	2.5825	Yes	n/a	7.15855039637599	n/a	n/a	n/a	TrialHappPreview	Loss
71.397	4.012	0.026	137.004	5.0	1	11.3	2.07	14.7163	955.0	2.48	Outcome2	4.14	11.3	2.5825	Yes	n/a	7.15855039637599	n/a	n/a	736.0	TrialHappiness	Loss
71.398	1.626	n/a	137.442	5.0	1	11.3	2.07	14.7163	955.0	2.48	Outcome2	4.14	11.3	2.5825	Yes	n/a	7.15855039637599	n/a	n/a	736.0	TrialHappinessSliderResponse	Loss
75.409	2.33	4.012	141.016	5.0	1	11.3	2.07	14.7163	955.0	2.48	Outcome2	4.14	11.3	2.5825	Yes	n/a	7.15855039637599	n/a	n/a	n/a	ISIRate	Loss
77.766	3.0	0.027	143.373	6.0	1	7.5	1.0	15.6538	955.0	2.8	Outcome2	2.0	7.5	0.0	No	2.0	5.503963759909401	1.093	78.859	n/a	GetAnswer	Gain
78.886	4.0	0.027	144.493	6.0	1	7.5	1.0	15.6538	955.0	2.8	Outcome2	2.0	7.5	0.0	No	n/a	5.503963759909401	n/a	n/a	n/a	ShowChoice	Gain
82.898	1.0	0.012	148.505	6.0	1	7.5	1.0	15.6538	955.0	2.8	Outcome2	2.0	7.5	0.0	No	n/a	5.503963759909401	n/a	n/a	n/a	ShowResult	Gain
83.918	6.232	0.02	149.525	6.0	1	7.5	1.0	15.6538	955.0	2.8	Outcome2	2.0	7.5	0.0	No	n/a	5.503963759909401	n/a	n/a	n/a	ISITrial	Gain
90.17	3.0	0.02	155.777	7.0	1	7.3	0.78	16.5663	955.0	2.48	Outcome1	7.3	1.55	0.0	No	2.0	5.751981879954701	1.175	91.345	n/a	GetAnswer	Gain
91.357	4.0	0.012	156.964	7.0	1	7.3	0.78	16.5663	955.0	2.48	Outcome1	7.3	1.55	0.0	No	n/a	5.751981879954701	n/a	n/a	n/a	ShowChoice	Gain
95.369	1.0	0.012	160.976	7.0	1	7.3	0.78	16.5663	955.0	2.48	Outcome1	7.3	1.55	0.0	No	n/a	5.751981879954701	n/a	n/a	n/a	ShowResult	Gain
96.389	2.305	0.02	161.996	7.0	1	7.3	0.78	16.5663	955.0	2.48	Outcome1	7.3	1.55	0.0	No	n/a	5.751981879954701	n/a	n/a	n/a	ISITrial	Gain
98.712	3.0	0.018	164.319	8.0	1	-3.0	-3.0	16.1913	955.0	1.0	Certain	-0.3	-6.3	3.1125	Yes	4.0	6.0	2.354	101.066	n/a	GetAnswer	Mixed
101.086	4.0	0.02	166.693	8.0	1	-3.0	-3.0	16.1913	955.0	1.0	Certain	-0.3	-6.3	3.1125	Yes	n/a	6.0	n/a	n/a	n/a	ShowChoice	Mixed
105.098	1.0	0.012	170.705	8.0	1	-3.0	-3.0	16.1913	955.0	1.0	Certain	-0.3	-6.3	3.1125	Yes	n/a	6.0	n/a	n/a	n/a	ShowResult	Mixed
106.118	3.506	0.02	171.725	8.0	1	-3.0	-3.0	16.1913	955.0	1.0	Certain	-0.3	-6.3	3.1125	Yes	n/a	6.0	n/a	n/a	n/a	ISITrial	Mixed
109.645	3.112	0.021	175.252	8.0	1	-3.0	-3.0	16.1913	955.0	1.0	Certain	-0.3	-6.3	3.1125	Yes	n/a	6.0	n/a	n/a	n/a	TrialHappPreview	Mixed
112.771	4.012	0.014	178.378	8.0	1	-3.0	-3.0	16.1913	955.0	1.0	Certain	-0.3	-6.3	3.1125	Yes	2{-2}2{-2}2{-2}2{-2}2{-2}4{-4}	6.0	3.4	116.171	652.0	TrialHappiness	Mixed
112.772	3.113	n/a	178.666	8.0	1	-3.0	-3.0	16.1913	955.0	1.0	Certain	-0.3	-6.3	3.1125	Yes	n/a	6.0	n/a	n/a	652.0	TrialHappinessSliderResponse	Mixed
116.783	4.45	4.012	182.39	8.0	1	-3.0	-3.0	16.1913	955.0	1.0	Certain	-0.3	-6.3	3.1125	Yes	n/a	6.0	n/a	n/a	n/a	ISIRate	Mixed
121.263	3.0	0.03	186.87	9.0	1	-4.0	-4.0	15.6913	955.0	0.66	Certain	-8.38	-0.7	0.0	No	4.0	7.6749716874292195	1.893	123.156	n/a	GetAnswer	Mixed
123.169	4.0	0.013	188.776	9.0	1	-4.0	-4.0	15.6913	955.0	0.66	Certain	-8.38	-0.7	0.0	No	n/a	7.6749716874292195	n/a	n/a	n/a	ShowChoice	Mixed
127.181	1.0	0.012	192.788	9.0	1	-4.0	-4.0	15.6913	955.0	0.66	Certain	-8.38	-0.7	0.0	No	n/a	7.6749716874292195	n/a	n/a	n/a	ShowResult	Mixed
128.201	2.0	0.02	193.808	9.0	1	-4.0	-4.0	15.6913	955.0	0.66	Certain	-8.38	-0.7	0.0	No	n/a	7.6749716874292195	n/a	n/a	n/a	ISITrial	Mixed
130.223	3.0	0.022	195.83	10.0	1	0.0	0.0	15.6913	955.0	1.68	Certain	4.5	-3.52	4.0	Yes	4.0	8.01812004530011	1.227	131.45	n/a	GetAnswer	Gain
131.46	4.0	0.01	197.067	10.0	1	0.0	0.0	15.6913	955.0	1.68	Certain	4.5	-3.52	4.0	Yes	n/a	8.01812004530011	n/a	n/a	n/a	ShowChoice	Gain
135.472	1.0	0.012	201.079	10.0	1	0.0	0.0	15.6913	955.0	1.68	Certain	4.5	-3.52	4.0	Yes	n/a	8.01812004530011	n/a	n/a	n/a	ShowResult	Gain
136.492	2.0	0.02	202.099	10.0	1	0.0	0.0	15.6913	955.0	1.68	Certain	4.5	-3.52	4.0	Yes	n/a	8.01812004530011	n/a	n/a	n/a	ISITrial	Gain
138.515	4.0	0.023	204.122	10.0	1	0.0	0.0	15.6913	955.0	1.68	Certain	4.5	-3.52	4.0	Yes	n/a	8.01812004530011	n/a	n/a	n/a	TrialHappPreview	Gain
142.544	4.012	0.029	208.151	10.0	1	0.0	0.0	15.6913	955.0	1.68	Certain	4.5	-3.52	4.0	Yes	n/a	8.01812004530011	n/a	n/a	664.0	TrialHappiness	Gain
142.544	0.461	n/a	208.665	10.0	1	0.0	0.0	15.6913	955.0	1.68	Certain	4.5	-3.52	4.0	Yes	n/a	8.01812004530011	n/a	n/a	664.0	TrialHappinessSliderResponse	Gain
146.556	8.0	4.012	212.163	10.0	1	0.0	0.0	15.6913	955.0	1.68	Certain	4.5	-3.52	4.0	Yes	n/a	8.01812004530011	n/a	n/a	n/a	ISIRate	Gain
154.58	3.0	0.024	220.187	11.0	1	13.5	2.67	17.3788	955.0	2.8	Outcome1	13.5	5.34	0.0	No	2.0	8.15741789354473	1.209	155.789	n/a	GetAnswer	Loss
155.8	4.0	0.011	221.407	11.0	1	13.5	2.67	17.3788	955.0	2.8	Outcome1	13.5	5.34	0.0	No	n/a	8.15741789354473	n/a	n/a	n/a	ShowChoice	Loss
159.812	1.0	0.012	225.419	11.0	1	13.5	2.67	17.3788	955.0	2.8	Outcome1	13.5	5.34	0.0	No	n/a	8.15741789354473	n/a	n/a	n/a	ShowResult	Loss
160.832	3.324	0.02	226.439	11.0	1	13.5	2.67	17.3788	955.0	2.8	Outcome1	13.5	5.34	0.0	No	n/a	8.15741789354473	n/a	n/a	n/a	ISITrial	Loss
164.175	3.0	0.019	229.782	12.0	1	0.22	1.0	17.4063	955.0	1.0	Outcome1	0.22	1.7	2.61875	Yes	2.0	-1.4762174405436	1.676	165.851	n/a	GetAnswer	Mixed
165.863	4.0	0.012	231.47	12.0	1	0.22	1.0	17.4063	955.0	1.0	Outcome1	0.22	1.7	2.61875	Yes	n/a	-1.4762174405436	n/a	n/a	n/a	ShowChoice	Mixed
169.875	1.0	0.012	235.482	12.0	1	0.22	1.0	17.4063	955.0	1.0	Outcome1	0.22	1.7	2.61875	Yes	n/a	-1.4762174405436	n/a	n/a	n/a	ShowResult	Mixed
170.895	6.642	0.02	236.502	12.0	1	0.22	1.0	17.4063	955.0	1.0	Outcome1	0.22	1.7	2.61875	Yes	n/a	-1.4762174405436	n/a	n/a	n/a	ISITrial	Mixed
177.548	2.619	0.011	243.155	12.0	1	0.22	1.0	17.4063	955.0	1.0	Outcome1	0.22	1.7	2.61875	Yes	n/a	-1.4762174405436	n/a	n/a	n/a	TrialHappPreview	Mixed
180.19	4.012	0.023	245.797	12.0	1	0.22	1.0	17.4063	955.0	1.0	Outcome1	0.22	1.7	2.61875	Yes	n/a	-1.4762174405436	n/a	n/a	688.0	TrialHappiness	Mixed
180.19	1.249	n/a	246.828	12.0	1	0.22	1.0	17.4063	955.0	1.0	Outcome1	0.22	1.7	2.61875	Yes	n/a	-1.4762174405436	n/a	n/a	688.0	TrialHappinessSliderResponse	Mixed
184.202	2.475	4.012	249.809	12.0	1	0.22	1.0	17.4063	955.0	1.0	Outcome1	0.22	1.7	2.61875	Yes	n/a	-1.4762174405436	n/a	n/a	n/a	ISIRate	Mixed
186.692	3.0	0.015	252.299	13.0	1	1.5	-2.0	17.5938	955.0	0.82	Outcome1	1.5	-6.91	0.0	No	2.0	8.408833522083809	2.185	188.877	n/a	GetAnswer	Mixed
188.899	4.0	0.022	254.506	13.0	1	1.5	-2.0	17.5938	955.0	0.82	Outcome1	1.5	-6.91	0.0	No	n/a	8.408833522083809	n/a	n/a	n/a	ShowChoice	Mixed
192.911	1.0	0.012	258.518	13.0	1	1.5	-2.0	17.5938	955.0	0.82	Outcome1	1.5	-6.91	0.0	No	n/a	8.408833522083809	n/a	n/a	n/a	ShowResult	Mixed
193.931	3.48	0.02	259.538	13.0	1	1.5	-2.0	17.5938	955.0	0.82	Outcome1	1.5	-6.91	0.0	No	n/a	8.408833522083809	n/a	n/a	n/a	ISITrial	Mixed
197.441	3.0	0.03	263.048	14.0	1	8.7	0.0	18.6813	955.0	1.82	Outcome1	8.7	-0.01	0.0	No	2.0	8.71121177802945	2.266	199.707	n/a	GetAnswer	Gain
199.731	4.0	0.024	265.338	14.0	1	8.7	0.0	18.6813	955.0	1.82	Outcome1	8.7	-0.01	0.0	No	n/a	8.71121177802945	n/a	n/a	n/a	ShowChoice	Gain
203.743	1.0	0.012	269.35	14.0	1	8.7	0.0	18.6813	955.0	1.82	Outcome1	8.7	-0.01	0.0	No	n/a	8.71121177802945	n/a	n/a	n/a	ShowResult	Gain
204.763	5.019	0.02	270.37	14.0	1	8.7	0.0	18.6813	955.0	1.82	Outcome1	8.7	-0.01	0.0	No	n/a	8.71121177802945	n/a	n/a	n/a	ISITrial	Gain
209.812	3.0	0.03	275.419	15.0	1	10.44	5.22	19.9863	955.0	3.6	Outcome2	11.9	10.44	3.3485	Yes	2.0	-1.4566817667044198	1.364	211.176	n/a	GetAnswer	Loss
211.199	4.0	0.022	276.806	15.0	1	10.44	5.22	19.9863	955.0	3.6	Outcome2	11.9	10.44	3.3485	Yes	n/a	-1.4566817667044198	n/a	n/a	n/a	ShowChoice	Loss
215.211	1.0	0.012	280.818	15.0	1	10.44	5.22	19.9863	955.0	3.6	Outcome2	11.9	10.44	3.3485	Yes	n/a	-1.4566817667044198	n/a	n/a	n/a	ShowResult	Loss
216.231	7.614	0.02	281.838	15.0	1	10.44	5.22	19.9863	955.0	3.6	Outcome2	11.9	10.44	3.3485	Yes	n/a	-1.4566817667044198	n/a	n/a	n/a	ISITrial	Loss
223.87	3.348	0.025	289.477	15.0	1	10.44	5.22	19.9863	955.0	3.6	Outcome2	11.9	10.44	3.3485	Yes	n/a	-1.4566817667044198	n/a	n/a	n/a	TrialHappPreview	Loss
227.247	4.012	0.029	292.854	15.0	1	10.44	5.22	19.9863	955.0	3.6	Outcome2	11.9	10.44	3.3485	Yes	2{-2}2{-2}2{-2}2{-2}	-1.4566817667044198	1.814	229.061	736.0	TrialHappiness	Loss
227.248	1.318	n/a	293.351	15.0	1	10.44	5.22	19.9863	955.0	3.6	Outcome2	11.9	10.44	3.3485	Yes	n/a	-1.4566817667044198	n/a	n/a	736.0	TrialHappinessSliderResponse	Loss
231.259	5.394	4.012	296.866	15.0	1	10.44	5.22	19.9863	955.0	3.6	Outcome2	11.9	10.44	3.3485	Yes	n/a	-1.4566817667044198	n/a	n/a	n/a	ISIRate	Loss
236.675	3.0	0.022	302.282	16.0	1	8.01	4.0	20.9875	955.0	2.48	Outcome1	8.01	9.3	0.0	No	2.0	-1.28708946772367	1.238	237.913	n/a	GetAnswer	Gain
237.929	4.0	0.016	303.536	16.0	1	8.01	4.0	20.9875	955.0	2.48	Outcome1	8.01	9.3	0.0	No	n/a	-1.28708946772367	n/a	n/a	n/a	ShowChoice	Gain
241.941	1.0	0.012	307.548	16.0	1	8.01	4.0	20.9875	955.0	2.48	Outcome1	8.01	9.3	0.0	No	n/a	-1.28708946772367	n/a	n/a	n/a	ShowResult	Gain
242.961	3.008	0.02	308.568	16.0	1	8.01	4.0	20.9875	955.0	2.48	Outcome1	8.01	9.3	0.0	No	n/a	-1.28708946772367	n/a	n/a	n/a	ISITrial	Gain
245.986	3.0	0.017	311.593	17.0	1	9.7	0.48	22.2	955.0	3.16	Outcome1	9.7	0.95	3.0415	Yes	2.0	8.74858437146093	2.128	248.114	n/a	GetAnswer	Gain
248.126	4.0	0.012	313.733	17.0	1	9.7	0.48	22.2	955.0	3.16	Outcome1	9.7	0.95	3.0415	Yes	n/a	8.74858437146093	n/a	n/a	n/a	ShowChoice	Gain
252.138	1.0	0.012	317.745	17.0	1	9.7	0.48	22.2	955.0	3.16	Outcome1	9.7	0.95	3.0415	Yes	n/a	8.74858437146093	n/a	n/a	n/a	ShowResult	Gain
253.158	3.566	0.02	318.765	17.0	1	9.7	0.48	22.2	955.0	3.16	Outcome1	9.7	0.95	3.0415	Yes	n/a	8.74858437146093	n/a	n/a	n/a	ISITrial	Gain
256.735	3.042	0.011	322.342	17.0	1	9.7	0.48	22.2	955.0	3.16	Outcome1	9.7	0.95	3.0415	Yes	n/a	8.74858437146093	n/a	n/a	n/a	TrialHappPreview	Gain
259.794	4.012	0.017	325.401	17.0	1	9.7	0.48	22.2	955.0	3.16	Outcome1	9.7	0.95	3.0415	Yes	n/a	8.74858437146093	n/a	n/a	752.0	TrialHappiness	Gain
259.795	1.383	n/a	325.832	17.0	1	9.7	0.48	22.2	955.0	3.16	Outcome1	9.7	0.95	3.0415	Yes	n/a	8.74858437146093	n/a	n/a	752.0	TrialHappinessSliderResponse	Gain
263.806	4.166	4.012	329.413	17.0	1	9.7	0.48	22.2	955.0	3.16	Outcome1	9.7	0.95	3.0415	Yes	n/a	8.74858437146093	n/a	n/a	n/a	ISIRate	Gain
268.002	3.0	0.03	333.609	18.0	1	5.7	1.0	22.9125	955.0	3.16	Outcome1	5.7	-3.02	0.0	No	2.0	8.72480181200453	2.378	270.38	n/a	GetAnswer	Gain
270.393	4.0	0.013	336.0	18.0	1	5.7	1.0	22.9125	955.0	3.16	Outcome1	5.7	-3.02	0.0	No	n/a	8.72480181200453	n/a	n/a	n/a	ShowChoice	Gain
274.405	1.0	0.012	340.012	18.0	1	5.7	1.0	22.9125	955.0	3.16	Outcome1	5.7	-3.02	0.0	No	n/a	8.72480181200453	n/a	n/a	n/a	ShowResult	Gain
275.425	6.787	0.02	341.032	18.0	1	5.7	1.0	22.9125	955.0	3.16	Outcome1	5.7	-3.02	0.0	No	n/a	8.72480181200453	n/a	n/a	n/a	ISITrial	Gain
282.228	3.0	0.016	347.835	19.0	1	10.82	5.41	24.265	955.0	4.2	Outcome2	12.1	10.82	0.0	No	2.0	-1.28265383163458	1.262	283.49	n/a	GetAnswer	Loss
283.515	4.0	0.025	349.122	19.0	1	10.82	5.41	24.265	955.0	4.2	Outcome2	12.1	10.82	0.0	No	n/a	-1.28265383163458	n/a	n/a	n/a	ShowChoice	Loss
287.527	1.0	0.012	353.134	19.0	1	10.82	5.41	24.265	955.0	4.2	Outcome2	12.1	10.82	0.0	No	n/a	-1.28265383163458	n/a	n/a	n/a	ShowResult	Loss
288.547	2.0	0.02	354.154	19.0	1	10.82	5.41	24.265	955.0	4.2	Outcome2	12.1	10.82	0.0	No	n/a	-1.28265383163458	n/a	n/a	n/a	ISITrial	Loss
290.57	3.0	0.023	356.177	20.0	1	5.9	1.0	25.0025	955.0	3.6	Outcome2	-3.28	5.9	2.92125	Yes	2.0	9.1845979614949	1.456	292.026	n/a	GetAnswer	Gain
292.041	4.0	0.015	357.648	20.0	1	5.9	1.0	25.0025	955.0	3.6	Outcome2	-3.28	5.9	2.92125	Yes	n/a	9.1845979614949	n/a	n/a	n/a	ShowChoice	Gain
296.053	1.0	0.012	361.66	20.0	1	5.9	1.0	25.0025	955.0	3.6	Outcome2	-3.28	5.9	2.92125	Yes	n/a	9.1845979614949	n/a	n/a	n/a	ShowResult	Gain
297.073	8.0	0.02	362.68	20.0	1	5.9	1.0	25.0025	955.0	3.6	Outcome2	-3.28	5.9	2.92125	Yes	n/a	9.1845979614949	n/a	n/a	n/a	ISITrial	Gain
305.097	2.921	0.024	370.704	20.0	1	5.9	1.0	25.0025	955.0	3.6	Outcome2	-3.28	5.9	2.92125	Yes	n/a	9.1845979614949	n/a	n/a	n/a	TrialHappPreview	Gain
308.039	4.012	0.021	373.646	20.0	1	5.9	1.0	25.0025	955.0	3.6	Outcome2	-3.28	5.9	2.92125	Yes	n/a	9.1845979614949	n/a	n/a	744.0	TrialHappiness	Gain
308.039	2.194	n/a	374.167	20.0	1	5.9	1.0	25.0025	955.0	3.6	Outcome2	-3.28	5.9	2.92125	Yes	n/a	9.1845979614949	n/a	n/a	744.0	TrialHappinessSliderResponse	Gain
312.051	3.685	4.012	377.658	20.0	1	5.9	1.0	25.0025	955.0	3.6	Outcome2	-3.28	5.9	2.92125	Yes	n/a	9.1845979614949	n/a	n/a	n/a	ISIRate	Gain
315.762	3.0	0.026	381.369	21.0	1	0.95	1.0	25.1213	955.0	2.0	Outcome2	2.3	0.95	0.0	No	2.0	-1.35343525858815	1.169	316.931	n/a	GetAnswer	Mixed
316.949	4.0	0.018	382.556	21.0	1	0.95	1.0	25.1213	955.0	2.0	Outcome2	2.3	0.95	0.0	No	n/a	-1.35343525858815	n/a	n/a	n/a	ShowChoice	Mixed
320.961	1.0	0.012	386.568	21.0	1	0.95	1.0	25.1213	955.0	2.0	Outcome2	2.3	0.95	0.0	No	n/a	-1.35343525858815	n/a	n/a	n/a	ShowResult	Mixed
321.981	3.555	0.02	387.588	21.0	1	0.95	1.0	25.1213	955.0	2.0	Outcome2	2.3	0.95	0.0	No	n/a	-1.35343525858815	n/a	n/a	n/a	ISITrial	Mixed
325.558	3.0	0.022	391.165	22.0	1	8.9	-0.44	26.2338	955.0	2.0	Outcome2	-0.89	8.9	3.2195	Yes	2.0	9.78935447338618	1.532	327.09	n/a	GetAnswer	Gain
327.113	4.0	0.023	392.72	22.0	1	8.9	-0.44	26.2338	955.0	2.0	Outcome2	-0.89	8.9	3.2195	Yes	n/a	9.78935447338618	n/a	n/a	n/a	ShowChoice	Gain
331.125	1.0	0.012	396.732	22.0	1	8.9	-0.44	26.2338	955.0	2.0	Outcome2	-0.89	8.9	3.2195	Yes	n/a	9.78935447338618	n/a	n/a	n/a	ShowResult	Gain
332.144	6.793	0.019	397.751	22.0	1	8.9	-0.44	26.2338	955.0	2.0	Outcome2	-0.89	8.9	3.2195	Yes	n/a	9.78935447338618	n/a	n/a	n/a	ISITrial	Gain
338.948	3.22	0.011	404.555	22.0	1	8.9	-0.44	26.2338	955.0	2.0	Outcome2	-0.89	8.9	3.2195	Yes	n/a	9.78935447338618	n/a	n/a	n/a	TrialHappPreview	Gain
342.191	4.012	0.023	407.798	22.0	1	8.9	-0.44	26.2338	955.0	2.0	Outcome2	-0.89	8.9	3.2195	Yes	2{-2}2{-2}2{-2}	9.78935447338618	2.147	344.338	724.0	TrialHappiness	Gain
342.192	1.61	n/a	408.336	22.0	1	8.9	-0.44	26.2338	955.0	2.0	Outcome2	-0.89	8.9	3.2195	Yes	n/a	9.78935447338618	n/a	n/a	724.0	TrialHappinessSliderResponse	Gain
346.203	4.878	4.012	411.81	22.0	1	8.9	-0.44	26.2338	955.0	2.0	Outcome2	-0.89	8.9	3.2195	Yes	n/a	9.78935447338618	n/a	n/a	n/a	ISIRate	Gain
351.101	3.0	0.02	416.708	23.0	1	-3.0	-3.0	25.8588	955.0	1.2	Certain	-8.47	1.9	0.0	No	4.0	10.3680634201585	2.184	353.285	n/a	GetAnswer	Mixed
353.308	4.0	0.023	418.915	23.0	1	-3.0	-3.0	25.8588	955.0	1.2	Certain	-8.47	1.9	0.0	No	n/a	10.3680634201585	n/a	n/a	n/a	ShowChoice	Mixed
357.32	1.0	0.012	422.927	23.0	1	-3.0	-3.0	25.8588	955.0	1.2	Certain	-8.47	1.9	0.0	No	n/a	10.3680634201585	n/a	n/a	n/a	ShowResult	Mixed
358.339	8.0	0.019	423.946	23.0	1	-3.0	-3.0	25.8588	955.0	1.2	Certain	-8.47	1.9	0.0	No	n/a	10.3680634201585	n/a	n/a	n/a	ISITrial	Mixed
366.363	3.0	0.024	431.97	24.0	1	11.7	0.54	27.3213	955.0	3.16	Outcome1	11.7	1.07	3.255	Yes	2.0	10.6296715741789	1.543	367.906	n/a	GetAnswer	Loss
367.918	4.0	0.012	433.525	24.0	1	11.7	0.54	27.3213	955.0	3.16	Outcome1	11.7	1.07	3.255	Yes	n/a	10.6296715741789	n/a	n/a	n/a	ShowChoice	Loss
371.93	1.0	0.012	437.537	24.0	1	11.7	0.54	27.3213	955.0	3.16	Outcome1	11.7	1.07	3.255	Yes	n/a	10.6296715741789	n/a	n/a	n/a	ShowResult	Loss
372.95	2.0	0.02	438.557	24.0	1	11.7	0.54	27.3213	955.0	3.16	Outcome1	11.7	1.07	3.255	Yes	n/a	10.6296715741789	n/a	n/a	n/a	ISITrial	Loss
374.973	3.255	0.023	440.58	24.0	1	11.7	0.54	27.3213	955.0	3.16	Outcome1	11.7	1.07	3.255	Yes	n/a	10.6296715741789	n/a	n/a	n/a	TrialHappPreview	Loss
378.249	4.012	0.021	443.856	24.0	1	11.7	0.54	27.3213	955.0	3.16	Outcome1	11.7	1.07	3.255	Yes	n/a	10.6296715741789	n/a	n/a	776.0	TrialHappiness	Loss
378.25	0.694	n/a	444.155	24.0	1	11.7	0.54	27.3213	955.0	3.16	Outcome1	11.7	1.07	3.255	Yes	n/a	10.6296715741789	n/a	n/a	776.0	TrialHappinessSliderResponse	Loss
382.261	5.02	4.012	447.868	24.0	1	11.7	0.54	27.3213	955.0	3.16	Outcome1	11.7	1.07	3.255	Yes	n/a	10.6296715741789	n/a	n/a	n/a	ISIRate	Loss
387.31	3.0	0.029	452.917	25.0	1	1.1	-4.0	27.4588	955.0	0.52	Outcome2	-8.91	1.1	0.0	No	2.0	10.0079275198188	1.773	389.083	n/a	GetAnswer	Mixed
389.098	4.0	0.015	454.705	25.0	1	1.1	-4.0	27.4588	955.0	0.52	Outcome2	-8.91	1.1	0.0	No	n/a	10.0079275198188	n/a	n/a	n/a	ShowChoice	Mixed
393.11	1.0	0.012	458.717	25.0	1	1.1	-4.0	27.4588	955.0	0.52	Outcome2	-8.91	1.1	0.0	No	n/a	10.0079275198188	n/a	n/a	n/a	ShowResult	Mixed
394.13	3.749	0.02	459.737	25.0	1	1.1	-4.0	27.4588	955.0	0.52	Outcome2	-8.91	1.1	0.0	No	n/a	10.0079275198188	n/a	n/a	n/a	ISITrial	Mixed
397.908	3.0	0.029	463.515	26.0	1	-0.42	0.0	27.4063	955.0	0.4	Outcome1	-0.42	0.9	0.0	No	2.0	-1.32389580973952	2.333	400.241	n/a	GetAnswer	Mixed
400.265	4.0	0.024	465.872	26.0	1	-0.42	0.0	27.4063	955.0	0.4	Outcome1	-0.42	0.9	0.0	No	n/a	-1.32389580973952	n/a	n/a	n/a	ShowChoice	Mixed
404.277	1.0	0.012	469.884	26.0	1	-0.42	0.0	27.4063	955.0	0.4	Outcome1	-0.42	0.9	0.0	No	n/a	-1.32389580973952	n/a	n/a	n/a	ShowResult	Mixed
405.297	7.834	0.02	470.904	26.0	1	-0.42	0.0	27.4063	955.0	0.4	Outcome1	-0.42	0.9	0.0	No	n/a	-1.32389580973952	n/a	n/a	n/a	ISITrial	Mixed
413.154	3.0	0.023	478.761	27.0	1	12.3	0.94	28.9438	955.0	5.0	Outcome2	1.89	12.3	2.54975	Yes	2.0	10.4133635334088	1.813	414.967	n/a	GetAnswer	Loss
414.992	4.0	0.025	480.599	27.0	1	12.3	0.94	28.9438	955.0	5.0	Outcome2	1.89	12.3	2.54975	Yes	n/a	10.4133635334088	n/a	n/a	n/a	ShowChoice	Loss
419.004	1.0	0.012	484.611	27.0	1	12.3	0.94	28.9438	955.0	5.0	Outcome2	1.89	12.3	2.54975	Yes	n/a	10.4133635334088	n/a	n/a	n/a	ShowResult	Loss
420.024	4.225	0.02	485.631	27.0	1	12.3	0.94	28.9438	955.0	5.0	Outcome2	1.89	12.3	2.54975	Yes	n/a	10.4133635334088	n/a	n/a	n/a	ISITrial	Loss
424.27	2.55	0.021	489.877	27.0	1	12.3	0.94	28.9438	955.0	5.0	Outcome2	1.89	12.3	2.54975	Yes	n/a	10.4133635334088	n/a	n/a	n/a	TrialHappPreview	Loss
426.845	4.012	0.025	492.452	27.0	1	12.3	0.94	28.9438	955.0	5.0	Outcome2	1.89	12.3	2.54975	Yes	n/a	10.4133635334088	n/a	n/a	784.0	TrialHappiness	Loss
426.845	0.715	n/a	493.063	27.0	1	12.3	0.94	28.9438	955.0	5.0	Outcome2	1.89	12.3	2.54975	Yes	n/a	10.4133635334088	n/a	n/a	784.0	TrialHappinessSliderResponse	Loss
430.857	2.199	4.012	496.464	27.0	1	12.3	0.94	28.9438	955.0	5.0	Outcome2	1.89	12.3	2.54975	Yes	n/a	10.4133635334088	n/a	n/a	n/a	ISIRate	Loss
453.308	3.111	n/a	519.508	n/a	1	n/a	n/a	n/a	n/a	n/a	n/a	n/a	n/a	n/a	n/a	n/a	n/a	n/a	n/a	740.0	BlockStartHappinessSliderResponse	n/a
-28.418	-0.001	0.024	498.687	n/a	2	n/a	n/a	n/a	n/a	n/a	n/a	n/a	n/a	n/a	n/a	{SPACE}	n/a	16.201	-12.217	n/a	Rest	n/a
-12.203	4.0	0.014	514.902	n/a	2	n/a	n/a	n/a	n/a	n/a	n/a	n/a	n/a	n/a	n/a	n/a	n/a	n/a	n/a	n/a	BlockHappyPreview	n/a
-8.191	3.704	0.012	518.914	n/a	2	n/a	n/a	n/a	n/a	n/a	n/a	n/a	n/a	n/a	n/a	n/a	n/a	n/a	n/a	740.0	BlockStartHappiness	n/a
-2.541	-0.001	0.028	524.564	n/a	2	n/a	n/a	n/a	n/a	n/a	n/a	n/a	n/a	n/a	n/a	5.0	n/a	2.516	-0.025	n/a	ScanWait	n/a
0.0	10.0	0.024	527.105	n/a	2	n/a	n/a	n/a	n/a	n/a	n/a	n/a	n/a	n/a	n/a	n/a	n/a	n/a	n/a	n/a	GetReady	n/a
10.03	3.0	0.03	537.135	28.0	2	-1.0	-1.0	28.8188	70.0	1.5	Certain	-7.29	4.1	0.0	No	4.0	-11.3945578231293	1.968	11.998	n/a	GetAnswer	Mixed
12.02	4.0	0.022	539.125	28.0	2	-1.0	-1.0	28.8188	70.0	1.5	Certain	-7.29	4.1	0.0	No	n/a	-11.3945578231293	n/a	n/a	n/a	ShowChoice	Mixed
16.048	1.0	0.028	543.153	28.0	2	-1.0	-1.0	28.8188	70.0	1.5	Certain	-7.29	4.1	0.0	No	n/a	-11.3945578231293	n/a	n/a	n/a	ShowResult	Mixed
17.068	3.575	0.02	544.173	28.0	2	-1.0	-1.0	28.8188	70.0	1.5	Certain	-7.29	4.1	0.0	No	n/a	-11.3945578231293	n/a	n/a	n/a	ISITrial	Mixed
20.662	3.0	0.019	547.767	29.0	2	1.15	0.57	28.9626	70.0	2.48	Outcome2	13.3	1.15	3.529	Yes	2.0	-12.1541950113379	1.619	22.281	n/a	GetAnswer	Loss
22.3	4.0	0.019	549.405	29.0	2	1.15	0.57	28.9626	70.0	2.48	Outcome2	13.3	1.15	3.529	Yes	n/a	-12.1541950113379	n/a	n/a	n/a	ShowChoice	Loss
26.312	1.0	0.012	553.417	29.0	2	1.15	0.57	28.9626	70.0	2.48	Outcome2	13.3	1.15	3.529	Yes	n/a	-12.1541950113379	n/a	n/a	n/a	ShowResult	Loss
27.332	3.955	0.02	554.437	29.0	2	1.15	0.57	28.9626	70.0	2.48	Outcome2	13.3	1.15	3.529	Yes	n/a	-12.1541950113379	n/a	n/a	n/a	ISITrial	Loss
31.311	3.529	0.024	558.416	29.0	2	1.15	0.57	28.9626	70.0	2.48	Outcome2	13.3	1.15	3.529	Yes	n/a	-12.1541950113379	n/a	n/a	n/a	TrialHappPreview	Loss
34.871	4.029	0.031	561.976	29.0	2	1.15	0.57	28.9626	70.0	2.48	Outcome2	13.3	1.15	3.529	Yes	n/a	-12.1541950113379	n/a	n/a	688.0	TrialHappiness	Loss
34.872	0.515	n/a	562.354	29.0	2	1.15	0.57	28.9626	70.0	2.48	Outcome2	13.3	1.15	3.529	Yes	n/a	-12.1541950113379	n/a	n/a	688.0	TrialHappinessSliderResponse	Loss
38.9	6.116	4.029	566.005	29.0	2	1.15	0.57	28.9626	70.0	2.48	Outcome2	13.3	1.15	3.529	Yes	n/a	-12.1541950113379	n/a	n/a	n/a	ISIRate	Loss
45.035	3.0	0.019	572.14	30.0	2	1.32	0.0	29.1276	70.0	2.48	Outcome2	-1.32	1.32	0.0	No	2.0	2.63737717309146	2.001	47.036	n/a	GetAnswer	Gain
47.058	4.0	0.022	574.163	30.0	2	1.32	0.0	29.1276	70.0	2.48	Outcome2	-1.32	1.32	0.0	No	n/a	2.63737717309146	n/a	n/a	n/a	ShowChoice	Gain
51.086	1.0	0.028	578.191	30.0	2	1.32	0.0	29.1276	70.0	2.48	Outcome2	-1.32	1.32	0.0	No	n/a	2.63737717309146	n/a	n/a	n/a	ShowResult	Gain
52.106	4.453	0.02	579.211	30.0	2	1.32	0.0	29.1276	70.0	2.48	Outcome2	-1.32	1.32	0.0	No	n/a	2.63737717309146	n/a	n/a	n/a	ISITrial	Gain
56.586	3.0	0.027	583.691	31.0	2	0.0	0.0	29.1276	70.0	1.68	Certain	6.5	-6.23	2.50325	Yes	4.0	-12.7301587301587	2.013	58.599	n/a	GetAnswer	Gain
58.626	4.0	0.027	585.731	31.0	2	0.0	0.0	29.1276	70.0	1.68	Certain	6.5	-6.23	2.50325	Yes	n/a	-12.7301587301587	n/a	n/a	n/a	ShowChoice	Gain
62.654	1.0	0.028	589.759	31.0	2	0.0	0.0	29.1276	70.0	1.68	Certain	6.5	-6.23	2.50325	Yes	n/a	-12.7301587301587	n/a	n/a	n/a	ShowResult	Gain
63.674	4.786	0.02	590.779	31.0	2	0.0	0.0	29.1276	70.0	1.68	Certain	6.5	-6.23	2.50325	Yes	n/a	-12.7301587301587	n/a	n/a	n/a	ISITrial	Gain
68.489	2.503	0.029	595.594	31.0	2	0.0	0.0	29.1276	70.0	1.68	Certain	6.5	-6.23	2.50325	Yes	n/a	-12.7301587301587	n/a	n/a	n/a	TrialHappPreview	Gain
71.013	4.029	0.021	598.118	31.0	2	0.0	0.0	29.1276	70.0	1.68	Certain	6.5	-6.23	2.50325	Yes	n/a	-12.7301587301587	n/a	n/a	696.0	TrialHappiness	Gain
71.013	1.94	n/a	598.562	31.0	2	0.0	0.0	29.1276	70.0	1.68	Certain	6.5	-6.23	2.50325	Yes	n/a	-12.7301587301587	n/a	n/a	696.0	TrialHappinessSliderResponse	Gain
75.042	2.013	4.029	602.147	31.0	2	0.0	0.0	29.1276	70.0	1.68	Certain	6.5	-6.23	2.50325	Yes	n/a	-12.7301587301587	n/a	n/a	n/a	ISIRate	Gain
77.081	3.0	0.026	604.186	32.0	2	-6.0	-6.0	28.3776	70.0	0.3	Certain	-12.87	0.7	0.0	No	4.0	-13.5668934240363	2.801	79.882	n/a	GetAnswer	Mixed
79.906	4.0	0.024	607.011	32.0	2	-6.0	-6.0	28.3776	70.0	0.3	Certain	-12.87	0.7	0.0	No	n/a	-13.5668934240363	n/a	n/a	n/a	ShowChoice	Mixed
83.935	1.0	0.029	611.04	32.0	2	-6.0	-6.0	28.3776	70.0	0.3	Certain	-12.87	0.7	0.0	No	n/a	-13.5668934240363	n/a	n/a	n/a	ShowResult	Mixed
84.955	2.0	0.02	612.06	32.0	2	-6.0	-6.0	28.3776	70.0	0.3	Certain	-12.87	0.7	0.0	No	n/a	-13.5668934240363	n/a	n/a	n/a	ISITrial	Mixed
86.977	3.0	0.022	614.082	33.0	2	-1.0	-1.0	28.2526	70.0	5.0	Certain	6.3	-7.98	0.0	No	4.0	-14.2766439909297	2.432	89.409	n/a	GetAnswer	Gain
89.435	4.0	0.026	616.54	33.0	2	-1.0	-1.0	28.2526	70.0	5.0	Certain	6.3	-7.98	0.0	No	n/a	-14.2766439909297	n/a	n/a	n/a	ShowChoice	Gain
93.463	1.0	0.028	620.568	33.0	2	-1.0	-1.0	28.2526	70.0	5.0	Certain	6.3	-7.98	0.0	No	n/a	-14.2766439909297	n/a	n/a	n/a	ShowResult	Gain
94.483	5.099	0.02	621.588	33.0	2	-1.0	-1.0	28.2526	70.0	5.0	Certain	6.3	-7.98	0.0	No	n/a	-14.2766439909297	n/a	n/a	n/a	ISITrial	Gain
99.615	3.0	0.033	626.72	34.0	2	-3.0	-3.0	27.8776	70.0	1.82	Certain	4.7	-10.29	3.2315	Yes	4.0	-14.9863945578231	1.617	101.232	n/a	GetAnswer	Gain
101.253	4.0	0.021	628.358	34.0	2	-3.0	-3.0	27.8776	70.0	1.82	Certain	4.7	-10.29	3.2315	Yes	n/a	-14.9863945578231	n/a	n/a	n/a	ShowChoice	Gain
105.282	1.0	0.029	632.387	34.0	2	-3.0	-3.0	27.8776	70.0	1.82	Certain	4.7	-10.29	3.2315	Yes	n/a	-14.9863945578231	n/a	n/a	n/a	ShowResult	Gain
106.302	4.784	0.02	633.407	34.0	2	-3.0	-3.0	27.8776	70.0	1.82	Certain	4.7	-10.29	3.2315	Yes	n/a	-14.9863945578231	n/a	n/a	n/a	ISITrial	Gain
111.099	3.232	0.013	638.204	34.0	2	-3.0	-3.0	27.8776	70.0	1.82	Certain	4.7	-10.29	3.2315	Yes	n/a	-14.9863945578231	n/a	n/a	n/a	TrialHappPreview	Gain
114.359	4.029	0.028	641.464	34.0	2	-3.0	-3.0	27.8776	70.0	1.82	Certain	4.7	-10.29	3.2315	Yes	2{-2}2{-2}2{-2}2{-2}2{-2}	-14.9863945578231	1.527	115.886	632.0	TrialHappiness	Gain
114.36	1.036	n/a	641.956	34.0	2	-3.0	-3.0	27.8776	70.0	1.82	Certain	4.7	-10.29	3.2315	Yes	n/a	-14.9863945578231	n/a	n/a	632.0	TrialHappinessSliderResponse	Gain
118.388	4.926	4.029	645.493	34.0	2	-3.0	-3.0	27.8776	70.0	1.82	Certain	4.7	-10.29	3.2315	Yes	n/a	-14.9863945578231	n/a	n/a	n/a	ISIRate	Gain
123.336	3.0	0.022	650.441	35.0	2	-9.11	-2.0	26.7388	70.0	2.8	Outcome2	5.5	-9.11	0.0	No	2.0	-14.6077097505669	1.534	124.87	n/a	GetAnswer	Gain
124.891	4.0	0.021	651.996	35.0	2	-9.11	-2.0	26.7388	70.0	2.8	Outcome2	5.5	-9.11	0.0	No	n/a	-14.6077097505669	n/a	n/a	n/a	ShowChoice	Gain
128.919	1.0	0.028	656.024	35.0	2	-9.11	-2.0	26.7388	70.0	2.8	Outcome2	5.5	-9.11	0.0	No	n/a	-14.6077097505669	n/a	n/a	n/a	ShowResult	Gain
129.939	2.098	0.02	657.044	35.0	2	-9.11	-2.0	26.7388	70.0	2.8	Outcome2	5.5	-9.11	0.0	No	n/a	-14.6077097505669	n/a	n/a	n/a	ISITrial	Gain
132.062	3.0	0.025	659.167	36.0	2	-4.0	-4.0	26.2388	70.0	0.66	Certain	-11.94	3.3	3.33575	Yes	4.0	-15.2448979591837	1.475	133.537	n/a	GetAnswer	Mixed
133.55	4.0	0.013	660.655	36.0	2	-4.0	-4.0	26.2388	70.0	0.66	Certain	-11.94	3.3	3.33575	Yes	n/a	-15.2448979591837	n/a	n/a	n/a	ShowChoice	Mixed
137.562	1.0	0.012	664.667	36.0	2	-4.0	-4.0	26.2388	70.0	0.66	Certain	-11.94	3.3	3.33575	Yes	n/a	-15.2448979591837	n/a	n/a	n/a	ShowResult	Mixed
138.582	5.156	0.02	665.687	36.0	2	-4.0	-4.0	26.2388	70.0	0.66	Certain	-11.94	3.3	3.33575	Yes	n/a	-15.2448979591837	n/a	n/a	n/a	ISITrial	Mixed
143.764	3.336	0.026	670.869	36.0	2	-4.0	-4.0	26.2388	70.0	0.66	Certain	-11.94	3.3	3.33575	Yes	n/a	-15.2448979591837	n/a	n/a	n/a	TrialHappPreview	Mixed
147.124	4.029	0.024	674.229	36.0	2	-4.0	-4.0	26.2388	70.0	0.66	Certain	-11.94	3.3	3.33575	Yes	2{-2}4{-4}4{-4}4{-4}4{-4}4{-4}4{-4}	-15.2448979591837	3.069	150.193	620.0	TrialHappiness	Mixed
147.125	2.534	n/a	674.765	36.0	2	-4.0	-4.0	26.2388	70.0	0.66	Certain	-11.94	3.3	3.33575	Yes	n/a	-15.2448979591837	n/a	n/a	620.0	TrialHappinessSliderResponse	Mixed
151.153	5.343	4.029	678.258	36.0	2	-4.0	-4.0	26.2388	70.0	0.66	Certain	-11.94	3.3	3.33575	Yes	n/a	-15.2448979591837	n/a	n/a	n/a	ISIRate	Mixed
156.519	3.0	0.023	683.624	37.0	2	-6.58	1.0	25.4163	70.0	2.22	Outcome1	-6.58	9.1	0.0	No	2.0	-15.6780045351474	0.873	157.392	n/a	GetAnswer	Gain
157.421	4.0	0.029	684.526	37.0	2	-6.58	1.0	25.4163	70.0	2.22	Outcome1	-6.58	9.1	0.0	No	n/a	-15.6780045351474	n/a	n/a	n/a	ShowChoice	Gain
161.433	1.0	0.012	688.538	37.0	2	-6.58	1.0	25.4163	70.0	2.22	Outcome1	-6.58	9.1	0.0	No	n/a	-15.6780045351474	n/a	n/a	n/a	ShowResult	Gain
162.453	3.598	0.02	689.558	37.0	2	-6.58	1.0	25.4163	70.0	2.22	Outcome1	-6.58	9.1	0.0	No	n/a	-15.6780045351474	n/a	n/a	n/a	ISITrial	Gain
166.081	3.0	0.03	693.186	38.0	2	-8.0	-8.0	24.4163	70.0	2.0	Certain	-16.0	0.3	0.0	No	4.0	-16.3015873015873	1.685	167.766	n/a	GetAnswer	Mixed
167.786	4.0	0.02	694.891	38.0	2	-8.0	-8.0	24.4163	70.0	2.0	Certain	-16.0	0.3	0.0	No	n/a	-16.3015873015873	n/a	n/a	n/a	ShowChoice	Mixed
171.798	1.0	0.012	698.903	38.0	2	-8.0	-8.0	24.4163	70.0	2.0	Certain	-16.0	0.3	0.0	No	n/a	-16.3015873015873	n/a	n/a	n/a	ShowResult	Mixed
172.818	4.787	0.02	699.923	38.0	2	-8.0	-8.0	24.4163	70.0	2.0	Certain	-16.0	0.3	0.0	No	n/a	-16.3015873015873	n/a	n/a	n/a	ISITrial	Mixed
177.632	3.0	0.027	704.737	39.0	2	3.28	2.0	24.8263	70.0	2.22	Outcome2	0.41	3.28	2.86425	Yes	2.0	2.86545729402872	1.494	179.126	n/a	GetAnswer	Loss
179.153	4.0	0.027	706.258	39.0	2	3.28	2.0	24.8263	70.0	2.22	Outcome2	0.41	3.28	2.86425	Yes	n/a	2.86545729402872	n/a	n/a	n/a	ShowChoice	Loss
183.165	1.0	0.012	710.27	39.0	2	3.28	2.0	24.8263	70.0	2.22	Outcome2	0.41	3.28	2.86425	Yes	n/a	2.86545729402872	n/a	n/a	n/a	ShowResult	Loss
184.185	2.348	0.02	711.29	39.0	2	3.28	2.0	24.8263	70.0	2.22	Outcome2	0.41	3.28	2.86425	Yes	n/a	2.86545729402872	n/a	n/a	n/a	ISITrial	Loss
186.559	2.864	0.026	713.664	39.0	2	3.28	2.0	24.8263	70.0	2.22	Outcome2	0.41	3.28	2.86425	Yes	n/a	2.86545729402872	n/a	n/a	n/a	TrialHappPreview	Loss
189.451	4.028	0.028	716.556	39.0	2	3.28	2.0	24.8263	70.0	2.22	Outcome2	0.41	3.28	2.86425	Yes	n/a	2.86545729402872	n/a	n/a	656.0	TrialHappiness	Loss
189.451	1.043	n/a	716.824	39.0	2	3.28	2.0	24.8263	70.0	2.22	Outcome2	0.41	3.28	2.86425	Yes	n/a	2.86545729402872	n/a	n/a	656.0	TrialHappinessSliderResponse	Loss
193.479	3.457	4.028	720.584	39.0	2	3.28	2.0	24.8263	70.0	2.22	Outcome2	0.41	3.28	2.86425	Yes	n/a	2.86545729402872	n/a	n/a	n/a	ISIRate	Loss
196.956	3.0	0.02	724.061	40.0	2	-1.0	-1.0	24.7013	70.0	3.16	Certain	-10.46	7.7	0.0	No	4.0	-18.1609977324263	1.761	198.717	n/a	GetAnswer	Gain
198.745	4.0	0.028	725.85	40.0	2	-1.0	-1.0	24.7013	70.0	3.16	Certain	-10.46	7.7	0.0	No	n/a	-18.1609977324263	n/a	n/a	n/a	ShowChoice	Gain
202.774	1.0	0.029	729.879	40.0	2	-1.0	-1.0	24.7013	70.0	3.16	Certain	-10.46	7.7	0.0	No	n/a	-18.1609977324263	n/a	n/a	n/a	ShowResult	Gain
203.794	3.158	0.02	730.899	40.0	2	-1.0	-1.0	24.7013	70.0	3.16	Certain	-10.46	7.7	0.0	No	n/a	-18.1609977324263	n/a	n/a	n/a	ISITrial	Gain
206.986	3.0	0.034	734.091	41.0	2	-19.73	-10.0	22.2351	70.0	0.52	Outcome2	-0.9	-19.73	4.0	Yes	2.0	-18.8253968253968	2.685	209.671	n/a	GetAnswer	Mixed
209.695	4.0	0.024	736.8	41.0	2	-19.73	-10.0	22.2351	70.0	0.52	Outcome2	-0.9	-19.73	4.0	Yes	n/a	-18.8253968253968	n/a	n/a	n/a	ShowChoice	Mixed
213.723	1.0	0.028	740.828	41.0	2	-19.73	-10.0	22.2351	70.0	0.52	Outcome2	-0.9	-19.73	4.0	Yes	n/a	-18.8253968253968	n/a	n/a	n/a	ShowResult	Mixed
214.743	4.506	0.02	741.848	41.0	2	-19.73	-10.0	22.2351	70.0	0.52	Outcome2	-0.9	-19.73	4.0	Yes	n/a	-18.8253968253968	n/a	n/a	n/a	ISITrial	Mixed
219.273	4.0	0.024	746.378	41.0	2	-19.73	-10.0	22.2351	70.0	0.52	Outcome2	-0.9	-19.73	4.0	Yes	n/a	-18.8253968253968	n/a	n/a	n/a	TrialHappPreview	Mixed
223.302	4.029	0.029	750.407	41.0	2	-19.73	-10.0	22.2351	70.0	0.52	Outcome2	-0.9	-19.73	4.0	Yes	2{-2}	-18.8253968253968	0.776	224.078	568.0	TrialHappiness	Mixed
223.303	0.269	n/a	750.915	41.0	2	-19.73	-10.0	22.2351	70.0	0.52	Outcome2	-0.9	-19.73	4.0	Yes	n/a	-18.8253968253968	n/a	n/a	568.0	TrialHappinessSliderResponse	Mixed
227.331	8.0	4.029	754.436	41.0	2	-19.73	-10.0	22.2351	70.0	0.52	Outcome2	-0.9	-19.73	4.0	Yes	n/a	-18.8253968253968	n/a	n/a	n/a	ISIRate	Mixed
235.355	3.0	0.024	762.46	42.0	2	-4.0	-4.0	21.7351	70.0	2.0	Certain	4.3	-13.69	0.0	No	4.0	-17.9931972789116	1.993	237.348	n/a	GetAnswer	Mixed
237.377	4.0	0.029	764.482	42.0	2	-4.0	-4.0	21.7351	70.0	2.0	Certain	4.3	-13.69	0.0	No	n/a	-17.9931972789116	n/a	n/a	n/a	ShowChoice	Mixed
241.389	1.0	0.012	768.494	42.0	2	-4.0	-4.0	21.7351	70.0	2.0	Certain	4.3	-13.69	0.0	No	n/a	-17.9931972789116	n/a	n/a	n/a	ShowResult	Mixed
242.409	6.248	0.02	769.514	42.0	2	-4.0	-4.0	21.7351	70.0	2.0	Certain	4.3	-13.69	0.0	No	n/a	-17.9931972789116	n/a	n/a	n/a	ISITrial	Mixed
248.678	3.0	0.021	775.783	43.0	2	-13.66	-4.0	20.0276	70.0	2.0	Outcome1	-13.66	4.9	2.77575	Yes	2.0	-18.557823129251695	1.613	250.291	n/a	GetAnswer	Gain
250.316	4.0	0.024	777.421	43.0	2	-13.66	-4.0	20.0276	70.0	2.0	Outcome1	-13.66	4.9	2.77575	Yes	n/a	-18.557823129251695	n/a	n/a	n/a	ShowChoice	Gain
254.328	1.0	0.012	781.433	43.0	2	-13.66	-4.0	20.0276	70.0	2.0	Outcome1	-13.66	4.9	2.77575	Yes	n/a	-18.557823129251695	n/a	n/a	n/a	ShowResult	Gain
255.348	4.596	0.02	782.453	43.0	2	-13.66	-4.0	20.0276	70.0	2.0	Outcome1	-13.66	4.9	2.77575	Yes	n/a	-18.557823129251695	n/a	n/a	n/a	ISITrial	Gain
259.962	2.776	0.018	787.067	43.0	2	-13.66	-4.0	20.0276	70.0	2.0	Outcome1	-13.66	4.9	2.77575	Yes	n/a	-18.557823129251695	n/a	n/a	n/a	TrialHappPreview	Gain
262.753	4.012	0.015	789.858	43.0	2	-13.66	-4.0	20.0276	70.0	2.0	Outcome1	-13.66	4.9	2.77575	Yes	n/a	-18.557823129251695	n/a	n/a	552.0	TrialHappiness	Gain
262.754	2.185	n/a	790.624	43.0	2	-13.66	-4.0	20.0276	70.0	2.0	Outcome1	-13.66	4.9	2.77575	Yes	n/a	-18.557823129251695	n/a	n/a	552.0	TrialHappinessSliderResponse	Gain
266.765	3.103	4.012	793.87	43.0	2	-13.66	-4.0	20.0276	70.0	2.0	Outcome1	-13.66	4.9	2.77575	Yes	n/a	-18.557823129251695	n/a	n/a	n/a	ISIRate	Gain
269.891	3.0	0.023	796.996	44.0	2	0.0	0.0	20.0276	70.0	3.6	Certain	9.9	-8.95	0.0	No	4.0	-18.8503401360544	2.877	272.768	n/a	GetAnswer	Gain
272.783	4.0	0.015	799.888	44.0	2	0.0	0.0	20.0276	70.0	3.6	Certain	9.9	-8.95	0.0	No	n/a	-18.8503401360544	n/a	n/a	n/a	ShowChoice	Gain
276.795	1.0	0.012	803.9	44.0	2	0.0	0.0	20.0276	70.0	3.6	Certain	9.9	-8.95	0.0	No	n/a	-18.8503401360544	n/a	n/a	n/a	ShowResult	Gain
277.815	2.42	0.02	804.92	44.0	2	0.0	0.0	20.0276	70.0	3.6	Certain	9.9	-8.95	0.0	No	n/a	-18.8503401360544	n/a	n/a	n/a	ISITrial	Gain
280.256	3.0	0.021	807.361	45.0	2	-11.0	-11.0	18.6526	70.0	0.4	Certain	-20.5	-1.1	0.0	No	4.0	-19.3968253968254	2.522	282.778	n/a	GetAnswer	Mixed
282.797	4.0	0.019	809.902	45.0	2	-11.0	-11.0	18.6526	70.0	0.4	Certain	-20.5	-1.1	0.0	No	n/a	-19.3968253968254	n/a	n/a	n/a	ShowChoice	Mixed
286.809	1.0	0.012	813.914	45.0	2	-11.0	-11.0	18.6526	70.0	0.4	Certain	-20.5	-1.1	0.0	No	n/a	-19.3968253968254	n/a	n/a	n/a	ShowResult	Mixed
287.828	3.144	0.019	814.933	45.0	2	-11.0	-11.0	18.6526	70.0	0.4	Certain	-20.5	-1.1	0.0	No	n/a	-19.3968253968254	n/a	n/a	n/a	ISITrial	Mixed
290.988	3.0	0.016	818.093	46.0	2	1.78	0.0	18.8751	70.0	2.22	Outcome2	-1.16	1.78	3.84125	Yes	2.0	2.93707482993197	1.188	292.176	n/a	GetAnswer	Gain
292.192	4.0	0.016	819.297	46.0	2	1.78	0.0	18.8751	70.0	2.22	Outcome2	-1.16	1.78	3.84125	Yes	n/a	2.93707482993197	n/a	n/a	n/a	ShowChoice	Gain
296.204	1.0	0.012	823.309	46.0	2	1.78	0.0	18.8751	70.0	2.22	Outcome2	-1.16	1.78	3.84125	Yes	n/a	2.93707482993197	n/a	n/a	n/a	ShowResult	Gain
297.223	2.246	0.019	824.328	46.0	2	1.78	0.0	18.8751	70.0	2.22	Outcome2	-1.16	1.78	3.84125	Yes	n/a	2.93707482993197	n/a	n/a	n/a	ISITrial	Gain
299.48	3.841	0.011	826.585	46.0	2	1.78	0.0	18.8751	70.0	2.22	Outcome2	-1.16	1.78	3.84125	Yes	n/a	2.93707482993197	n/a	n/a	n/a	TrialHappPreview	Gain
303.342	4.012	0.021	830.447	46.0	2	1.78	0.0	18.8751	70.0	2.22	Outcome2	-1.16	1.78	3.84125	Yes	n/a	2.93707482993197	n/a	n/a	656.0	TrialHappiness	Gain
303.342	2.61	n/a	830.955	46.0	2	1.78	0.0	18.8751	70.0	2.22	Outcome2	-1.16	1.78	3.84125	Yes	n/a	2.93707482993197	n/a	n/a	656.0	TrialHappinessSliderResponse	Gain
307.354	7.365	4.012	834.459	46.0	2	1.78	0.0	18.8751	70.0	2.22	Outcome2	-1.16	1.78	3.84125	Yes	n/a	2.93707482993197	n/a	n/a	n/a	ISIRate	Gain
314.742	3.0	0.023	841.847	47.0	2	-16.16	-5.0	16.8551	70.0	4.2	Outcome1	-16.16	6.1	0.0	No	2.0	-22.258503401360503	2.129	316.871	n/a	GetAnswer	Gain
316.899	4.0	0.028	844.004	47.0	2	-16.16	-5.0	16.8551	70.0	4.2	Outcome1	-16.16	6.1	0.0	No	n/a	-22.258503401360503	n/a	n/a	n/a	ShowChoice	Gain
320.911	1.0	0.012	848.016	47.0	2	-16.16	-5.0	16.8551	70.0	4.2	Outcome1	-16.16	6.1	0.0	No	n/a	-22.258503401360503	n/a	n/a	n/a	ShowResult	Gain
321.931	2.0	0.02	849.036	47.0	2	-16.16	-5.0	16.8551	70.0	4.2	Outcome1	-16.16	6.1	0.0	No	n/a	-22.258503401360503	n/a	n/a	n/a	ISITrial	Gain
323.953	3.0	0.022	851.058	48.0	2	2.0	2.0	17.1051	70.0	3.16	Certain	13.7	-9.22	2.83175	Yes	4.0	-22.9229024943311	1.948	325.901	n/a	GetAnswer	Loss
325.926	4.0	0.025	853.031	48.0	2	2.0	2.0	17.1051	70.0	3.16	Certain	13.7	-9.22	2.83175	Yes	n/a	-22.9229024943311	n/a	n/a	n/a	ShowChoice	Loss
329.938	1.0	0.012	857.043	48.0	2	2.0	2.0	17.1051	70.0	3.16	Certain	13.7	-9.22	2.83175	Yes	n/a	-22.9229024943311	n/a	n/a	n/a	ShowResult	Loss
330.958	3.692	0.02	858.063	48.0	2	2.0	2.0	17.1051	70.0	3.16	Certain	13.7	-9.22	2.83175	Yes	n/a	-22.9229024943311	n/a	n/a	n/a	ISITrial	Loss
334.669	2.832	0.019	861.774	48.0	2	2.0	2.0	17.1051	70.0	3.16	Certain	13.7	-9.22	2.83175	Yes	n/a	-22.9229024943311	n/a	n/a	n/a	TrialHappPreview	Loss
337.527	4.012	0.026	864.632	48.0	2	2.0	2.0	17.1051	70.0	3.16	Certain	13.7	-9.22	2.83175	Yes	n/a	-22.9229024943311	n/a	n/a	628.0	TrialHappiness	Loss
337.528	1.649	n/a	865.051	48.0	2	2.0	2.0	17.1051	70.0	3.16	Certain	13.7	-9.22	2.83175	Yes	n/a	-22.9229024943311	n/a	n/a	628.0	TrialHappinessSliderResponse	Loss
341.539	3.327	4.012	868.644	48.0	2	2.0	2.0	17.1051	70.0	3.16	Certain	13.7	-9.22	2.83175	Yes	n/a	-22.9229024943311	n/a	n/a	n/a	ISIRate	Loss
344.883	3.0	0.017	871.988	49.0	2	0.32	-1.0	17.1451	70.0	0.66	Outcome1	0.32	-3.08	0.0	No	2.0	3.4021164021164	2.372	347.255	n/a	GetAnswer	Mixed
347.273	4.0	0.018	874.378	49.0	2	0.32	-1.0	17.1451	70.0	0.66	Outcome1	0.32	-3.08	0.0	No	n/a	3.4021164021164	n/a	n/a	n/a	ShowChoice	Mixed
351.285	1.0	0.012	878.39	49.0	2	0.32	-1.0	17.1451	70.0	0.66	Outcome1	0.32	-3.08	0.0	No	n/a	3.4021164021164	n/a	n/a	n/a	ShowResult	Mixed
352.305	8.0	0.02	879.41	49.0	2	0.32	-1.0	17.1451	70.0	0.66	Outcome1	0.32	-3.08	0.0	No	n/a	3.4021164021164	n/a	n/a	n/a	ISITrial	Mixed
360.329	3.0	0.024	887.434	50.0	2	-9.0	-9.0	16.0201	70.0	0.2	Certain	2.5	-21.24	3.54725	Yes	4.0	-23.7437641723356	1.649	361.978	n/a	GetAnswer	Mixed
362.0	4.0	0.022	889.105	50.0	2	-9.0	-9.0	16.0201	70.0	0.2	Certain	2.5	-21.24	3.54725	Yes	n/a	-23.7437641723356	n/a	n/a	n/a	ShowChoice	Mixed
366.012	1.0	0.012	893.117	50.0	2	-9.0	-9.0	16.0201	70.0	0.2	Certain	2.5	-21.24	3.54725	Yes	n/a	-23.7437641723356	n/a	n/a	n/a	ShowResult	Mixed
367.032	7.537	0.02	894.137	50.0	2	-9.0	-9.0	16.0201	70.0	0.2	Certain	2.5	-21.24	3.54725	Yes	n/a	-23.7437641723356	n/a	n/a	n/a	ISITrial	Mixed
374.588	3.547	0.019	901.693	50.0	2	-9.0	-9.0	16.0201	70.0	0.2	Certain	2.5	-21.24	3.54725	Yes	n/a	-23.7437641723356	n/a	n/a	n/a	TrialHappPreview	Mixed
378.166	4.012	0.031	905.271	50.0	2	-9.0	-9.0	16.0201	70.0	0.2	Certain	2.5	-21.24	3.54725	Yes	2{-2}2{-2}2{-2}2{-2}4{-4}	-23.7437641723356	2.398	380.564	588.0	TrialHappiness	Mixed
378.166	1.77	n/a	905.899	50.0	2	-9.0	-9.0	16.0201	70.0	0.2	Certain	2.5	-21.24	3.54725	Yes	n/a	-23.7437641723356	n/a	n/a	588.0	TrialHappinessSliderResponse	Mixed
382.178	6.189	4.012	909.283	50.0	2	-9.0	-9.0	16.0201	70.0	0.2	Certain	2.5	-21.24	3.54725	Yes	n/a	-23.7437641723356	n/a	n/a	n/a	ISIRate	Mixed
388.396	3.0	0.029	915.501	51.0	2	-14.2	-2.0	14.2451	70.0	2.8	Outcome1	-14.2	9.5	0.0	No	2.0	-23.6961451247166	1.381	389.777	n/a	GetAnswer	Gain
389.8	4.0	0.023	916.905	51.0	2	-14.2	-2.0	14.2451	70.0	2.8	Outcome1	-14.2	9.5	0.0	No	n/a	-23.6961451247166	n/a	n/a	n/a	ShowChoice	Gain
393.812	1.0	0.012	920.917	51.0	2	-14.2	-2.0	14.2451	70.0	2.8	Outcome1	-14.2	9.5	0.0	No	n/a	-23.6961451247166	n/a	n/a	n/a	ShowResult	Gain
394.832	5.508	0.02	921.937	51.0	2	-14.2	-2.0	14.2451	70.0	2.8	Outcome1	-14.2	9.5	0.0	No	n/a	-23.6961451247166	n/a	n/a	n/a	ISITrial	Gain
400.365	3.0	0.025	927.47	52.0	2	1.98	0.0	14.4926	70.0	3.6	Outcome2	-1.41	1.98	0.0	No	2.0	3.3939909297052204	1.728	402.093	n/a	GetAnswer	Gain
402.121	4.0	0.027	929.226	52.0	2	1.98	0.0	14.4926	70.0	3.6	Outcome2	-1.41	1.98	0.0	No	n/a	3.3939909297052204	n/a	n/a	n/a	ShowChoice	Gain
406.133	1.0	0.012	933.238	52.0	2	1.98	0.0	14.4926	70.0	3.6	Outcome2	-1.41	1.98	0.0	No	n/a	3.3939909297052204	n/a	n/a	n/a	ShowResult	Gain
407.152	5.913	0.019	934.257	52.0	2	1.98	0.0	14.4926	70.0	3.6	Outcome2	-1.41	1.98	0.0	No	n/a	3.3939909297052204	n/a	n/a	n/a	ISITrial	Gain
413.087	3.0	0.022	940.192	53.0	2	0.72	-1.0	14.5826	70.0	0.4	Outcome2	-2.72	0.72	2.99675	Yes	2.0	3.4429327286470097	2.132	415.219	n/a	GetAnswer	Mixed
415.243	4.0	0.024	942.348	53.0	2	0.72	-1.0	14.5826	70.0	0.4	Outcome2	-2.72	0.72	2.99675	Yes	n/a	3.4429327286470097	n/a	n/a	n/a	ShowChoice	Mixed
419.255	1.0	0.012	946.36	53.0	2	0.72	-1.0	14.5826	70.0	0.4	Outcome2	-2.72	0.72	2.99675	Yes	n/a	3.4429327286470097	n/a	n/a	n/a	ShowResult	Mixed
420.275	3.66	0.02	947.38	53.0	2	0.72	-1.0	14.5826	70.0	0.4	Outcome2	-2.72	0.72	2.99675	Yes	n/a	3.4429327286470097	n/a	n/a	n/a	ISITrial	Mixed
423.953	2.997	0.018	951.058	53.0	2	0.72	-1.0	14.5826	70.0	0.4	Outcome2	-2.72	0.72	2.99675	Yes	n/a	3.4429327286470097	n/a	n/a	n/a	TrialHappPreview	Mixed
426.978	4.012	0.028	954.083	53.0	2	0.72	-1.0	14.5826	70.0	0.4	Outcome2	-2.72	0.72	2.99675	Yes	n/a	3.4429327286470097	n/a	n/a	600.0	TrialHappiness	Mixed
426.979	1.526	n/a	954.236	53.0	2	0.72	-1.0	14.5826	70.0	0.4	Outcome2	-2.72	0.72	2.99675	Yes	n/a	3.4429327286470097	n/a	n/a	600.0	TrialHappinessSliderResponse	Mixed
430.99	3.987	4.012	958.095	53.0	2	0.72	-1.0	14.5826	70.0	0.4	Outcome2	-2.72	0.72	2.99675	Yes	n/a	3.4429327286470097	n/a	n/a	n/a	ISIRate	Mixed
435.002	3.0	0.025	962.107	54.0	2	-26.16	-13.0	11.3126	70.0	0.82	Outcome1	-26.16	-0.5	0.0	No	2.0	-25.6621315192744	2.835	437.837	n/a	GetAnswer	Mixed
437.861	4.0	0.024	964.966	54.0	2	-26.16	-13.0	11.3126	70.0	0.82	Outcome1	-26.16	-0.5	0.0	No	n/a	-25.6621315192744	n/a	n/a	n/a	ShowChoice	Mixed
441.873	1.0	0.012	968.978	54.0	2	-26.16	-13.0	11.3126	70.0	0.82	Outcome1	-26.16	-0.5	0.0	No	n/a	-25.6621315192744	n/a	n/a	n/a	ShowResult	Mixed
442.893	8.0	0.02	969.998	54.0	2	-26.16	-13.0	11.3126	70.0	0.82	Outcome1	-26.16	-0.5	0.0	No	n/a	-25.6621315192744	n/a	n/a	n/a	ISITrial	Mixed
510.044	1.165	n/a	1037.624	n/a	2	n/a	n/a	n/a	n/a	n/a	n/a	n/a	n/a	n/a	n/a	n/a	n/a	n/a	n/a	604.0	BlockStartHappinessSliderResponse	n/a
-68.739	-0.001	0.024	978.022	n/a	3	n/a	n/a	n/a	n/a	n/a	n/a	n/a	n/a	n/a	n/a	{SPACE}	n/a	55.095	-13.644	n/a	Rest	n/a
-13.624	4.0	0.019	1033.137	n/a	3	n/a	n/a	n/a	n/a	n/a	n/a	n/a	n/a	n/a	n/a	n/a	n/a	n/a	n/a	n/a	BlockHappyPreview	n/a
-9.612	1.64	0.012	1037.149	n/a	3	n/a	n/a	n/a	n/a	n/a	n/a	n/a	n/a	n/a	n/a	2{-2}2{-2}2{-2}2{-2}	n/a	1.64	-7.972	604.0	BlockStartHappiness	n/a
-2.04	-0.001	0.02	1044.721	n/a	3	n/a	n/a	n/a	n/a	n/a	n/a	n/a	n/a	n/a	n/a	5.0	n/a	2.02	-0.02	n/a	ScanWait	n/a
0.0	10.0	0.02	1046.761	n/a	3	n/a	n/a	n/a	n/a	n/a	n/a	n/a	n/a	n/a	n/a	n/a	n/a	n/a	n/a	n/a	GetReady	n/a
10.03	3.0	0.03	1056.791	55.0	3	12.9	3.47	12.9251	955.0	2.0	Outcome2	6.94	12.9	2.53325	Yes	2.0	5.96262740656852	1.192	11.222	n/a	GetAnswer	Loss
11.25	4.0	0.028	1058.011	55.0	3	12.9	3.47	12.9251	955.0	2.0	Outcome2	6.94	12.9	2.53325	Yes	n/a	5.96262740656852	n/a	n/a	n/a	ShowChoice	Loss
15.262	1.0	0.012	1062.023	55.0	3	12.9	3.47	12.9251	955.0	2.0	Outcome2	6.94	12.9	2.53325	Yes	n/a	5.96262740656852	n/a	n/a	n/a	ShowResult	Loss
16.282	7.709	0.02	1063.043	55.0	3	12.9	3.47	12.9251	955.0	2.0	Outcome2	6.94	12.9	2.53325	Yes	n/a	5.96262740656852	n/a	n/a	n/a	ISITrial	Loss
24.005	2.533	0.014	1070.766	55.0	3	12.9	3.47	12.9251	955.0	2.0	Outcome2	6.94	12.9	2.53325	Yes	n/a	5.96262740656852	n/a	n/a	n/a	TrialHappPreview	Loss
26.563	4.012	0.025	1073.324	55.0	3	12.9	3.47	12.9251	955.0	2.0	Outcome2	6.94	12.9	2.53325	Yes	2{-2}2{-2}	5.96262740656852	2.335	28.898	676.0	TrialHappiness	Loss
26.563	1.787	n/a	1073.872	55.0	3	12.9	3.47	12.9251	955.0	2.0	Outcome2	6.94	12.9	2.53325	Yes	n/a	5.96262740656852	n/a	n/a	676.0	TrialHappinessSliderResponse	Loss
30.575	2.133	4.012	1077.336	55.0	3	12.9	3.47	12.9251	955.0	2.0	Outcome2	6.94	12.9	2.53325	Yes	n/a	5.96262740656852	n/a	n/a	n/a	ISIRate	Loss
32.731	3.0	0.023	1079.492	56.0	3	2.1	0.0	13.1876	955.0	1.5	Outcome2	-3.04	2.1	0.0	No	2.0	5.13703284258211	1.701	34.432	n/a	GetAnswer	Mixed
34.453	4.0	0.02	1081.214	56.0	3	2.1	0.0	13.1876	955.0	1.5	Outcome2	-3.04	2.1	0.0	No	n/a	5.13703284258211	n/a	n/a	n/a	ShowChoice	Mixed
38.465	1.0	0.012	1085.226	56.0	3	2.1	0.0	13.1876	955.0	1.5	Outcome2	-3.04	2.1	0.0	No	n/a	5.13703284258211	n/a	n/a	n/a	ShowResult	Mixed
39.485	4.697	0.02	1086.246	56.0	3	2.1	0.0	13.1876	955.0	1.5	Outcome2	-3.04	2.1	0.0	No	n/a	5.13703284258211	n/a	n/a	n/a	ISITrial	Mixed
44.199	3.0	0.017	1090.96	57.0	3	7.11	3.56	14.0764	955.0	5.0	Outcome1	7.11	8.3	0.0	No	2.0	-1.19167610419026	1.151	45.35	n/a	GetAnswer	Gain
45.369	4.0	0.019	1092.13	57.0	3	7.11	3.56	14.0764	955.0	5.0	Outcome1	7.11	8.3	0.0	No	n/a	-1.19167610419026	n/a	n/a	n/a	ShowChoice	Gain
49.381	1.0	0.012	1096.142	57.0	3	7.11	3.56	14.0764	955.0	5.0	Outcome1	7.11	8.3	0.0	No	n/a	-1.19167610419026	n/a	n/a	n/a	ShowResult	Gain
50.401	4.291	0.02	1097.162	57.0	3	7.11	3.56	14.0764	955.0	5.0	Outcome1	7.11	8.3	0.0	No	n/a	-1.19167610419026	n/a	n/a	n/a	ISITrial	Gain
54.714	3.0	0.022	1101.475	58.0	3	10.7	2.46	15.4139	955.0	1.82	Outcome1	10.7	4.93	3.04575	Yes	2.0	5.76896942242356	1.286	56.0	n/a	GetAnswer	Loss
56.017	4.0	0.017	1102.778	58.0	3	10.7	2.46	15.4139	955.0	1.82	Outcome1	10.7	4.93	3.04575	Yes	n/a	5.76896942242356	n/a	n/a	n/a	ShowChoice	Loss
60.029	1.0	0.012	1106.79	58.0	3	10.7	2.46	15.4139	955.0	1.82	Outcome1	10.7	4.93	3.04575	Yes	n/a	5.76896942242356	n/a	n/a	n/a	ShowResult	Loss
61.049	2.037	0.02	1107.81	58.0	3	10.7	2.46	15.4139	955.0	1.82	Outcome1	10.7	4.93	3.04575	Yes	n/a	5.76896942242356	n/a	n/a	n/a	ISITrial	Loss
63.105	3.046	0.019	1109.866	58.0	3	10.7	2.46	15.4139	955.0	1.82	Outcome1	10.7	4.93	3.04575	Yes	n/a	5.76896942242356	n/a	n/a	n/a	TrialHappPreview	Loss
66.181	4.012	0.03	1112.942	58.0	3	10.7	2.46	15.4139	955.0	1.82	Outcome1	10.7	4.93	3.04575	Yes	n/a	5.76896942242356	n/a	n/a	692.0	TrialHappiness	Loss
66.182	2.109	n/a	1113.446	58.0	3	10.7	2.46	15.4139	955.0	1.82	Outcome1	10.7	4.93	3.04575	Yes	n/a	5.76896942242356	n/a	n/a	692.0	TrialHappinessSliderResponse	Loss
70.193	4.183	4.012	1116.954	58.0	3	10.7	2.46	15.4139	955.0	1.82	Outcome1	10.7	4.93	3.04575	Yes	n/a	5.76896942242356	n/a	n/a	n/a	ISIRate	Loss
74.406	3.0	0.03	1121.167	59.0	3	12.72	6.36	17.0039	955.0	3.6	Outcome1	12.72	13.9	0.0	No	2.0	-1.17940732351831	0.993	75.399	n/a	GetAnswer	Loss
75.426	4.0	0.027	1122.187	59.0	3	12.72	6.36	17.0039	955.0	3.6	Outcome1	12.72	13.9	0.0	No	n/a	-1.17940732351831	n/a	n/a	n/a	ShowChoice	Loss
79.438	1.0	0.012	1126.199	59.0	3	12.72	6.36	17.0039	955.0	3.6	Outcome1	12.72	13.9	0.0	No	n/a	-1.17940732351831	n/a	n/a	n/a	ShowResult	Loss
80.457	5.064	0.019	1127.218	59.0	3	12.72	6.36	17.0039	955.0	3.6	Outcome1	12.72	13.9	0.0	No	n/a	-1.17940732351831	n/a	n/a	n/a	ISITrial	Loss
85.539	3.0	0.018	1132.3	60.0	3	-0.1	-3.0	16.9914	955.0	1.2	Outcome2	-6.21	-0.1	3.5625	Yes	2.0	6.110985277463191	1.964	87.503	n/a	GetAnswer	Mixed
87.528	4.0	0.024	1134.289	60.0	3	-0.1	-3.0	16.9914	955.0	1.2	Outcome2	-6.21	-0.1	3.5625	Yes	n/a	6.110985277463191	n/a	n/a	n/a	ShowChoice	Mixed
91.54	1.0	0.012	1138.301	60.0	3	-0.1	-3.0	16.9914	955.0	1.2	Outcome2	-6.21	-0.1	3.5625	Yes	n/a	6.110985277463191	n/a	n/a	n/a	ShowResult	Mixed
92.56	8.0	0.02	1139.321	60.0	3	-0.1	-3.0	16.9914	955.0	1.2	Outcome2	-6.21	-0.1	3.5625	Yes	n/a	6.110985277463191	n/a	n/a	n/a	ISITrial	Mixed
100.584	3.562	0.024	1147.345	60.0	3	-0.1	-3.0	16.9914	955.0	1.2	Outcome2	-6.21	-0.1	3.5625	Yes	n/a	6.110985277463191	n/a	n/a	n/a	TrialHappPreview	Mixed
104.162	4.012	0.016	1150.923	60.0	3	-0.1	-3.0	16.9914	955.0	1.2	Outcome2	-6.21	-0.1	3.5625	Yes	n/a	6.110985277463191	n/a	n/a	684.0	TrialHappiness	Mixed
104.162	1.185	n/a	1151.218	60.0	3	-0.1	-3.0	16.9914	955.0	1.2	Outcome2	-6.21	-0.1	3.5625	Yes	n/a	6.110985277463191	n/a	n/a	684.0	TrialHappinessSliderResponse	Mixed
108.174	6.25	4.012	1154.935	60.0	3	-0.1	-3.0	16.9914	955.0	1.2	Outcome2	-6.21	-0.1	3.5625	Yes	n/a	6.110985277463191	n/a	n/a	n/a	ISIRate	Mixed
114.442	3.0	0.018	1161.203	61.0	3	1.84	2.0	17.2214	955.0	0.52	Outcome2	3.1	1.84	0.0	No	2.0	-1.26151377878445	0.964	115.406	n/a	GetAnswer	Mixed
115.429	4.0	0.023	1162.19	61.0	3	1.84	2.0	17.2214	955.0	0.52	Outcome2	3.1	1.84	0.0	No	n/a	-1.26151377878445	n/a	n/a	n/a	ShowChoice	Mixed
119.441	1.0	0.012	1166.202	61.0	3	1.84	2.0	17.2214	955.0	0.52	Outcome2	3.1	1.84	0.0	No	n/a	-1.26151377878445	n/a	n/a	n/a	ShowResult	Mixed
120.46	4.586	0.019	1167.221	61.0	3	1.84	2.0	17.2214	955.0	0.52	Outcome2	3.1	1.84	0.0	No	n/a	-1.26151377878445	n/a	n/a	n/a	ISITrial	Mixed
125.074	3.0	0.028	1171.835	62.0	3	-1.5	-5.0	17.0339	955.0	0.2	Outcome2	-8.35	-1.5	3.74875	Yes	2.0	6.85164212910532	2.472	127.546	n/a	GetAnswer	Mixed
127.565	4.0	0.019	1174.326	62.0	3	-1.5	-5.0	17.0339	955.0	0.2	Outcome2	-8.35	-1.5	3.74875	Yes	n/a	6.85164212910532	n/a	n/a	n/a	ShowChoice	Mixed
131.577	1.0	0.012	1178.338	62.0	3	-1.5	-5.0	17.0339	955.0	0.2	Outcome2	-8.35	-1.5	3.74875	Yes	n/a	6.85164212910532	n/a	n/a	n/a	ShowResult	Mixed
132.597	5.212	0.02	1179.358	62.0	3	-1.5	-5.0	17.0339	955.0	0.2	Outcome2	-8.35	-1.5	3.74875	Yes	n/a	6.85164212910532	n/a	n/a	n/a	ISITrial	Mixed
137.829	3.749	0.02	1184.59	62.0	3	-1.5	-5.0	17.0339	955.0	0.2	Outcome2	-8.35	-1.5	3.74875	Yes	n/a	6.85164212910532	n/a	n/a	n/a	TrialHappPreview	Mixed
141.607	4.012	0.029	1188.368	62.0	3	-1.5	-5.0	17.0339	955.0	0.2	Outcome2	-8.35	-1.5	3.74875	Yes	n/a	6.85164212910532	n/a	n/a	700.0	TrialHappiness	Mixed
141.608	3.508	n/a	1188.763	62.0	3	-1.5	-5.0	17.0339	955.0	0.2	Outcome2	-8.35	-1.5	3.74875	Yes	n/a	6.85164212910532	n/a	n/a	700.0	TrialHappinessSliderResponse	Mixed
145.619	6.995	4.012	1192.38	62.0	3	-1.5	-5.0	17.0339	955.0	0.2	Outcome2	-8.35	-1.5	3.74875	Yes	n/a	6.85164212910532	n/a	n/a	n/a	ISIRate	Mixed
152.64	3.0	0.026	1199.401	63.0	3	11.45	5.72	18.4652	955.0	1.82	Outcome2	12.7	11.45	0.0	No	2.0	-1.24773499433749	0.883	153.523	n/a	GetAnswer	Loss
153.543	4.0	0.02	1200.304	63.0	3	11.45	5.72	18.4652	955.0	1.82	Outcome2	12.7	11.45	0.0	No	n/a	-1.24773499433749	n/a	n/a	n/a	ShowChoice	Loss
157.555	1.0	0.012	1204.316	63.0	3	11.45	5.72	18.4652	955.0	1.82	Outcome2	12.7	11.45	0.0	No	n/a	-1.24773499433749	n/a	n/a	n/a	ShowResult	Loss
158.574	5.595	0.019	1205.335	63.0	3	11.45	5.72	18.4652	955.0	1.82	Outcome2	12.7	11.45	0.0	No	n/a	-1.24773499433749	n/a	n/a	n/a	ISITrial	Loss
164.191	3.0	0.022	1210.952	64.0	3	12.5	2.66	20.0277	955.0	1.68	Outcome2	5.32	12.5	0.0	No	2.0	7.17553793884485	1.245	165.436	n/a	GetAnswer	Loss
165.462	4.0	0.026	1212.223	64.0	3	12.5	2.66	20.0277	955.0	1.68	Outcome2	5.32	12.5	0.0	No	n/a	7.17553793884485	n/a	n/a	n/a	ShowChoice	Loss
169.474	1.0	0.012	1216.235	64.0	3	12.5	2.66	20.0277	955.0	1.68	Outcome2	5.32	12.5	0.0	No	n/a	7.17553793884485	n/a	n/a	n/a	ShowResult	Loss
170.493	5.47	0.019	1217.254	64.0	3	12.5	2.66	20.0277	955.0	1.68	Outcome2	5.32	12.5	0.0	No	n/a	7.17553793884485	n/a	n/a	n/a	ISITrial	Loss
175.993	3.0	0.03	1222.754	65.0	3	3.5	0.0	20.4652	955.0	0.82	Outcome1	3.5	-3.96	2.99675	Yes	2.0	7.4643261608154	1.755	177.748	n/a	GetAnswer	Mixed
177.765	4.0	0.017	1224.526	65.0	3	3.5	0.0	20.4652	955.0	0.82	Outcome1	3.5	-3.96	2.99675	Yes	n/a	7.4643261608154	n/a	n/a	n/a	ShowChoice	Mixed
181.777	1.0	0.012	1228.538	65.0	3	3.5	0.0	20.4652	955.0	0.82	Outcome1	3.5	-3.96	2.99675	Yes	n/a	7.4643261608154	n/a	n/a	n/a	ShowResult	Mixed
182.797	3.344	0.02	1229.558	65.0	3	3.5	0.0	20.4652	955.0	0.82	Outcome1	3.5	-3.96	2.99675	Yes	n/a	7.4643261608154	n/a	n/a	n/a	ISITrial	Mixed
186.157	2.997	0.016	1232.918	65.0	3	3.5	0.0	20.4652	955.0	0.82	Outcome1	3.5	-3.96	2.99675	Yes	n/a	7.4643261608154	n/a	n/a	n/a	TrialHappPreview	Mixed
189.183	4.012	0.029	1235.944	65.0	3	3.5	0.0	20.4652	955.0	0.82	Outcome1	3.5	-3.96	2.99675	Yes	n/a	7.4643261608154	n/a	n/a	760.0	TrialHappiness	Mixed
189.183	2.425	n/a	1235.984	65.0	3	3.5	0.0	20.4652	955.0	0.82	Outcome1	3.5	-3.96	2.99675	Yes	n/a	7.4643261608154	n/a	n/a	760.0	TrialHappinessSliderResponse	Mixed
193.195	3.987	4.012	1239.956	65.0	3	3.5	0.0	20.4652	955.0	0.82	Outcome1	3.5	-3.96	2.99675	Yes	n/a	7.4643261608154	n/a	n/a	n/a	ISIRate	Mixed
197.207	3.0	0.025	1243.968	66.0	3	11.1	2.18	21.8527	955.0	2.22	Outcome1	11.1	4.37	0.0	No	2.0	6.73386183465459	1.151	198.358	n/a	GetAnswer	Loss
198.377	4.0	0.019	1245.138	66.0	3	11.1	2.18	21.8527	955.0	2.22	Outcome1	11.1	4.37	0.0	No	n/a	6.73386183465459	n/a	n/a	n/a	ShowChoice	Loss
202.389	1.0	0.012	1249.15	66.0	3	11.1	2.18	21.8527	955.0	2.22	Outcome1	11.1	4.37	0.0	No	n/a	6.73386183465459	n/a	n/a	n/a	ShowResult	Loss
203.409	3.959	0.02	1250.17	66.0	3	11.1	2.18	21.8527	955.0	2.22	Outcome1	11.1	4.37	0.0	No	n/a	6.73386183465459	n/a	n/a	n/a	ISITrial	Loss
207.387	3.0	0.019	1254.148	67.0	3	9.41	4.7	23.0289	955.0	1.68	Outcome1	9.41	10.5	2.9185	Yes	2.0	-1.09484711211778	1.038	208.425	n/a	GetAnswer	Loss
208.44	4.0	0.015	1255.201	67.0	3	9.41	4.7	23.0289	955.0	1.68	Outcome1	9.41	10.5	2.9185	Yes	n/a	-1.09484711211778	n/a	n/a	n/a	ShowChoice	Loss
212.452	1.0	0.012	1259.213	67.0	3	9.41	4.7	23.0289	955.0	1.68	Outcome1	9.41	10.5	2.9185	Yes	n/a	-1.09484711211778	n/a	n/a	n/a	ShowResult	Loss
213.472	4.199	0.02	1260.233	67.0	3	9.41	4.7	23.0289	955.0	1.68	Outcome1	9.41	10.5	2.9185	Yes	n/a	-1.09484711211778	n/a	n/a	n/a	ISITrial	Loss
217.685	2.918	0.014	1264.446	67.0	3	9.41	4.7	23.0289	955.0	1.68	Outcome1	9.41	10.5	2.9185	Yes	n/a	-1.09484711211778	n/a	n/a	n/a	TrialHappPreview	Loss
220.627	4.012	0.024	1267.388	67.0	3	9.41	4.7	23.0289	955.0	1.68	Outcome1	9.41	10.5	2.9185	Yes	n/a	-1.09484711211778	n/a	n/a	732.0	TrialHappiness	Loss
220.627	1.078	n/a	1267.809	67.0	3	9.41	4.7	23.0289	955.0	1.68	Outcome1	9.41	10.5	2.9185	Yes	n/a	-1.09484711211778	n/a	n/a	732.0	TrialHappinessSliderResponse	Loss
224.639	3.674	4.012	1271.4	67.0	3	9.41	4.7	23.0289	955.0	1.68	Outcome1	9.41	10.5	2.9185	Yes	n/a	-1.09484711211778	n/a	n/a	n/a	ISIRate	Loss
228.333	3.0	0.02	1275.094	68.0	3	9.67	4.84	24.2377	955.0	2.0	Outcome2	10.9	9.67	0.0	No	2.0	-1.22687806719517	1.065	229.398	n/a	GetAnswer	Loss
229.42	4.0	0.022	1276.181	68.0	3	9.67	4.84	24.2377	955.0	2.0	Outcome2	10.9	9.67	0.0	No	n/a	-1.22687806719517	n/a	n/a	n/a	ShowChoice	Loss
233.432	1.0	0.012	1280.193	68.0	3	9.67	4.84	24.2377	955.0	2.0	Outcome2	10.9	9.67	0.0	No	n/a	-1.22687806719517	n/a	n/a	n/a	ShowResult	Loss
234.452	2.185	0.02	1281.213	68.0	3	9.67	4.84	24.2377	955.0	2.0	Outcome2	10.9	9.67	0.0	No	n/a	-1.22687806719517	n/a	n/a	n/a	ISITrial	Loss
236.658	3.0	0.021	1283.419	69.0	3	-0.75	0.0	24.1439	955.0	0.2	Outcome2	0.5	-0.75	0.0	No	2.0	-1.24792374480936	2.247	238.905	n/a	GetAnswer	Mixed
238.932	4.0	0.027	1285.693	69.0	3	-0.75	0.0	24.1439	955.0	0.2	Outcome2	0.5	-0.75	0.0	No	n/a	-1.24792374480936	n/a	n/a	n/a	ShowChoice	Mixed
242.96	1.0	0.028	1289.721	69.0	3	-0.75	0.0	24.1439	955.0	0.2	Outcome2	0.5	-0.75	0.0	No	n/a	-1.24792374480936	n/a	n/a	n/a	ShowResult	Mixed
243.98	2.0	0.02	1290.741	69.0	3	-0.75	0.0	24.1439	955.0	0.2	Outcome2	0.5	-0.75	0.0	No	n/a	-1.24792374480936	n/a	n/a	n/a	ISITrial	Mixed
246.003	3.0	0.023	1292.764	70.0	3	6.7	2.0	24.9814	955.0	1.82	Outcome1	6.7	-1.46	3.65125	Yes	2.0	8.156285390713482	1.623	247.626	n/a	GetAnswer	Gain
247.641	4.0	0.015	1294.402	70.0	3	6.7	2.0	24.9814	955.0	1.82	Outcome1	6.7	-1.46	3.65125	Yes	n/a	8.156285390713482	n/a	n/a	n/a	ShowChoice	Gain
251.653	1.0	0.012	1298.414	70.0	3	6.7	2.0	24.9814	955.0	1.82	Outcome1	6.7	-1.46	3.65125	Yes	n/a	8.156285390713482	n/a	n/a	n/a	ShowResult	Gain
252.673	2.623	0.02	1299.434	70.0	3	6.7	2.0	24.9814	955.0	1.82	Outcome1	6.7	-1.46	3.65125	Yes	n/a	8.156285390713482	n/a	n/a	n/a	ISITrial	Gain
255.314	3.651	0.018	1302.075	70.0	3	6.7	2.0	24.9814	955.0	1.82	Outcome1	6.7	-1.46	3.65125	Yes	n/a	8.156285390713482	n/a	n/a	n/a	TrialHappPreview	Gain
258.992	4.012	0.027	1305.753	70.0	3	6.7	2.0	24.9814	955.0	1.82	Outcome1	6.7	-1.46	3.65125	Yes	n/a	8.156285390713482	n/a	n/a	724.0	TrialHappiness	Gain
258.992	1.545	n/a	1306.104	70.0	3	6.7	2.0	24.9814	955.0	1.82	Outcome1	6.7	-1.46	3.65125	Yes	n/a	8.156285390713482	n/a	n/a	724.0	TrialHappinessSliderResponse	Gain
263.004	6.605	4.012	1309.765	70.0	3	6.7	2.0	24.9814	955.0	1.82	Outcome1	6.7	-1.46	3.65125	Yes	n/a	8.156285390713482	n/a	n/a	n/a	ISIRate	Gain
269.64	3.0	0.031	1316.401	71.0	3	-1.3	-5.0	24.8189	955.0	0.3	Outcome2	-9.84	-1.3	0.0	No	2.0	8.54473386183465	2.53	272.17	n/a	GetAnswer	Mixed
272.198	4.0	0.028	1318.959	71.0	3	-1.3	-5.0	24.8189	955.0	0.3	Outcome2	-9.84	-1.3	0.0	No	n/a	8.54473386183465	n/a	n/a	n/a	ShowChoice	Mixed
276.21	1.0	0.012	1322.971	71.0	3	-1.3	-5.0	24.8189	955.0	0.3	Outcome2	-9.84	-1.3	0.0	No	n/a	8.54473386183465	n/a	n/a	n/a	ShowResult	Mixed
277.23	5.499	0.02	1323.991	71.0	3	-1.3	-5.0	24.8189	955.0	0.3	Outcome2	-9.84	-1.3	0.0	No	n/a	8.54473386183465	n/a	n/a	n/a	ISITrial	Mixed
282.746	3.0	0.017	1329.507	72.0	3	0.0	0.0	24.8189	955.0	1.0	Certain	3.7	-5.11	3.0805	Yes	4.0	8.806342015855039	1.842	284.588	n/a	GetAnswer	Mixed
284.602	4.0	0.013	1331.363	72.0	3	0.0	0.0	24.8189	955.0	1.0	Certain	3.7	-5.11	3.0805	Yes	n/a	8.806342015855039	n/a	n/a	n/a	ShowChoice	Mixed
288.614	1.0	0.012	1335.375	72.0	3	0.0	0.0	24.8189	955.0	1.0	Certain	3.7	-5.11	3.0805	Yes	n/a	8.806342015855039	n/a	n/a	n/a	ShowResult	Mixed
289.633	5.672	0.019	1336.394	72.0	3	0.0	0.0	24.8189	955.0	1.0	Certain	3.7	-5.11	3.0805	Yes	n/a	8.806342015855039	n/a	n/a	n/a	ISITrial	Mixed
295.317	3.08	0.012	1342.078	72.0	3	0.0	0.0	24.8189	955.0	1.0	Certain	3.7	-5.11	3.0805	Yes	n/a	8.806342015855039	n/a	n/a	n/a	TrialHappPreview	Mixed
298.426	4.012	0.029	1345.187	72.0	3	0.0	0.0	24.8189	955.0	1.0	Certain	3.7	-5.11	3.0805	Yes	n/a	8.806342015855039	n/a	n/a	748.0	TrialHappiness	Mixed
298.427	2.984	n/a	1345.789	72.0	3	0.0	0.0	24.8189	955.0	1.0	Certain	3.7	-5.11	3.0805	Yes	n/a	8.806342015855039	n/a	n/a	748.0	TrialHappinessSliderResponse	Mixed
302.438	4.322	4.012	1349.199	72.0	3	0.0	0.0	24.8189	955.0	1.0	Certain	3.7	-5.11	3.0805	Yes	n/a	8.806342015855039	n/a	n/a	n/a	ISIRate	Mixed
306.785	3.0	0.025	1353.546	73.0	3	11.5	1.42	26.2564	955.0	2.8	Outcome1	11.5	2.84	0.0	No	2.0	8.66024915062288	0.981	307.766	n/a	GetAnswer	Loss
307.788	4.0	0.022	1354.549	73.0	3	11.5	1.42	26.2564	955.0	2.8	Outcome1	11.5	2.84	0.0	No	n/a	8.66024915062288	n/a	n/a	n/a	ShowChoice	Loss
311.8	1.0	0.012	1358.561	73.0	3	11.5	1.42	26.2564	955.0	2.8	Outcome1	11.5	2.84	0.0	No	n/a	8.66024915062288	n/a	n/a	n/a	ShowResult	Loss
312.819	4.616	0.019	1359.58	73.0	3	11.5	1.42	26.2564	955.0	2.8	Outcome1	11.5	2.84	0.0	No	n/a	8.66024915062288	n/a	n/a	n/a	ISITrial	Loss
317.467	3.0	0.032	1364.228	74.0	3	0.1	-4.0	26.2689	955.0	1.5	Outcome2	-8.79	0.1	3.05625	Yes	n/a	8.89467723669309	n/a	n/a	n/a	GetAnswer	Mixed
320.492	4.0	0.025	1367.253	74.0	3	0.1	-4.0	26.2689	955.0	1.5	Outcome2	-8.79	0.1	3.05625	Yes	n/a	8.89467723669309	n/a	n/a	n/a	ShowChoice	Mixed
324.504	1.0	0.012	1371.265	74.0	3	0.1	-4.0	26.2689	955.0	1.5	Outcome2	-8.79	0.1	3.05625	Yes	n/a	8.89467723669309	n/a	n/a	n/a	ShowResult	Mixed
325.524	3.909	0.02	1372.285	74.0	3	0.1	-4.0	26.2689	955.0	1.5	Outcome2	-8.79	0.1	3.05625	Yes	n/a	8.89467723669309	n/a	n/a	n/a	ISITrial	Mixed
329.453	3.056	0.02	1376.214	74.0	3	0.1	-4.0	26.2689	955.0	1.5	Outcome2	-8.79	0.1	3.05625	Yes	n/a	8.89467723669309	n/a	n/a	n/a	TrialHappPreview	Mixed
332.528	4.012	0.019	1379.289	74.0	3	0.1	-4.0	26.2689	955.0	1.5	Outcome2	-8.79	0.1	3.05625	Yes	n/a	8.89467723669309	n/a	n/a	824.0	TrialHappiness	Mixed
332.529	3.276	n/a	1379.652	74.0	3	0.1	-4.0	26.2689	955.0	1.5	Outcome2	-8.79	0.1	3.05625	Yes	n/a	8.89467723669309	n/a	n/a	824.0	TrialHappinessSliderResponse	Mixed
336.54	4.225	4.012	1383.301	74.0	3	0.1	-4.0	26.2689	955.0	1.5	Outcome2	-8.79	0.1	3.05625	Yes	n/a	8.89467723669309	n/a	n/a	n/a	ISIRate	Mixed
340.786	3.0	0.021	1387.547	75.0	3	10.1	1.13	27.5314	955.0	4.2	Outcome2	2.26	10.1	0.0	No	2.0	7.83805209513024	1.071	341.857	n/a	GetAnswer	Gain
341.873	4.0	0.016	1388.634	75.0	3	10.1	1.13	27.5314	955.0	4.2	Outcome2	2.26	10.1	0.0	No	n/a	7.83805209513024	n/a	n/a	n/a	ShowChoice	Gain
345.885	1.0	0.012	1392.646	75.0	3	10.1	1.13	27.5314	955.0	4.2	Outcome2	2.26	10.1	0.0	No	n/a	7.83805209513024	n/a	n/a	n/a	ShowResult	Gain
346.905	4.979	0.02	1393.666	75.0	3	10.1	1.13	27.5314	955.0	4.2	Outcome2	2.26	10.1	0.0	No	n/a	7.83805209513024	n/a	n/a	n/a	ISITrial	Gain
351.903	3.0	0.019	1398.664	76.0	3	8.5	0.26	28.5939	955.0	1.68	Outcome2	0.51	8.5	0.0	No	2.0	7.98640996602492	1.879	353.782	n/a	GetAnswer	Gain
353.809	4.0	0.027	1400.57	76.0	3	8.5	0.26	28.5939	955.0	1.68	Outcome2	0.51	8.5	0.0	No	n/a	7.98640996602492	n/a	n/a	n/a	ShowChoice	Gain
357.821	1.0	0.012	1404.582	76.0	3	8.5	0.26	28.5939	955.0	1.68	Outcome2	0.51	8.5	0.0	No	n/a	7.98640996602492	n/a	n/a	n/a	ShowResult	Gain
358.841	3.931	0.02	1405.602	76.0	3	8.5	0.26	28.5939	955.0	1.68	Outcome2	0.51	8.5	0.0	No	n/a	7.98640996602492	n/a	n/a	n/a	ISITrial	Gain
362.802	3.0	0.03	1409.563	77.0	3	-1.0	-1.0	28.4689	955.0	0.3	Certain	2.7	-5.43	4.0	Yes	4.0	8.13476783691959	2.123	364.925	n/a	GetAnswer	Mixed
364.942	4.0	0.017	1411.703	77.0	3	-1.0	-1.0	28.4689	955.0	0.3	Certain	2.7	-5.43	4.0	Yes	n/a	8.13476783691959	n/a	n/a	n/a	ShowChoice	Mixed
368.954	1.0	0.012	1415.715	77.0	3	-1.0	-1.0	28.4689	955.0	0.3	Certain	2.7	-5.43	4.0	Yes	n/a	8.13476783691959	n/a	n/a	n/a	ShowResult	Mixed
369.974	7.022	0.02	1416.735	77.0	3	-1.0	-1.0	28.4689	955.0	0.3	Certain	2.7	-5.43	4.0	Yes	n/a	8.13476783691959	n/a	n/a	n/a	ISITrial	Mixed
377.012	4.0	0.016	1423.773	77.0	3	-1.0	-1.0	28.4689	955.0	0.3	Certain	2.7	-5.43	4.0	Yes	n/a	8.13476783691959	n/a	n/a	n/a	TrialHappPreview	Mixed
381.04	4.012	0.028	1427.801	77.0	3	-1.0	-1.0	28.4689	955.0	0.3	Certain	2.7	-5.43	4.0	Yes	n/a	8.13476783691959	n/a	n/a	788.0	TrialHappiness	Mixed
381.041	2.878	n/a	1428.175	77.0	3	-1.0	-1.0	28.4689	955.0	0.3	Certain	2.7	-5.43	4.0	Yes	n/a	8.13476783691959	n/a	n/a	788.0	TrialHappinessSliderResponse	Mixed
385.052	8.0	4.012	1431.813	77.0	3	-1.0	-1.0	28.4689	955.0	0.3	Certain	2.7	-5.43	4.0	Yes	n/a	8.13476783691959	n/a	n/a	n/a	ISIRate	Mixed
393.076	3.0	0.024	1439.837	78.0	3	2.72	1.36	28.8089	955.0	1.2	Outcome2	3.9	2.72	0.0	No	2.0	-1.18252170630427	1.26	394.336	n/a	GetAnswer	Mixed
394.364	4.0	0.028	1441.125	78.0	3	2.72	1.36	28.8089	955.0	1.2	Outcome2	3.9	2.72	0.0	No	n/a	-1.18252170630427	n/a	n/a	n/a	ShowChoice	Mixed
398.376	1.0	0.012	1445.137	78.0	3	2.72	1.36	28.8089	955.0	1.2	Outcome2	3.9	2.72	0.0	No	n/a	-1.18252170630427	n/a	n/a	n/a	ShowResult	Mixed
399.395	2.078	0.019	1446.156	78.0	3	2.72	1.36	28.8089	955.0	1.2	Outcome2	3.9	2.72	0.0	No	n/a	-1.18252170630427	n/a	n/a	n/a	ISITrial	Mixed
401.502	3.0	0.029	1448.263	79.0	3	12.3	1.61	30.3464	955.0	5.0	Outcome1	12.3	3.22	2.7295	Yes	2.0	9.08380520951302	1.44	402.942	n/a	GetAnswer	Loss
402.956	4.0	0.014	1449.717	79.0	3	12.3	1.61	30.3464	955.0	5.0	Outcome1	12.3	3.22	2.7295	Yes	n/a	9.08380520951302	n/a	n/a	n/a	ShowChoice	Loss
406.968	1.0	0.012	1453.729	79.0	3	12.3	1.61	30.3464	955.0	5.0	Outcome1	12.3	3.22	2.7295	Yes	n/a	9.08380520951302	n/a	n/a	n/a	ShowResult	Loss
407.988	3.829	0.02	1454.749	79.0	3	12.3	1.61	30.3464	955.0	5.0	Outcome1	12.3	3.22	2.7295	Yes	n/a	9.08380520951302	n/a	n/a	n/a	ISITrial	Loss
411.832	2.73	0.015	1458.593	79.0	3	12.3	1.61	30.3464	955.0	5.0	Outcome1	12.3	3.22	2.7295	Yes	n/a	9.08380520951302	n/a	n/a	n/a	TrialHappPreview	Loss
414.591	4.012	0.029	1461.352	79.0	3	12.3	1.61	30.3464	955.0	5.0	Outcome1	12.3	3.22	2.7295	Yes	n/a	9.08380520951302	n/a	n/a	776.0	TrialHappiness	Loss
414.591	1.536	n/a	1461.662	79.0	3	12.3	1.61	30.3464	955.0	5.0	Outcome1	12.3	3.22	2.7295	Yes	n/a	9.08380520951302	n/a	n/a	776.0	TrialHappinessSliderResponse	Loss
418.603	2.918	4.012	1465.364	79.0	3	12.3	1.61	30.3464	955.0	5.0	Outcome1	12.3	3.22	2.7295	Yes	n/a	9.08380520951302	n/a	n/a	n/a	ISIRate	Loss
421.545	3.0	0.024	1468.306	80.0	3	-0.3	-5.0	30.3089	955.0	1.0	Outcome1	-0.3	-9.78	0.0	No	2.0	9.47678369195923	2.228	423.773	n/a	GetAnswer	Mixed
423.785	4.0	0.012	1470.546	80.0	3	-0.3	-5.0	30.3089	955.0	1.0	Outcome1	-0.3	-9.78	0.0	No	n/a	9.47678369195923	n/a	n/a	n/a	ShowChoice	Mixed
427.797	1.0	0.012	1474.558	80.0	3	-0.3	-5.0	30.3089	955.0	1.0	Outcome1	-0.3	-9.78	0.0	No	n/a	9.47678369195923	n/a	n/a	n/a	ShowResult	Mixed
428.817	3.336	0.02	1475.578	80.0	3	-0.3	-5.0	30.3089	955.0	1.0	Outcome1	-0.3	-9.78	0.0	No	n/a	9.47678369195923	n/a	n/a	n/a	ISITrial	Mixed
432.177	3.0	0.024	1478.938	81.0	3	8.22	4.11	31.3364	955.0	2.8	Outcome1	8.22	9.5	3.92375	Yes	2.0	-1.2796338240845602	1.277	433.454	n/a	GetAnswer	Gain
433.481	4.0	0.027	1480.242	81.0	3	8.22	4.11	31.3364	955.0	2.8	Outcome1	8.22	9.5	3.92375	Yes	n/a	-1.2796338240845602	n/a	n/a	n/a	ShowChoice	Gain
437.493	1.0	0.012	1484.254	81.0	3	8.22	4.11	31.3364	955.0	2.8	Outcome1	8.22	9.5	3.92375	Yes	n/a	-1.2796338240845602	n/a	n/a	n/a	ShowResult	Gain
438.512	3.919	0.019	1485.273	81.0	3	8.22	4.11	31.3364	955.0	2.8	Outcome1	8.22	9.5	3.92375	Yes	n/a	-1.2796338240845602	n/a	n/a	n/a	ISITrial	Gain
442.457	3.924	0.026	1489.218	81.0	3	8.22	4.11	31.3364	955.0	2.8	Outcome1	8.22	9.5	3.92375	Yes	n/a	-1.2796338240845602	n/a	n/a	n/a	TrialHappPreview	Gain
446.403	4.012	0.022	1493.164	81.0	3	8.22	4.11	31.3364	955.0	2.8	Outcome1	8.22	9.5	3.92375	Yes	n/a	-1.2796338240845602	n/a	n/a	756.0	TrialHappiness	Gain
446.403	2.406	n/a	1493.649	81.0	3	8.22	4.11	31.3364	955.0	2.8	Outcome1	8.22	9.5	3.92375	Yes	n/a	-1.2796338240845602	n/a	n/a	756.0	TrialHappinessSliderResponse	Gain
450.415	7.695	4.012	1497.176	81.0	3	8.22	4.11	31.3364	955.0	2.8	Outcome1	8.22	9.5	3.92375	Yes	n/a	-1.2796338240845602	n/a	n/a	n/a	ISIRate	Gain
458.138	3.0	0.028	1504.899	n/a	3	n/a	n/a	n/a	n/a	n/a	n/a	n/a	n/a	n/a	n/a	n/a	n/a	n/a	n/a	n/a	CurrentEarnings	n/a
461.163	-0.001	0.025	1507.924	n/a	3	n/a	n/a	n/a	n/a	n/a	n/a	n/a	n/a	n/a	n/a	{SPACE}	n/a	12.32	473.483	n/a	Goodbye	n/a
