onset	duration	onset_delay	onset_unadjusted	trial_number	block	amount_change	certain_amount	current_amount	mood_target	multiplier	outcome	outcome1_amount	outcome2_amount	question_duration	rating	response	rpe	rt	rt_time	slider_response	trial_phase	trial_type
-61.358	-0.001	0.013	18.589	n/a	0	n/a	n/a	n/a	n/a	n/a	n/a	n/a	n/a	n/a	n/a	{SPACE}	n/a	24.582	-36.776	n/a	Welcome	n/a
-36.759	5.0	0.017	43.188	n/a	0	n/a	n/a	n/a	n/a	n/a	n/a	n/a	n/a	n/a	n/a	n/a	n/a	n/a	n/a	n/a	LifeHappyPreview	n/a
-31.728	3.954	0.031	48.219	n/a	0	n/a	n/a	n/a	n/a	n/a	n/a	n/a	n/a	n/a	n/a	n/a	n/a	n/a	n/a	408.0	LifeHappiness	n/a
-31.727	3.21	n/a	48.964	n/a	0	n/a	n/a	n/a	n/a	n/a	n/a	n/a	n/a	n/a	n/a	n/a	n/a	n/a	n/a	408.0	LifeHappinessSliderResponse	n/a
-19.775	4.0	0.018	60.172	n/a	0	n/a	n/a	n/a	n/a	n/a	n/a	n/a	n/a	n/a	n/a	n/a	n/a	n/a	n/a	n/a	BlockHappyPreview	n/a
-15.763	1.778	0.012	64.184	n/a	0	n/a	n/a	n/a	n/a	n/a	n/a	n/a	n/a	n/a	n/a	n/a	n/a	n/a	n/a	416.0	BlockStartHappiness	n/a
-15.763	1.351	n/a	64.611	n/a	0	n/a	n/a	n/a	n/a	n/a	n/a	n/a	n/a	n/a	n/a	n/a	n/a	n/a	n/a	416.0	BlockStartHappinessSliderResponse	n/a
-1.939	-0.001	0.021	78.008	n/a	0	n/a	n/a	n/a	n/a	n/a	n/a	n/a	n/a	n/a	n/a	5.0	n/a	1.917	-0.022	n/a	ScanWait	n/a
0.0	10.0	0.021	79.947	n/a	1	n/a	n/a	n/a	n/a	n/a	n/a	n/a	n/a	n/a	n/a	n/a	n/a	n/a	n/a	n/a	GetReady	n/a
10.03	3.0	0.03	89.977	1.0	1	11.9	1.37	11.4875	955.0	3.6	Outcome1	11.9	2.74	0.0	No	2.0	9.156285390713482	1.152	11.182	n/a	GetAnswer	Loss
11.201	4.0	0.019	91.148	1.0	1	11.9	1.37	11.4875	955.0	3.6	Outcome1	11.9	2.74	0.0	No	n/a	9.156285390713482	n/a	n/a	n/a	ShowChoice	Loss
15.213	1.0	0.012	95.16	1.0	1	11.9	1.37	11.4875	955.0	3.6	Outcome1	11.9	2.74	0.0	No	n/a	9.156285390713482	n/a	n/a	n/a	ShowResult	Loss
16.232	2.431	0.019	96.179	1.0	1	11.9	1.37	11.4875	955.0	3.6	Outcome1	11.9	2.74	0.0	No	n/a	9.156285390713482	n/a	n/a	n/a	ISITrial	Loss
18.69	3.0	0.027	98.637	2.0	1	-3.0	-3.0	11.1125	955.0	0.66	Certain	-8.47	1.3	0.0	No	4.0	9.76670441676104	1.873	20.563	n/a	GetAnswer	Mixed
20.579	4.0	0.016	100.526	2.0	1	-3.0	-3.0	11.1125	955.0	0.66	Certain	-8.47	1.3	0.0	No	n/a	9.76670441676104	n/a	n/a	n/a	ShowChoice	Mixed
24.591	1.0	0.012	104.538	2.0	1	-3.0	-3.0	11.1125	955.0	0.66	Certain	-8.47	1.3	0.0	No	n/a	9.76670441676104	n/a	n/a	n/a	ShowResult	Mixed
25.61	4.568	0.019	105.557	2.0	1	-3.0	-3.0	11.1125	955.0	0.66	Certain	-8.47	1.3	0.0	No	n/a	9.76670441676104	n/a	n/a	n/a	ISITrial	Mixed
30.207	3.0	0.029	110.154	3.0	1	13.3	1.46	12.775	955.0	2.48	Outcome2	2.92	13.3	2.868	Yes	2.0	10.3771234428086	1.383	31.59	n/a	GetAnswer	Loss
31.611	4.0	0.021	111.558	3.0	1	13.3	1.46	12.775	955.0	2.48	Outcome2	2.92	13.3	2.868	Yes	n/a	10.3771234428086	n/a	n/a	n/a	ShowChoice	Loss
35.623	1.0	0.012	115.57	3.0	1	13.3	1.46	12.775	955.0	2.48	Outcome2	2.92	13.3	2.868	Yes	n/a	10.3771234428086	n/a	n/a	n/a	ShowResult	Loss
36.643	3.243	0.02	116.59	3.0	1	13.3	1.46	12.775	955.0	2.48	Outcome2	2.92	13.3	2.868	Yes	n/a	10.3771234428086	n/a	n/a	n/a	ISITrial	Loss
39.903	2.868	0.017	119.85	3.0	1	13.3	1.46	12.775	955.0	2.48	Outcome2	2.92	13.3	2.868	Yes	n/a	10.3771234428086	n/a	n/a	n/a	TrialHappPreview	Loss
42.795	4.012	0.024	122.742	3.0	1	13.3	1.46	12.775	955.0	2.48	Outcome2	2.92	13.3	2.868	Yes	n/a	10.3771234428086	n/a	n/a	424.0	TrialHappiness	Loss
42.796	2.577	n/a	123.249	3.0	1	13.3	1.46	12.775	955.0	2.48	Outcome2	2.92	13.3	2.868	Yes	n/a	10.3771234428086	n/a	n/a	424.0	TrialHappinessSliderResponse	Loss
46.807	3.472	4.012	126.754	3.0	1	13.3	1.46	12.775	955.0	2.48	Outcome2	2.92	13.3	2.868	Yes	n/a	10.3771234428086	n/a	n/a	n/a	ISIRate	Loss
50.301	3.0	0.022	130.248	4.0	1	-3.0	-3.0	12.4	955.0	0.2	Certain	-8.35	2.5	0.0	No	4.0	10.8516421291053	1.636	51.937	n/a	GetAnswer	Mixed
51.956	4.0	0.019	131.903	4.0	1	-3.0	-3.0	12.4	955.0	0.2	Certain	-8.35	2.5	0.0	No	n/a	10.8516421291053	n/a	n/a	n/a	ShowChoice	Mixed
55.968	1.0	0.012	135.915	4.0	1	-3.0	-3.0	12.4	955.0	0.2	Certain	-8.35	2.5	0.0	No	n/a	10.8516421291053	n/a	n/a	n/a	ShowResult	Mixed
56.987	2.011	0.019	136.934	4.0	1	-3.0	-3.0	12.4	955.0	0.2	Certain	-8.35	2.5	0.0	No	n/a	10.8516421291053	n/a	n/a	n/a	ISITrial	Mixed
59.027	3.0	0.029	138.974	5.0	1	5.34	2.67	13.0675	955.0	3.16	Outcome2	7.7	5.34	2.5825	Yes	2.0	-2.35758776896942	1.168	60.195	n/a	GetAnswer	Gain
60.214	4.0	0.019	140.161	5.0	1	5.34	2.67	13.0675	955.0	3.16	Outcome2	7.7	5.34	2.5825	Yes	n/a	-2.35758776896942	n/a	n/a	n/a	ShowChoice	Gain
64.226	1.0	0.012	144.173	5.0	1	5.34	2.67	13.0675	955.0	3.16	Outcome2	7.7	5.34	2.5825	Yes	n/a	-2.35758776896942	n/a	n/a	n/a	ShowResult	Gain
65.245	5.129	0.019	145.192	5.0	1	5.34	2.67	13.0675	955.0	3.16	Outcome2	7.7	5.34	2.5825	Yes	n/a	-2.35758776896942	n/a	n/a	n/a	ISITrial	Gain
70.394	2.582	0.02	150.341	5.0	1	5.34	2.67	13.0675	955.0	3.16	Outcome2	7.7	5.34	2.5825	Yes	n/a	-2.35758776896942	n/a	n/a	n/a	TrialHappPreview	Gain
73.002	4.012	0.026	152.949	5.0	1	5.34	2.67	13.0675	955.0	3.16	Outcome2	7.7	5.34	2.5825	Yes	n/a	-2.35758776896942	n/a	n/a	432.0	TrialHappiness	Gain
73.002	2.364	n/a	153.574	5.0	1	5.34	2.67	13.0675	955.0	3.16	Outcome2	7.7	5.34	2.5825	Yes	n/a	-2.35758776896942	n/a	n/a	432.0	TrialHappinessSliderResponse	Gain
77.014	2.33	4.012	156.961	5.0	1	5.34	2.67	13.0675	955.0	3.16	Outcome2	7.7	5.34	2.5825	Yes	n/a	-2.35758776896942	n/a	n/a	n/a	ISIRate	Gain
79.371	3.0	0.027	159.318	6.0	1	12.9	0.49	14.68	955.0	2.0	Outcome1	12.9	0.98	0.0	No	2.0	11.9184597961495	1.53	80.901	n/a	GetAnswer	Loss
80.925	4.0	0.024	160.872	6.0	1	12.9	0.49	14.68	955.0	2.0	Outcome1	12.9	0.98	0.0	No	n/a	11.9184597961495	n/a	n/a	n/a	ShowChoice	Loss
84.937	1.0	0.012	164.884	6.0	1	12.9	0.49	14.68	955.0	2.0	Outcome1	12.9	0.98	0.0	No	n/a	11.9184597961495	n/a	n/a	n/a	ShowResult	Loss
85.957	6.232	0.02	165.904	6.0	1	12.9	0.49	14.68	955.0	2.0	Outcome1	12.9	0.98	0.0	No	n/a	11.9184597961495	n/a	n/a	n/a	ISITrial	Loss
92.209	3.0	0.02	172.156	7.0	1	-3.0	-3.0	14.305	955.0	0.66	Certain	3.3	-9.21	0.0	No	4.0	12.510758776896902	1.816	94.025	n/a	GetAnswer	Mixed
94.048	4.0	0.023	173.995	7.0	1	-3.0	-3.0	14.305	955.0	0.66	Certain	3.3	-9.21	0.0	No	n/a	12.510758776896902	n/a	n/a	n/a	ShowChoice	Mixed
98.06	1.0	0.012	178.007	7.0	1	-3.0	-3.0	14.305	955.0	0.66	Certain	3.3	-9.21	0.0	No	n/a	12.510758776896902	n/a	n/a	n/a	ShowResult	Mixed
99.08	2.305	0.02	179.027	7.0	1	-3.0	-3.0	14.305	955.0	0.66	Certain	3.3	-9.21	0.0	No	n/a	12.510758776896902	n/a	n/a	n/a	ISITrial	Mixed
101.403	3.0	0.018	181.35	8.0	1	10.9	-1.1	15.6675	955.0	2.0	Outcome2	-2.2	10.9	3.1125	Yes	2.0	13.1030577576444	1.675	103.078	n/a	GetAnswer	Loss
103.092	4.0	0.014	183.039	8.0	1	10.9	-1.1	15.6675	955.0	2.0	Outcome2	-2.2	10.9	3.1125	Yes	n/a	13.1030577576444	n/a	n/a	n/a	ShowChoice	Loss
107.104	1.0	0.012	187.051	8.0	1	10.9	-1.1	15.6675	955.0	2.0	Outcome2	-2.2	10.9	3.1125	Yes	n/a	13.1030577576444	n/a	n/a	n/a	ShowResult	Loss
108.123	3.506	0.019	188.07	8.0	1	10.9	-1.1	15.6675	955.0	2.0	Outcome2	-2.2	10.9	3.1125	Yes	n/a	13.1030577576444	n/a	n/a	n/a	ISITrial	Loss
111.651	3.112	0.022	191.598	8.0	1	10.9	-1.1	15.6675	955.0	2.0	Outcome2	-2.2	10.9	3.1125	Yes	n/a	13.1030577576444	n/a	n/a	n/a	TrialHappPreview	Loss
114.793	4.012	0.03	194.74	8.0	1	10.9	-1.1	15.6675	955.0	2.0	Outcome2	-2.2	10.9	3.1125	Yes	n/a	13.1030577576444	n/a	n/a	448.0	TrialHappiness	Loss
114.794	0.284	n/a	195.434	8.0	1	10.9	-1.1	15.6675	955.0	2.0	Outcome2	-2.2	10.9	3.1125	Yes	n/a	13.1030577576444	n/a	n/a	448.0	TrialHappinessSliderResponse	Loss
118.805	4.45	4.012	198.752	8.0	1	10.9	-1.1	15.6675	955.0	2.0	Outcome2	-2.2	10.9	3.1125	Yes	n/a	13.1030577576444	n/a	n/a	n/a	ISIRate	Loss
123.285	3.0	0.03	203.232	9.0	1	-1.0	-1.0	15.5425	955.0	2.8	Certain	-7.92	5.5	0.0	No	4.0	13.4235560588901	1.586	124.871	n/a	GetAnswer	Gain
124.89	4.0	0.019	204.837	9.0	1	-1.0	-1.0	15.5425	955.0	2.8	Certain	-7.92	5.5	0.0	No	n/a	13.4235560588901	n/a	n/a	n/a	ShowChoice	Gain
128.902	1.0	0.012	208.849	9.0	1	-1.0	-1.0	15.5425	955.0	2.8	Certain	-7.92	5.5	0.0	No	n/a	13.4235560588901	n/a	n/a	n/a	ShowResult	Gain
129.922	2.0	0.02	209.869	9.0	1	-1.0	-1.0	15.5425	955.0	2.8	Certain	-7.92	5.5	0.0	No	n/a	13.4235560588901	n/a	n/a	n/a	ISITrial	Gain
131.944	3.0	0.022	211.891	10.0	1	-1.0	-1.0	15.4175	955.0	2.48	Certain	5.3	-8.7	4.0	Yes	4.0	13.9977349943375	1.734	133.678	n/a	GetAnswer	Gain
133.7	4.0	0.022	213.647	10.0	1	-1.0	-1.0	15.4175	955.0	2.48	Certain	5.3	-8.7	4.0	Yes	n/a	13.9977349943375	n/a	n/a	n/a	ShowChoice	Gain
137.712	1.0	0.012	217.659	10.0	1	-1.0	-1.0	15.4175	955.0	2.48	Certain	5.3	-8.7	4.0	Yes	n/a	13.9977349943375	n/a	n/a	n/a	ShowResult	Gain
138.731	2.0	0.019	218.678	10.0	1	-1.0	-1.0	15.4175	955.0	2.48	Certain	5.3	-8.7	4.0	Yes	n/a	13.9977349943375	n/a	n/a	n/a	ISITrial	Gain
140.754	4.0	0.023	220.701	10.0	1	-1.0	-1.0	15.4175	955.0	2.48	Certain	5.3	-8.7	4.0	Yes	n/a	13.9977349943375	n/a	n/a	n/a	TrialHappPreview	Gain
144.783	4.012	0.029	224.73	10.0	1	-1.0	-1.0	15.4175	955.0	2.48	Certain	5.3	-8.7	4.0	Yes	n/a	13.9977349943375	n/a	n/a	456.0	TrialHappiness	Gain
144.783	0.254	n/a	225.235	10.0	1	-1.0	-1.0	15.4175	955.0	2.48	Certain	5.3	-8.7	4.0	Yes	n/a	13.9977349943375	n/a	n/a	456.0	TrialHappinessSliderResponse	Gain
148.795	8.0	4.012	228.742	10.0	1	-1.0	-1.0	15.4175	955.0	2.48	Certain	5.3	-8.7	4.0	Yes	n/a	13.9977349943375	n/a	n/a	n/a	ISIRate	Gain
156.819	3.0	0.024	236.766	11.0	1	-1.02	0.0	15.29	955.0	0.82	Outcome2	1.5	-1.02	0.0	No	2.0	-2.52161192902982	1.378	158.197	n/a	GetAnswer	Mixed
158.223	4.0	0.026	238.17	11.0	1	-1.02	0.0	15.29	955.0	0.82	Outcome2	1.5	-1.02	0.0	No	n/a	-2.52161192902982	n/a	n/a	n/a	ShowChoice	Mixed
162.235	1.0	0.012	242.182	11.0	1	-1.02	0.0	15.29	955.0	0.82	Outcome2	1.5	-1.02	0.0	No	n/a	-2.52161192902982	n/a	n/a	n/a	ShowResult	Mixed
163.255	3.324	0.02	243.202	11.0	1	-1.02	0.0	15.29	955.0	0.82	Outcome2	1.5	-1.02	0.0	No	n/a	-2.52161192902982	n/a	n/a	n/a	ISITrial	Mixed
166.598	3.0	0.019	246.545	12.0	1	11.1	-1.95	16.6775	955.0	2.22	Outcome1	11.1	-3.9	2.61875	Yes	2.0	15.001132502831302	1.283	167.881	n/a	GetAnswer	Loss
167.902	4.0	0.021	247.849	12.0	1	11.1	-1.95	16.6775	955.0	2.22	Outcome1	11.1	-3.9	2.61875	Yes	n/a	15.001132502831302	n/a	n/a	n/a	ShowChoice	Loss
171.914	1.0	0.012	251.861	12.0	1	11.1	-1.95	16.6775	955.0	2.22	Outcome1	11.1	-3.9	2.61875	Yes	n/a	15.001132502831302	n/a	n/a	n/a	ShowResult	Loss
172.934	6.642	0.02	252.881	12.0	1	11.1	-1.95	16.6775	955.0	2.22	Outcome1	11.1	-3.9	2.61875	Yes	n/a	15.001132502831302	n/a	n/a	n/a	ISITrial	Loss
179.587	2.619	0.011	259.534	12.0	1	11.1	-1.95	16.6775	955.0	2.22	Outcome1	11.1	-3.9	2.61875	Yes	n/a	15.001132502831302	n/a	n/a	n/a	TrialHappPreview	Loss
182.228	4.012	0.022	262.175	12.0	1	11.1	-1.95	16.6775	955.0	2.22	Outcome1	11.1	-3.9	2.61875	Yes	n/a	15.001132502831302	n/a	n/a	452.0	TrialHappiness	Loss
182.229	1.685	n/a	263.029	12.0	1	11.1	-1.95	16.6775	955.0	2.22	Outcome1	11.1	-3.9	2.61875	Yes	n/a	15.001132502831302	n/a	n/a	452.0	TrialHappinessSliderResponse	Loss
186.24	2.475	4.012	266.187	12.0	1	11.1	-1.95	16.6775	955.0	2.22	Outcome1	11.1	-3.9	2.61875	Yes	n/a	15.001132502831302	n/a	n/a	n/a	ISIRate	Loss
188.731	3.0	0.016	268.678	13.0	1	13.5	-1.06	18.365	955.0	2.8	Outcome1	13.5	-2.13	0.0	No	2.0	15.634201585504	1.218	189.949	n/a	GetAnswer	Loss
189.968	4.0	0.019	269.915	13.0	1	13.5	-1.06	18.365	955.0	2.8	Outcome1	13.5	-2.13	0.0	No	n/a	15.634201585504	n/a	n/a	n/a	ShowChoice	Loss
193.98	1.0	0.012	273.927	13.0	1	13.5	-1.06	18.365	955.0	2.8	Outcome1	13.5	-2.13	0.0	No	n/a	15.634201585504	n/a	n/a	n/a	ShowResult	Loss
194.999	3.48	0.019	274.946	13.0	1	13.5	-1.06	18.365	955.0	2.8	Outcome1	13.5	-2.13	0.0	No	n/a	15.634201585504	n/a	n/a	n/a	ISITrial	Loss
198.51	3.0	0.031	278.457	14.0	1	10.7	2.0	19.7025	955.0	1.82	Outcome2	-5.5	10.7	0.0	No	2.0	16.2038505096263	1.211	199.721	n/a	GetAnswer	Loss
199.747	4.0	0.026	279.694	14.0	1	10.7	2.0	19.7025	955.0	1.82	Outcome2	-5.5	10.7	0.0	No	n/a	16.2038505096263	n/a	n/a	n/a	ShowChoice	Loss
203.759	1.0	0.012	283.706	14.0	1	10.7	2.0	19.7025	955.0	1.82	Outcome2	-5.5	10.7	0.0	No	n/a	16.2038505096263	n/a	n/a	n/a	ShowResult	Loss
204.779	5.019	0.02	284.726	14.0	1	10.7	2.0	19.7025	955.0	1.82	Outcome2	-5.5	10.7	0.0	No	n/a	16.2038505096263	n/a	n/a	n/a	ISITrial	Loss
209.827	3.0	0.029	289.774	15.0	1	1.17	2.0	19.8488	955.0	1.2	Outcome1	1.17	3.9	3.3485	Yes	2.0	-2.72697244243111	1.378	211.205	n/a	GetAnswer	Mixed
211.231	4.0	0.026	291.178	15.0	1	1.17	2.0	19.8488	955.0	1.2	Outcome1	1.17	3.9	3.3485	Yes	n/a	-2.72697244243111	n/a	n/a	n/a	ShowChoice	Mixed
215.243	1.0	0.012	295.19	15.0	1	1.17	2.0	19.8488	955.0	1.2	Outcome1	1.17	3.9	3.3485	Yes	n/a	-2.72697244243111	n/a	n/a	n/a	ShowResult	Mixed
216.263	7.614	0.02	296.21	15.0	1	1.17	2.0	19.8488	955.0	1.2	Outcome1	1.17	3.9	3.3485	Yes	n/a	-2.72697244243111	n/a	n/a	n/a	ISITrial	Mixed
223.902	3.348	0.025	303.849	15.0	1	1.17	2.0	19.8488	955.0	1.2	Outcome1	1.17	3.9	3.3485	Yes	n/a	-2.72697244243111	n/a	n/a	n/a	TrialHappPreview	Mixed
227.279	4.012	0.029	307.226	15.0	1	1.17	2.0	19.8488	955.0	1.2	Outcome1	1.17	3.9	3.3485	Yes	n/a	-2.72697244243111	n/a	n/a	456.0	TrialHappiness	Mixed
227.28	0.265	n/a	307.989	15.0	1	1.17	2.0	19.8488	955.0	1.2	Outcome1	1.17	3.9	3.3485	Yes	n/a	-2.72697244243111	n/a	n/a	456.0	TrialHappinessSliderResponse	Mixed
231.291	5.394	4.012	311.238	15.0	1	1.17	2.0	19.8488	955.0	1.2	Outcome1	1.17	3.9	3.3485	Yes	n/a	-2.72697244243111	n/a	n/a	n/a	ISIRate	Mixed
236.707	3.0	0.022	316.654	16.0	1	-2.0	-2.0	19.5988	955.0	4.2	Certain	6.1	-11.18	0.0	No	4.0	17.2751981879955	1.782	238.489	n/a	GetAnswer	Gain
238.513	4.0	0.024	318.46	16.0	1	-2.0	-2.0	19.5988	955.0	4.2	Certain	6.1	-11.18	0.0	No	n/a	17.2751981879955	n/a	n/a	n/a	ShowChoice	Gain
242.525	1.0	0.012	322.472	16.0	1	-2.0	-2.0	19.5988	955.0	4.2	Certain	6.1	-11.18	0.0	No	n/a	17.2751981879955	n/a	n/a	n/a	ShowResult	Gain
243.544	3.008	0.019	323.491	16.0	1	-2.0	-2.0	19.5988	955.0	4.2	Certain	6.1	-11.18	0.0	No	n/a	17.2751981879955	n/a	n/a	n/a	ISITrial	Gain
246.57	3.0	0.018	326.517	17.0	1	-10.0	-10.0	18.3488	955.0	0.3	Certain	-19.14	-1.3	3.0415	Yes	4.0	17.840317100792802	2.007	248.577	n/a	GetAnswer	Mixed
248.593	4.0	0.016	328.54	17.0	1	-10.0	-10.0	18.3488	955.0	0.3	Certain	-19.14	-1.3	3.0415	Yes	n/a	17.840317100792802	n/a	n/a	n/a	ShowChoice	Mixed
252.605	1.0	0.012	332.552	17.0	1	-10.0	-10.0	18.3488	955.0	0.3	Certain	-19.14	-1.3	3.0415	Yes	n/a	17.840317100792802	n/a	n/a	n/a	ShowResult	Mixed
253.625	3.566	0.02	333.572	17.0	1	-10.0	-10.0	18.3488	955.0	0.3	Certain	-19.14	-1.3	3.0415	Yes	n/a	17.840317100792802	n/a	n/a	n/a	ISITrial	Mixed
257.202	3.042	0.011	337.149	17.0	1	-10.0	-10.0	18.3488	955.0	0.3	Certain	-19.14	-1.3	3.0415	Yes	n/a	17.840317100792802	n/a	n/a	n/a	TrialHappPreview	Mixed
260.261	4.012	0.017	340.208	17.0	1	-10.0	-10.0	18.3488	955.0	0.3	Certain	-19.14	-1.3	3.0415	Yes	n/a	17.840317100792802	n/a	n/a	452.0	TrialHappiness	Mixed
260.262	1.517	n/a	340.952	17.0	1	-10.0	-10.0	18.3488	955.0	0.3	Certain	-19.14	-1.3	3.0415	Yes	n/a	17.840317100792802	n/a	n/a	452.0	TrialHappinessSliderResponse	Mixed
264.273	4.166	4.012	344.22	17.0	1	-10.0	-10.0	18.3488	955.0	0.3	Certain	-19.14	-1.3	3.0415	Yes	n/a	17.840317100792802	n/a	n/a	n/a	ISIRate	Mixed
268.469	3.0	0.03	348.416	18.0	1	9.7	0.0	19.5613	955.0	3.16	Outcome2	-8.77	9.7	0.0	No	2.0	18.4733861834655	1.314	269.783	n/a	GetAnswer	Gain
269.806	4.0	0.023	349.753	18.0	1	9.7	0.0	19.5613	955.0	3.16	Outcome2	-8.77	9.7	0.0	No	n/a	18.4733861834655	n/a	n/a	n/a	ShowChoice	Gain
273.818	1.0	0.012	353.765	18.0	1	9.7	0.0	19.5613	955.0	3.16	Outcome2	-8.77	9.7	0.0	No	n/a	18.4733861834655	n/a	n/a	n/a	ShowResult	Gain
274.838	6.787	0.02	354.785	18.0	1	9.7	0.0	19.5613	955.0	3.16	Outcome2	-8.77	9.7	0.0	No	n/a	18.4733861834655	n/a	n/a	n/a	ISITrial	Gain
281.642	3.0	0.017	361.589	19.0	1	6.58	3.29	20.3838	955.0	2.8	Outcome2	9.5	6.58	0.0	No	2.0	-2.91610041525104	1.23	282.872	n/a	GetAnswer	Gain
282.895	4.0	0.023	362.842	19.0	1	6.58	3.29	20.3838	955.0	2.8	Outcome2	9.5	6.58	0.0	No	n/a	-2.91610041525104	n/a	n/a	n/a	ShowChoice	Gain
286.907	1.0	0.012	366.854	19.0	1	6.58	3.29	20.3838	955.0	2.8	Outcome2	9.5	6.58	0.0	No	n/a	-2.91610041525104	n/a	n/a	n/a	ShowResult	Gain
287.927	2.0	0.02	367.874	19.0	1	6.58	3.29	20.3838	955.0	2.8	Outcome2	9.5	6.58	0.0	No	n/a	-2.91610041525104	n/a	n/a	n/a	ISITrial	Gain
289.95	3.0	0.023	369.897	20.0	1	3.54	1.77	20.8263	955.0	1.68	Outcome2	6.5	3.54	2.92125	Yes	2.0	-2.9635711589279	1.054	291.004	n/a	GetAnswer	Gain
291.02	4.0	0.016	370.967	20.0	1	3.54	1.77	20.8263	955.0	1.68	Outcome2	6.5	3.54	2.92125	Yes	n/a	-2.9635711589279	n/a	n/a	n/a	ShowChoice	Gain
295.032	1.0	0.012	374.979	20.0	1	3.54	1.77	20.8263	955.0	1.68	Outcome2	6.5	3.54	2.92125	Yes	n/a	-2.9635711589279	n/a	n/a	n/a	ShowResult	Gain
296.051	8.0	0.019	375.998	20.0	1	3.54	1.77	20.8263	955.0	1.68	Outcome2	6.5	3.54	2.92125	Yes	n/a	-2.9635711589279	n/a	n/a	n/a	ISITrial	Gain
304.075	2.921	0.024	384.022	20.0	1	3.54	1.77	20.8263	955.0	1.68	Outcome2	6.5	3.54	2.92125	Yes	n/a	-2.9635711589279	n/a	n/a	n/a	TrialHappPreview	Gain
307.017	4.012	0.021	386.964	20.0	1	3.54	1.77	20.8263	955.0	1.68	Outcome2	6.5	3.54	2.92125	Yes	n/a	-2.9635711589279	n/a	n/a	456.0	TrialHappiness	Gain
307.018	0.244	n/a	387.532	20.0	1	3.54	1.77	20.8263	955.0	1.68	Outcome2	6.5	3.54	2.92125	Yes	n/a	-2.9635711589279	n/a	n/a	456.0	TrialHappinessSliderResponse	Gain
311.029	3.685	4.012	390.976	20.0	1	3.54	1.77	20.8263	955.0	1.68	Outcome2	6.5	3.54	2.92125	Yes	n/a	-2.9635711589279	n/a	n/a	n/a	ISIRate	Gain
314.74	3.0	0.026	394.687	21.0	1	1.0	1.0	20.9513	955.0	2.0	Certain	-0.69	2.3	0.0	No	4.0	-2.9948093620234104	1.717	316.457	n/a	GetAnswer	Mixed
316.479	4.0	0.022	396.426	21.0	1	1.0	1.0	20.9513	955.0	2.0	Certain	-0.69	2.3	0.0	No	n/a	-2.9948093620234104	n/a	n/a	n/a	ShowChoice	Mixed
320.491	1.0	0.012	400.438	21.0	1	1.0	1.0	20.9513	955.0	2.0	Certain	-0.69	2.3	0.0	No	n/a	-2.9948093620234104	n/a	n/a	n/a	ShowResult	Mixed
321.511	3.555	0.02	401.458	21.0	1	1.0	1.0	20.9513	955.0	2.0	Certain	-0.69	2.3	0.0	No	n/a	-2.9948093620234104	n/a	n/a	n/a	ISITrial	Mixed
325.088	3.0	0.022	405.035	22.0	1	1.0	1.0	21.0763	955.0	0.3	Certain	-0.34	2.7	3.2195	Yes	4.0	-3.0419026047565096	1.302	326.39	n/a	GetAnswer	Mixed
326.409	4.0	0.019	406.356	22.0	1	1.0	1.0	21.0763	955.0	0.3	Certain	-0.34	2.7	3.2195	Yes	n/a	-3.0419026047565096	n/a	n/a	n/a	ShowChoice	Mixed
330.421	1.0	0.012	410.368	22.0	1	1.0	1.0	21.0763	955.0	0.3	Certain	-0.34	2.7	3.2195	Yes	n/a	-3.0419026047565096	n/a	n/a	n/a	ShowResult	Mixed
331.44	6.793	0.019	411.387	22.0	1	1.0	1.0	21.0763	955.0	0.3	Certain	-0.34	2.7	3.2195	Yes	n/a	-3.0419026047565096	n/a	n/a	n/a	ISITrial	Mixed
338.261	3.22	0.028	418.208	22.0	1	1.0	1.0	21.0763	955.0	0.3	Certain	-0.34	2.7	3.2195	Yes	n/a	-3.0419026047565096	n/a	n/a	n/a	TrialHappPreview	Mixed
341.504	4.012	0.023	421.451	22.0	1	1.0	1.0	21.0763	955.0	0.3	Certain	-0.34	2.7	3.2195	Yes	n/a	-3.0419026047565096	n/a	n/a	492.0	TrialHappiness	Mixed
341.504	2.231	n/a	421.973	22.0	1	1.0	1.0	21.0763	955.0	0.3	Certain	-0.34	2.7	3.2195	Yes	n/a	-3.0419026047565096	n/a	n/a	492.0	TrialHappinessSliderResponse	Mixed
345.516	4.878	4.012	425.463	22.0	1	1.0	1.0	21.0763	955.0	0.3	Certain	-0.34	2.7	3.2195	Yes	n/a	-3.0419026047565096	n/a	n/a	n/a	ISIRate	Mixed
350.414	3.0	0.02	430.361	23.0	1	9.76	4.88	22.2963	955.0	1.82	Outcome1	9.76	12.7	0.0	No	2.0	-2.94290298225746	1.162	351.576	n/a	GetAnswer	Loss
351.6	4.0	0.024	431.547	23.0	1	9.76	4.88	22.2963	955.0	1.82	Outcome1	9.76	12.7	0.0	No	n/a	-2.94290298225746	n/a	n/a	n/a	ShowChoice	Loss
355.612	1.0	0.012	435.559	23.0	1	9.76	4.88	22.2963	955.0	1.82	Outcome1	9.76	12.7	0.0	No	n/a	-2.94290298225746	n/a	n/a	n/a	ShowResult	Loss
356.632	8.0	0.02	436.579	23.0	1	9.76	4.88	22.2963	955.0	1.82	Outcome1	9.76	12.7	0.0	No	n/a	-2.94290298225746	n/a	n/a	n/a	ISITrial	Loss
364.656	3.0	0.024	444.603	24.0	1	5.91	2.96	23.0351	955.0	2.0	Outcome2	8.9	5.91	3.255	Yes	2.0	-2.98659871649679	1.078	365.734	n/a	GetAnswer	Gain
365.759	4.0	0.025	445.706	24.0	1	5.91	2.96	23.0351	955.0	2.0	Outcome2	8.9	5.91	3.255	Yes	n/a	-2.98659871649679	n/a	n/a	n/a	ShowChoice	Gain
369.771	1.0	0.012	449.718	24.0	1	5.91	2.96	23.0351	955.0	2.0	Outcome2	8.9	5.91	3.255	Yes	n/a	-2.98659871649679	n/a	n/a	n/a	ShowResult	Gain
370.791	2.0	0.02	450.738	24.0	1	5.91	2.96	23.0351	955.0	2.0	Outcome2	8.9	5.91	3.255	Yes	n/a	-2.98659871649679	n/a	n/a	n/a	ISITrial	Gain
372.814	3.255	0.023	452.761	24.0	1	5.91	2.96	23.0351	955.0	2.0	Outcome2	8.9	5.91	3.255	Yes	n/a	-2.98659871649679	n/a	n/a	n/a	TrialHappPreview	Gain
376.09	4.012	0.021	456.037	24.0	1	5.91	2.96	23.0351	955.0	2.0	Outcome2	8.9	5.91	3.255	Yes	n/a	-2.98659871649679	n/a	n/a	512.0	TrialHappiness	Gain
376.091	0.69	n/a	456.974	24.0	1	5.91	2.96	23.0351	955.0	2.0	Outcome2	8.9	5.91	3.255	Yes	n/a	-2.98659871649679	n/a	n/a	512.0	TrialHappinessSliderResponse	Gain
380.102	5.02	4.012	460.049	24.0	1	5.91	2.96	23.0351	955.0	2.0	Outcome2	8.9	5.91	3.255	Yes	n/a	-2.98659871649679	n/a	n/a	n/a	ISIRate	Gain
385.151	3.0	0.029	465.098	25.0	1	-4.0	-4.0	22.5351	955.0	2.0	Certain	-14.44	6.9	0.0	No	4.0	21.3420158550396	2.012	387.163	n/a	GetAnswer	Gain
387.19	4.0	0.027	467.137	25.0	1	-4.0	-4.0	22.5351	955.0	2.0	Certain	-14.44	6.9	0.0	No	n/a	21.3420158550396	n/a	n/a	n/a	ShowChoice	Gain
391.202	1.0	0.012	471.149	25.0	1	-4.0	-4.0	22.5351	955.0	2.0	Certain	-14.44	6.9	0.0	No	n/a	21.3420158550396	n/a	n/a	n/a	ShowResult	Gain
392.222	3.749	0.02	472.169	25.0	1	-4.0	-4.0	22.5351	955.0	2.0	Certain	-14.44	6.9	0.0	No	n/a	21.3420158550396	n/a	n/a	n/a	ISITrial	Gain
396.0	3.0	0.029	475.947	26.0	1	7.31	3.66	23.4489	955.0	5.0	Outcome1	7.31	10.3	0.0	No	2.0	-2.99093997734994	1.364	397.364	n/a	GetAnswer	Gain
397.387	4.0	0.023	477.334	26.0	1	7.31	3.66	23.4489	955.0	5.0	Outcome1	7.31	10.3	0.0	No	n/a	-2.99093997734994	n/a	n/a	n/a	ShowChoice	Gain
401.399	1.0	0.012	481.346	26.0	1	7.31	3.66	23.4489	955.0	5.0	Outcome1	7.31	10.3	0.0	No	n/a	-2.99093997734994	n/a	n/a	n/a	ShowResult	Gain
402.419	7.834	0.02	482.366	26.0	1	7.31	3.66	23.4489	955.0	5.0	Outcome1	7.31	10.3	0.0	No	n/a	-2.99093997734994	n/a	n/a	n/a	ISITrial	Gain
410.276	3.0	0.023	490.223	27.0	1	12.5	1.0	25.0114	955.0	1.68	Outcome2	-9.85	12.5	2.54975	Yes	2.0	22.3454133635334	1.583	411.859	n/a	GetAnswer	Loss
411.88	4.0	0.021	491.827	27.0	1	12.5	1.0	25.0114	955.0	1.68	Outcome2	-9.85	12.5	2.54975	Yes	n/a	22.3454133635334	n/a	n/a	n/a	ShowChoice	Loss
415.892	1.0	0.012	495.839	27.0	1	12.5	1.0	25.0114	955.0	1.68	Outcome2	-9.85	12.5	2.54975	Yes	n/a	22.3454133635334	n/a	n/a	n/a	ShowResult	Loss
416.912	4.225	0.02	496.859	27.0	1	12.5	1.0	25.0114	955.0	1.68	Outcome2	-9.85	12.5	2.54975	Yes	n/a	22.3454133635334	n/a	n/a	n/a	ISITrial	Loss
421.158	2.55	0.021	501.105	27.0	1	12.5	1.0	25.0114	955.0	1.68	Outcome2	-9.85	12.5	2.54975	Yes	n/a	22.3454133635334	n/a	n/a	n/a	TrialHappPreview	Loss
423.733	4.012	0.025	503.68	27.0	1	12.5	1.0	25.0114	955.0	1.68	Outcome2	-9.85	12.5	2.54975	Yes	n/a	22.3454133635334	n/a	n/a	492.0	TrialHappiness	Loss
423.733	0.137	n/a	505.172	27.0	1	12.5	1.0	25.0114	955.0	1.68	Outcome2	-9.85	12.5	2.54975	Yes	n/a	22.3454133635334	n/a	n/a	492.0	TrialHappinessSliderResponse	Loss
427.745	2.199	4.012	507.692	27.0	1	12.5	1.0	25.0114	955.0	1.68	Outcome2	-9.85	12.5	2.54975	Yes	n/a	22.3454133635334	n/a	n/a	n/a	ISIRate	Loss
499.743	2.182	n/a	580.261	n/a	1	n/a	n/a	n/a	n/a	n/a	n/a	n/a	n/a	n/a	n/a	n/a	n/a	n/a	n/a	464.0	BlockStartHappinessSliderResponse	n/a
-78.969	-0.001	0.024	509.915	n/a	2	n/a	n/a	n/a	n/a	n/a	n/a	n/a	n/a	n/a	n/a	{SPACE}	n/a	65.738	-13.231	n/a	Rest	n/a
-13.206	4.0	0.025	575.678	n/a	2	n/a	n/a	n/a	n/a	n/a	n/a	n/a	n/a	n/a	n/a	n/a	n/a	n/a	n/a	n/a	BlockHappyPreview	n/a
-9.194	2.753	0.012	579.69	n/a	2	n/a	n/a	n/a	n/a	n/a	n/a	n/a	n/a	n/a	n/a	n/a	n/a	n/a	n/a	464.0	BlockStartHappiness	n/a
-1.354	-0.001	0.021	587.53	n/a	2	n/a	n/a	n/a	n/a	n/a	n/a	n/a	n/a	n/a	n/a	5.0	n/a	1.337	-0.017	n/a	ScanWait	n/a
0.0	10.0	0.017	588.884	n/a	2	n/a	n/a	n/a	n/a	n/a	n/a	n/a	n/a	n/a	n/a	n/a	n/a	n/a	n/a	n/a	GetReady	n/a
10.03	3.0	0.03	598.914	28.0	2	-1.6	2.0	24.8114	70.0	2.22	Outcome2	5.1	-1.6	0.0	No	2.0	-6.70068027210884	1.383	11.413	n/a	GetAnswer	Gain
11.434	4.0	0.021	600.318	28.0	2	-1.6	2.0	24.8114	70.0	2.22	Outcome2	5.1	-1.6	0.0	No	n/a	-6.70068027210884	n/a	n/a	n/a	ShowChoice	Gain
15.446	1.0	0.012	604.33	28.0	2	-1.6	2.0	24.8114	70.0	2.22	Outcome2	5.1	-1.6	0.0	No	n/a	-6.70068027210884	n/a	n/a	n/a	ShowResult	Gain
16.466	3.575	0.02	605.35	28.0	2	-1.6	2.0	24.8114	70.0	2.22	Outcome2	5.1	-1.6	0.0	No	n/a	-6.70068027210884	n/a	n/a	n/a	ISITrial	Gain
20.06	3.0	0.019	608.944	29.0	2	-2.0	-2.0	24.5614	70.0	0.52	Certain	-6.05	1.1	3.529	Yes	4.0	-7.14739229024943	1.634	21.694	n/a	GetAnswer	Mixed
21.715	4.0	0.021	610.599	29.0	2	-2.0	-2.0	24.5614	70.0	0.52	Certain	-6.05	1.1	3.529	Yes	n/a	-7.14739229024943	n/a	n/a	n/a	ShowChoice	Mixed
25.727	1.0	0.012	614.611	29.0	2	-2.0	-2.0	24.5614	70.0	0.52	Certain	-6.05	1.1	3.529	Yes	n/a	-7.14739229024943	n/a	n/a	n/a	ShowResult	Mixed
26.747	3.955	0.02	615.631	29.0	2	-2.0	-2.0	24.5614	70.0	0.52	Certain	-6.05	1.1	3.529	Yes	n/a	-7.14739229024943	n/a	n/a	n/a	ISITrial	Mixed
30.725	3.529	0.023	619.609	29.0	2	-2.0	-2.0	24.5614	70.0	0.52	Certain	-6.05	1.1	3.529	Yes	n/a	-7.14739229024943	n/a	n/a	n/a	TrialHappPreview	Mixed
34.269	4.012	0.015	623.153	29.0	2	-2.0	-2.0	24.5614	70.0	0.52	Certain	-6.05	1.1	3.529	Yes	4{-4}	-7.14739229024943	0.81	35.079	480.0	TrialHappiness	Mixed
34.27	0.21	n/a	623.754	29.0	2	-2.0	-2.0	24.5614	70.0	0.52	Certain	-6.05	1.1	3.529	Yes	n/a	-7.14739229024943	n/a	n/a	480.0	TrialHappinessSliderResponse	Mixed
38.281	6.116	4.012	627.165	29.0	2	-2.0	-2.0	24.5614	70.0	0.52	Certain	-6.05	1.1	3.529	Yes	n/a	-7.14739229024943	n/a	n/a	n/a	ISIRate	Mixed
44.416	3.0	0.019	633.3	30.0	2	0.83	0.42	24.6652	70.0	1.82	Outcome1	0.83	8.7	0.0	No	2.0	-7.86621315192744	1.412	45.828	n/a	GetAnswer	Gain
45.854	4.0	0.026	634.738	30.0	2	0.83	0.42	24.6652	70.0	1.82	Outcome1	0.83	8.7	0.0	No	n/a	-7.86621315192744	n/a	n/a	n/a	ShowChoice	Gain
49.866	1.0	0.012	638.75	30.0	2	0.83	0.42	24.6652	70.0	1.82	Outcome1	0.83	8.7	0.0	No	n/a	-7.86621315192744	n/a	n/a	n/a	ShowResult	Gain
50.885	4.453	0.019	639.769	30.0	2	0.83	0.42	24.6652	70.0	1.82	Outcome1	0.83	8.7	0.0	No	n/a	-7.86621315192744	n/a	n/a	n/a	ISITrial	Gain
55.365	3.0	0.027	644.249	31.0	2	2.12	1.0	24.9302	70.0	1.68	Outcome2	0.34	2.12	2.50325	Yes	2.0	1.77891156462585	1.555	56.92	n/a	GetAnswer	Gain
56.937	4.0	0.017	645.821	31.0	2	2.12	1.0	24.9302	70.0	1.68	Outcome2	0.34	2.12	2.50325	Yes	n/a	1.77891156462585	n/a	n/a	n/a	ShowChoice	Gain
60.949	1.0	0.012	649.833	31.0	2	2.12	1.0	24.9302	70.0	1.68	Outcome2	0.34	2.12	2.50325	Yes	n/a	1.77891156462585	n/a	n/a	n/a	ShowResult	Gain
61.968	4.786	0.019	650.852	31.0	2	2.12	1.0	24.9302	70.0	1.68	Outcome2	0.34	2.12	2.50325	Yes	n/a	1.77891156462585	n/a	n/a	n/a	ISITrial	Gain
66.766	2.503	0.012	655.65	31.0	2	2.12	1.0	24.9302	70.0	1.68	Outcome2	0.34	2.12	2.50325	Yes	n/a	1.77891156462585	n/a	n/a	n/a	TrialHappPreview	Gain
69.29	4.012	0.021	658.174	31.0	2	2.12	1.0	24.9302	70.0	1.68	Outcome2	0.34	2.12	2.50325	Yes	n/a	1.77891156462585	n/a	n/a	472.0	TrialHappiness	Gain
69.291	1.265	n/a	658.634	31.0	2	2.12	1.0	24.9302	70.0	1.68	Outcome2	0.34	2.12	2.50325	Yes	n/a	1.77891156462585	n/a	n/a	472.0	TrialHappinessSliderResponse	Gain
73.302	2.013	4.012	662.186	31.0	2	2.12	1.0	24.9302	70.0	1.68	Outcome2	0.34	2.12	2.50325	Yes	n/a	1.77891156462585	n/a	n/a	n/a	ISIRate	Gain
75.342	3.0	0.027	664.226	32.0	2	-5.0	-5.0	24.3052	70.0	0.4	Certain	-1.1	-9.76	0.0	No	4.0	-8.65986394557823	2.031	77.373	n/a	GetAnswer	Mixed
77.398	4.0	0.025	666.282	32.0	2	-5.0	-5.0	24.3052	70.0	0.4	Certain	-1.1	-9.76	0.0	No	n/a	-8.65986394557823	n/a	n/a	n/a	ShowChoice	Mixed
81.41	1.0	0.012	670.294	32.0	2	-5.0	-5.0	24.3052	70.0	0.4	Certain	-1.1	-9.76	0.0	No	n/a	-8.65986394557823	n/a	n/a	n/a	ShowResult	Mixed
82.43	2.0	0.02	671.314	32.0	2	-5.0	-5.0	24.3052	70.0	0.4	Certain	-1.1	-9.76	0.0	No	n/a	-8.65986394557823	n/a	n/a	n/a	ISITrial	Mixed
84.452	3.0	0.022	673.336	33.0	2	1.58	0.0	24.5027	70.0	5.0	Outcome1	1.58	-0.24	0.0	No	2.0	1.82312925170068	2.564	87.016	n/a	GetAnswer	Gain
87.043	4.0	0.027	675.927	33.0	2	1.58	0.0	24.5027	70.0	5.0	Outcome1	1.58	-0.24	0.0	No	n/a	1.82312925170068	n/a	n/a	n/a	ShowChoice	Gain
91.055	1.0	0.012	679.939	33.0	2	1.58	0.0	24.5027	70.0	5.0	Outcome1	1.58	-0.24	0.0	No	n/a	1.82312925170068	n/a	n/a	n/a	ShowResult	Gain
92.075	5.099	0.02	680.959	33.0	2	1.58	0.0	24.5027	70.0	5.0	Outcome1	1.58	-0.24	0.0	No	n/a	1.82312925170068	n/a	n/a	n/a	ISITrial	Gain
97.19	3.0	0.016	686.074	34.0	2	-6.67	-2.0	23.6689	70.0	0.4	Outcome1	-6.67	2.9	3.2315	Yes	2.0	-9.571428571428571	2.23	99.42	n/a	GetAnswer	Mixed
99.447	4.0	0.027	688.331	34.0	2	-6.67	-2.0	23.6689	70.0	0.4	Outcome1	-6.67	2.9	3.2315	Yes	n/a	-9.571428571428571	n/a	n/a	n/a	ShowChoice	Mixed
103.459	1.0	0.012	692.343	34.0	2	-6.67	-2.0	23.6689	70.0	0.4	Outcome1	-6.67	2.9	3.2315	Yes	n/a	-9.571428571428571	n/a	n/a	n/a	ShowResult	Mixed
104.479	4.784	0.02	693.363	34.0	2	-6.67	-2.0	23.6689	70.0	0.4	Outcome1	-6.67	2.9	3.2315	Yes	n/a	-9.571428571428571	n/a	n/a	n/a	ISITrial	Mixed
109.276	3.232	0.013	698.16	34.0	2	-6.67	-2.0	23.6689	70.0	0.4	Outcome1	-6.67	2.9	3.2315	Yes	n/a	-9.571428571428571	n/a	n/a	n/a	TrialHappPreview	Mixed
112.536	4.012	0.028	701.42	34.0	2	-6.67	-2.0	23.6689	70.0	0.4	Outcome1	-6.67	2.9	3.2315	Yes	4{-4}4{-4}	-9.571428571428571	2.594	115.13	476.0	TrialHappiness	Mixed
112.537	0.639	n/a	703.376	34.0	2	-6.67	-2.0	23.6689	70.0	0.4	Outcome1	-6.67	2.9	3.2315	Yes	n/a	-9.571428571428571	n/a	n/a	476.0	TrialHappinessSliderResponse	Mixed
116.548	4.926	4.012	705.432	34.0	2	-6.67	-2.0	23.6689	70.0	0.4	Outcome1	-6.67	2.9	3.2315	Yes	n/a	-9.571428571428571	n/a	n/a	n/a	ISIRate	Mixed
121.496	3.0	0.022	710.38	35.0	2	-1.0	-0.5	23.5439	70.0	2.22	Outcome1	-1.0	9.1	0.0	No	2.0	-10.095238095238098	1.475	122.971	n/a	GetAnswer	Gain
122.984	4.0	0.013	711.868	35.0	2	-1.0	-0.5	23.5439	70.0	2.22	Outcome1	-1.0	9.1	0.0	No	n/a	-10.095238095238098	n/a	n/a	n/a	ShowChoice	Gain
126.996	1.0	0.012	715.88	35.0	2	-1.0	-0.5	23.5439	70.0	2.22	Outcome1	-1.0	9.1	0.0	No	n/a	-10.095238095238098	n/a	n/a	n/a	ShowResult	Gain
128.016	2.098	0.02	716.9	35.0	2	-1.0	-0.5	23.5439	70.0	2.22	Outcome1	-1.0	9.1	0.0	No	n/a	-10.095238095238098	n/a	n/a	n/a	ISITrial	Gain
130.139	3.0	0.025	719.023	36.0	2	-8.46	-3.0	22.4864	70.0	1.5	Outcome2	2.1	-8.46	3.33575	Yes	2.0	-10.5555555555556	2.455	132.594	n/a	GetAnswer	Mixed
132.613	4.0	0.019	721.497	36.0	2	-8.46	-3.0	22.4864	70.0	1.5	Outcome2	2.1	-8.46	3.33575	Yes	n/a	-10.5555555555556	n/a	n/a	n/a	ShowChoice	Mixed
136.625	1.0	0.012	725.509	36.0	2	-8.46	-3.0	22.4864	70.0	1.5	Outcome2	2.1	-8.46	3.33575	Yes	n/a	-10.5555555555556	n/a	n/a	n/a	ShowResult	Mixed
137.644	5.156	0.019	726.528	36.0	2	-8.46	-3.0	22.4864	70.0	1.5	Outcome2	2.1	-8.46	3.33575	Yes	n/a	-10.5555555555556	n/a	n/a	n/a	ISITrial	Mixed
142.827	3.336	0.027	731.711	36.0	2	-8.46	-3.0	22.4864	70.0	1.5	Outcome2	2.1	-8.46	3.33575	Yes	n/a	-10.5555555555556	n/a	n/a	n/a	TrialHappPreview	Mixed
146.187	4.012	0.024	735.071	36.0	2	-8.46	-3.0	22.4864	70.0	1.5	Outcome2	2.1	-8.46	3.33575	Yes	n/a	-10.5555555555556	n/a	n/a	456.0	TrialHappiness	Mixed
146.187	0.253	n/a	735.776	36.0	2	-8.46	-3.0	22.4864	70.0	1.5	Outcome2	2.1	-8.46	3.33575	Yes	n/a	-10.5555555555556	n/a	n/a	456.0	TrialHappinessSliderResponse	Mixed
150.199	5.343	4.012	739.083	36.0	2	-8.46	-3.0	22.4864	70.0	1.5	Outcome2	2.1	-8.46	3.33575	Yes	n/a	-10.5555555555556	n/a	n/a	n/a	ISIRate	Mixed
155.565	3.0	0.023	744.449	37.0	2	-3.0	-3.0	22.1114	70.0	1.2	Certain	1.9	-8.78	0.0	No	4.0	-10.675736961451198	1.945	157.51	n/a	GetAnswer	Mixed
157.52	4.0	0.01	746.404	37.0	2	-3.0	-3.0	22.1114	70.0	1.2	Certain	1.9	-8.78	0.0	No	n/a	-10.675736961451198	n/a	n/a	n/a	ShowChoice	Mixed
161.532	1.0	0.012	750.416	37.0	2	-3.0	-3.0	22.1114	70.0	1.2	Certain	1.9	-8.78	0.0	No	n/a	-10.675736961451198	n/a	n/a	n/a	ShowResult	Mixed
162.552	3.598	0.02	751.436	37.0	2	-3.0	-3.0	22.1114	70.0	1.2	Certain	1.9	-8.78	0.0	No	n/a	-10.675736961451198	n/a	n/a	n/a	ISITrial	Mixed
166.18	3.0	0.03	755.064	38.0	2	-5.0	-5.0	21.4864	70.0	1.2	Certain	-0.1	-11.21	0.0	No	4.0	-11.1133786848073	2.811	168.991	n/a	GetAnswer	Mixed
169.005	4.0	0.014	757.889	38.0	2	-5.0	-5.0	21.4864	70.0	1.2	Certain	-0.1	-11.21	0.0	No	n/a	-11.1133786848073	n/a	n/a	n/a	ShowChoice	Mixed
173.017	1.0	0.012	761.901	38.0	2	-5.0	-5.0	21.4864	70.0	1.2	Certain	-0.1	-11.21	0.0	No	n/a	-11.1133786848073	n/a	n/a	n/a	ShowResult	Mixed
174.036	4.787	0.019	762.92	38.0	2	-5.0	-5.0	21.4864	70.0	1.2	Certain	-0.1	-11.21	0.0	No	n/a	-11.1133786848073	n/a	n/a	n/a	ISITrial	Mixed
178.851	3.0	0.028	767.735	39.0	2	-3.45	2.0	21.0552	70.0	4.2	Outcome1	-3.45	8.1	2.86425	Yes	2.0	-11.551020408163302	1.868	180.719	n/a	GetAnswer	Gain
180.74	4.0	0.021	769.624	39.0	2	-3.45	2.0	21.0552	70.0	4.2	Outcome1	-3.45	8.1	2.86425	Yes	n/a	-11.551020408163302	n/a	n/a	n/a	ShowChoice	Gain
184.752	1.0	0.012	773.636	39.0	2	-3.45	2.0	21.0552	70.0	4.2	Outcome1	-3.45	8.1	2.86425	Yes	n/a	-11.551020408163302	n/a	n/a	n/a	ShowResult	Gain
185.771	2.348	0.019	774.655	39.0	2	-3.45	2.0	21.0552	70.0	4.2	Outcome1	-3.45	8.1	2.86425	Yes	n/a	-11.551020408163302	n/a	n/a	n/a	ISITrial	Gain
188.145	2.864	0.026	777.029	39.0	2	-3.45	2.0	21.0552	70.0	4.2	Outcome1	-3.45	8.1	2.86425	Yes	n/a	-11.551020408163302	n/a	n/a	n/a	TrialHappPreview	Gain
191.037	4.012	0.028	779.921	39.0	2	-3.45	2.0	21.0552	70.0	4.2	Outcome1	-3.45	8.1	2.86425	Yes	n/a	-11.551020408163302	n/a	n/a	388.0	TrialHappiness	Gain
191.038	2.035	n/a	780.278	39.0	2	-3.45	2.0	21.0552	70.0	4.2	Outcome1	-3.45	8.1	2.86425	Yes	n/a	-11.551020408163302	n/a	n/a	388.0	TrialHappinessSliderResponse	Gain
195.049	3.457	4.012	783.933	39.0	2	-3.45	2.0	21.0552	70.0	4.2	Outcome1	-3.45	8.1	2.86425	Yes	n/a	-11.551020408163302	n/a	n/a	n/a	ISIRate	Gain
198.526	3.0	0.02	787.41	40.0	2	-4.13	1.0	20.539	70.0	1.82	Outcome2	6.7	-4.13	0.0	No	2.0	-10.8321995464853	1.734	200.26	n/a	GetAnswer	Gain
200.281	4.0	0.021	789.165	40.0	2	-4.13	1.0	20.539	70.0	1.82	Outcome2	6.7	-4.13	0.0	No	n/a	-10.8321995464853	n/a	n/a	n/a	ShowChoice	Gain
204.293	1.0	0.012	793.177	40.0	2	-4.13	1.0	20.539	70.0	1.82	Outcome2	6.7	-4.13	0.0	No	n/a	-10.8321995464853	n/a	n/a	n/a	ShowResult	Gain
205.313	3.158	0.02	794.197	40.0	2	-4.13	1.0	20.539	70.0	1.82	Outcome2	6.7	-4.13	0.0	No	n/a	-10.8321995464853	n/a	n/a	n/a	ISITrial	Gain
208.489	3.0	0.018	797.373	41.0	2	1.98	1.0	20.7865	70.0	3.6	Outcome1	1.98	0.21	4.0	Yes	2.0	1.7739984882842	1.334	209.823	n/a	GetAnswer	Gain
209.843	4.0	0.02	798.727	41.0	2	1.98	1.0	20.7865	70.0	3.6	Outcome1	1.98	0.21	4.0	Yes	n/a	1.7739984882842	n/a	n/a	n/a	ShowChoice	Gain
213.855	1.0	0.012	802.739	41.0	2	1.98	1.0	20.7865	70.0	3.6	Outcome1	1.98	0.21	4.0	Yes	n/a	1.7739984882842	n/a	n/a	n/a	ShowResult	Gain
214.875	4.506	0.02	803.759	41.0	2	1.98	1.0	20.7865	70.0	3.6	Outcome1	1.98	0.21	4.0	Yes	n/a	1.7739984882842	n/a	n/a	n/a	ISITrial	Gain
219.405	4.0	0.024	808.289	41.0	2	1.98	1.0	20.7865	70.0	3.6	Outcome1	1.98	0.21	4.0	Yes	n/a	1.7739984882842	n/a	n/a	n/a	TrialHappPreview	Gain
223.434	4.012	0.029	812.318	41.0	2	1.98	1.0	20.7865	70.0	3.6	Outcome1	1.98	0.21	4.0	Yes	n/a	1.7739984882842	n/a	n/a	400.0	TrialHappiness	Gain
223.435	2.282	n/a	812.986	41.0	2	1.98	1.0	20.7865	70.0	3.6	Outcome1	1.98	0.21	4.0	Yes	n/a	1.7739984882842	n/a	n/a	400.0	TrialHappinessSliderResponse	Gain
227.446	8.0	4.012	816.33	41.0	2	1.98	1.0	20.7865	70.0	3.6	Outcome1	1.98	0.21	4.0	Yes	n/a	1.7739984882842	n/a	n/a	n/a	ISIRate	Gain
235.47	3.0	0.024	824.354	42.0	2	-6.0	-6.0	20.0365	70.0	1.5	Certain	0.1	-11.66	0.0	No	4.0	-11.7573696145125	1.621	237.091	n/a	GetAnswer	Mixed
237.108	4.0	0.017	825.992	42.0	2	-6.0	-6.0	20.0365	70.0	1.5	Certain	0.1	-11.66	0.0	No	n/a	-11.7573696145125	n/a	n/a	n/a	ShowChoice	Mixed
241.12	1.0	0.012	830.004	42.0	2	-6.0	-6.0	20.0365	70.0	1.5	Certain	0.1	-11.66	0.0	No	n/a	-11.7573696145125	n/a	n/a	n/a	ShowResult	Mixed
242.14	6.248	0.02	831.024	42.0	2	-6.0	-6.0	20.0365	70.0	1.5	Certain	0.1	-11.66	0.0	No	n/a	-11.7573696145125	n/a	n/a	n/a	ISITrial	Mixed
248.409	3.0	0.021	837.293	43.0	2	0.0	0.0	20.0365	70.0	3.16	Certain	-6.43	5.7	2.77575	Yes	4.0	-12.1315192743764	1.851	250.26	n/a	GetAnswer	Gain
250.281	4.0	0.021	839.165	43.0	2	0.0	0.0	20.0365	70.0	3.16	Certain	-6.43	5.7	2.77575	Yes	n/a	-12.1315192743764	n/a	n/a	n/a	ShowChoice	Gain
254.293	1.0	0.012	843.177	43.0	2	0.0	0.0	20.0365	70.0	3.16	Certain	-6.43	5.7	2.77575	Yes	n/a	-12.1315192743764	n/a	n/a	n/a	ShowResult	Gain
255.313	4.596	0.02	844.197	43.0	2	0.0	0.0	20.0365	70.0	3.16	Certain	-6.43	5.7	2.77575	Yes	n/a	-12.1315192743764	n/a	n/a	n/a	ISITrial	Gain
259.926	2.776	0.017	848.81	43.0	2	0.0	0.0	20.0365	70.0	3.16	Certain	-6.43	5.7	2.77575	Yes	n/a	-12.1315192743764	n/a	n/a	n/a	TrialHappPreview	Gain
262.718	4.012	0.016	851.602	43.0	2	0.0	0.0	20.0365	70.0	3.16	Certain	-6.43	5.7	2.77575	Yes	n/a	-12.1315192743764	n/a	n/a	380.0	TrialHappiness	Gain
262.719	1.752	n/a	851.951	43.0	2	0.0	0.0	20.0365	70.0	3.16	Certain	-6.43	5.7	2.77575	Yes	n/a	-12.1315192743764	n/a	n/a	380.0	TrialHappinessSliderResponse	Gain
266.73	3.103	4.012	855.614	43.0	2	0.0	0.0	20.0365	70.0	3.16	Certain	-6.43	5.7	2.77575	Yes	n/a	-12.1315192743764	n/a	n/a	n/a	ISIRate	Gain
269.856	3.0	0.023	858.74	44.0	2	1.02	0.0	20.164	70.0	1.5	Outcome1	1.02	-0.81	0.0	No	2.0	1.8339002267573703	1.45	271.306	n/a	GetAnswer	Mixed
271.327	4.0	0.021	860.211	44.0	2	1.02	0.0	20.164	70.0	1.5	Outcome1	1.02	-0.81	0.0	No	n/a	1.8339002267573703	n/a	n/a	n/a	ShowChoice	Mixed
275.339	1.0	0.012	864.223	44.0	2	1.02	0.0	20.164	70.0	1.5	Outcome1	1.02	-0.81	0.0	No	n/a	1.8339002267573703	n/a	n/a	n/a	ShowResult	Mixed
276.359	2.42	0.02	865.243	44.0	2	1.02	0.0	20.164	70.0	1.5	Outcome1	1.02	-0.81	0.0	No	n/a	1.8339002267573703	n/a	n/a	n/a	ISITrial	Mixed
278.799	3.0	0.02	867.683	45.0	2	-1.02	-0.51	20.0365	70.0	2.8	Outcome1	-1.02	11.5	0.0	No	2.0	-12.5170068027211	1.594	280.393	n/a	GetAnswer	Loss
280.421	4.0	0.028	869.305	45.0	2	-1.02	-0.51	20.0365	70.0	2.8	Outcome1	-1.02	11.5	0.0	No	n/a	-12.5170068027211	n/a	n/a	n/a	ShowChoice	Loss
284.433	1.0	0.012	873.317	45.0	2	-1.02	-0.51	20.0365	70.0	2.8	Outcome1	-1.02	11.5	0.0	No	n/a	-12.5170068027211	n/a	n/a	n/a	ShowResult	Loss
285.453	3.144	0.02	874.337	45.0	2	-1.02	-0.51	20.0365	70.0	2.8	Outcome1	-1.02	11.5	0.0	No	n/a	-12.5170068027211	n/a	n/a	n/a	ISITrial	Loss
288.629	3.0	0.032	877.513	46.0	2	-5.37	1.0	19.3653	70.0	2.8	Outcome1	-5.37	7.5	3.84125	Yes	2.0	-12.8684807256236	1.435	290.064	n/a	GetAnswer	Gain
290.083	4.0	0.019	878.967	46.0	2	-5.37	1.0	19.3653	70.0	2.8	Outcome1	-5.37	7.5	3.84125	Yes	n/a	-12.8684807256236	n/a	n/a	n/a	ShowChoice	Gain
294.095	1.0	0.012	882.979	46.0	2	-5.37	1.0	19.3653	70.0	2.8	Outcome1	-5.37	7.5	3.84125	Yes	n/a	-12.8684807256236	n/a	n/a	n/a	ShowResult	Gain
295.115	2.246	0.02	883.999	46.0	2	-5.37	1.0	19.3653	70.0	2.8	Outcome1	-5.37	7.5	3.84125	Yes	n/a	-12.8684807256236	n/a	n/a	n/a	ISITrial	Gain
297.371	3.841	0.01	886.255	46.0	2	-5.37	1.0	19.3653	70.0	2.8	Outcome1	-5.37	7.5	3.84125	Yes	n/a	-12.8684807256236	n/a	n/a	n/a	TrialHappPreview	Gain
301.233	4.012	0.021	890.117	46.0	2	-5.37	1.0	19.3653	70.0	2.8	Outcome1	-5.37	7.5	3.84125	Yes	4{-4}4{-4}4{-4}	-12.8684807256236	3.25	304.483	408.0	TrialHappiness	Gain
301.234	2.46	n/a	890.908	46.0	2	-5.37	1.0	19.3653	70.0	2.8	Outcome1	-5.37	7.5	3.84125	Yes	n/a	-12.8684807256236	n/a	n/a	408.0	TrialHappinessSliderResponse	Gain
305.245	7.365	4.012	894.129	46.0	2	-5.37	1.0	19.3653	70.0	2.8	Outcome1	-5.37	7.5	3.84125	Yes	n/a	-12.8684807256236	n/a	n/a	n/a	ISIRate	Gain
312.634	3.0	0.024	901.518	47.0	2	-4.4	2.0	18.8153	70.0	2.48	Outcome2	9.3	-4.4	0.0	No	2.0	-13.6961451247166	1.548	314.182	n/a	GetAnswer	Gain
314.205	4.0	0.023	903.089	47.0	2	-4.4	2.0	18.8153	70.0	2.48	Outcome2	9.3	-4.4	0.0	No	n/a	-13.6961451247166	n/a	n/a	n/a	ShowChoice	Gain
318.217	1.0	0.012	907.101	47.0	2	-4.4	2.0	18.8153	70.0	2.48	Outcome2	9.3	-4.4	0.0	No	n/a	-13.6961451247166	n/a	n/a	n/a	ShowResult	Gain
319.237	2.0	0.02	908.121	47.0	2	-4.4	2.0	18.8153	70.0	2.48	Outcome2	9.3	-4.4	0.0	No	n/a	-13.6961451247166	n/a	n/a	n/a	ISITrial	Gain
321.259	3.0	0.022	910.143	48.0	2	-14.98	-8.0	16.9428	70.0	0.52	Outcome1	-14.98	-0.9	2.83175	Yes	2.0	-14.0793650793651	2.442	323.701	n/a	GetAnswer	Mixed
323.717	4.0	0.016	912.601	48.0	2	-14.98	-8.0	16.9428	70.0	0.52	Outcome1	-14.98	-0.9	2.83175	Yes	n/a	-14.0793650793651	n/a	n/a	n/a	ShowChoice	Mixed
327.729	1.0	0.012	916.613	48.0	2	-14.98	-8.0	16.9428	70.0	0.52	Outcome1	-14.98	-0.9	2.83175	Yes	n/a	-14.0793650793651	n/a	n/a	n/a	ShowResult	Mixed
328.748	3.692	0.019	917.632	48.0	2	-14.98	-8.0	16.9428	70.0	0.52	Outcome1	-14.98	-0.9	2.83175	Yes	n/a	-14.0793650793651	n/a	n/a	n/a	ISITrial	Mixed
332.46	2.832	0.02	921.344	48.0	2	-14.98	-8.0	16.9428	70.0	0.52	Outcome1	-14.98	-0.9	2.83175	Yes	n/a	-14.0793650793651	n/a	n/a	n/a	TrialHappPreview	Mixed
335.318	4.029	0.026	924.202	48.0	2	-14.98	-8.0	16.9428	70.0	0.52	Outcome1	-14.98	-0.9	2.83175	Yes	n/a	-14.0793650793651	n/a	n/a	352.0	TrialHappiness	Mixed
335.319	1.15	n/a	924.531	48.0	2	-14.98	-8.0	16.9428	70.0	0.52	Outcome1	-14.98	-0.9	2.83175	Yes	n/a	-14.0793650793651	n/a	n/a	352.0	TrialHappinessSliderResponse	Mixed
339.347	3.327	4.029	928.231	48.0	2	-14.98	-8.0	16.9428	70.0	0.52	Outcome1	-14.98	-0.9	2.83175	Yes	n/a	-14.0793650793651	n/a	n/a	n/a	ISIRate	Mixed
342.707	3.0	0.033	931.591	49.0	2	-1.21	-0.6	16.7916	70.0	5.0	Outcome2	12.3	-1.21	0.0	No	2.0	-13.5102040816327	1.352	344.059	n/a	GetAnswer	Loss
344.078	4.0	0.019	932.962	49.0	2	-1.21	-0.6	16.7916	70.0	5.0	Outcome2	12.3	-1.21	0.0	No	n/a	-13.5102040816327	n/a	n/a	n/a	ShowChoice	Loss
348.106	1.0	0.028	936.99	49.0	2	-1.21	-0.6	16.7916	70.0	5.0	Outcome2	12.3	-1.21	0.0	No	n/a	-13.5102040816327	n/a	n/a	n/a	ShowResult	Loss
349.126	8.0	0.02	938.01	49.0	2	-1.21	-0.6	16.7916	70.0	5.0	Outcome2	12.3	-1.21	0.0	No	n/a	-13.5102040816327	n/a	n/a	n/a	ISITrial	Loss
357.15	3.0	0.024	946.034	50.0	2	3.42	2.0	17.2191	70.0	3.16	Outcome1	3.42	1.52	3.54725	Yes	2.0	1.89852607709751	1.906	359.056	n/a	GetAnswer	Loss
359.072	4.0	0.016	947.956	50.0	2	3.42	2.0	17.2191	70.0	3.16	Outcome1	3.42	1.52	3.54725	Yes	n/a	1.89852607709751	n/a	n/a	n/a	ShowChoice	Loss
363.101	1.0	0.029	951.985	50.0	2	3.42	2.0	17.2191	70.0	3.16	Outcome1	3.42	1.52	3.54725	Yes	n/a	1.89852607709751	n/a	n/a	n/a	ShowResult	Loss
364.121	7.537	0.02	953.005	50.0	2	3.42	2.0	17.2191	70.0	3.16	Outcome1	3.42	1.52	3.54725	Yes	n/a	1.89852607709751	n/a	n/a	n/a	ISITrial	Loss
371.677	3.547	0.019	960.561	50.0	2	3.42	2.0	17.2191	70.0	3.16	Outcome1	3.42	1.52	3.54725	Yes	n/a	1.89852607709751	n/a	n/a	n/a	TrialHappPreview	Loss
375.254	4.029	0.03	964.138	50.0	2	3.42	2.0	17.2191	70.0	3.16	Outcome1	3.42	1.52	3.54725	Yes	n/a	1.89852607709751	n/a	n/a	384.0	TrialHappiness	Loss
375.255	0.415	n/a	964.515	50.0	2	3.42	2.0	17.2191	70.0	3.16	Outcome1	3.42	1.52	3.54725	Yes	n/a	1.89852607709751	n/a	n/a	384.0	TrialHappinessSliderResponse	Loss
379.283	6.189	4.029	968.167	50.0	2	3.42	2.0	17.2191	70.0	3.16	Outcome1	3.42	1.52	3.54725	Yes	n/a	1.89852607709751	n/a	n/a	n/a	ISIRate	Loss
385.501	3.0	0.029	974.385	51.0	2	-0.18	-1.0	17.1966	70.0	0.66	Outcome1	-0.18	-2.24	0.0	No	2.0	2.0551776266062	2.182	387.683	n/a	GetAnswer	Mixed
387.708	4.0	0.024	976.592	51.0	2	-0.18	-1.0	17.1966	70.0	0.66	Outcome1	-0.18	-2.24	0.0	No	n/a	2.0551776266062	n/a	n/a	n/a	ShowChoice	Mixed
391.72	1.0	0.012	980.604	51.0	2	-0.18	-1.0	17.1966	70.0	0.66	Outcome1	-0.18	-2.24	0.0	No	n/a	2.0551776266062	n/a	n/a	n/a	ShowResult	Mixed
392.74	5.508	0.02	981.624	51.0	2	-0.18	-1.0	17.1966	70.0	0.66	Outcome1	-0.18	-2.24	0.0	No	n/a	2.0551776266062	n/a	n/a	n/a	ISITrial	Mixed
398.273	3.0	0.025	987.157	52.0	2	-3.0	-3.0	16.8216	70.0	2.0	Certain	4.3	-10.75	0.0	No	4.0	-15.0498866213152	2.264	400.537	n/a	GetAnswer	Mixed
400.563	4.0	0.026	989.447	52.0	2	-3.0	-3.0	16.8216	70.0	2.0	Certain	4.3	-10.75	0.0	No	n/a	-15.0498866213152	n/a	n/a	n/a	ShowChoice	Mixed
404.592	1.0	0.029	993.476	52.0	2	-3.0	-3.0	16.8216	70.0	2.0	Certain	4.3	-10.75	0.0	No	n/a	-15.0498866213152	n/a	n/a	n/a	ShowResult	Mixed
405.611	5.913	0.019	994.495	52.0	2	-3.0	-3.0	16.8216	70.0	2.0	Certain	4.3	-10.75	0.0	No	n/a	-15.0498866213152	n/a	n/a	n/a	ISITrial	Mixed
411.546	3.0	0.022	1000.43	53.0	2	-3.71	-1.86	16.3578	70.0	3.16	Outcome1	-3.71	11.7	2.99675	Yes	2.0	-15.40589569161	1.498	413.044	n/a	GetAnswer	Loss
413.067	4.0	0.023	1001.951	53.0	2	-3.71	-1.86	16.3578	70.0	3.16	Outcome1	-3.71	11.7	2.99675	Yes	n/a	-15.40589569161	n/a	n/a	n/a	ShowChoice	Loss
417.096	1.0	0.029	1005.98	53.0	2	-3.71	-1.86	16.3578	70.0	3.16	Outcome1	-3.71	11.7	2.99675	Yes	n/a	-15.40589569161	n/a	n/a	n/a	ShowResult	Loss
418.115	3.66	0.019	1006.999	53.0	2	-3.71	-1.86	16.3578	70.0	3.16	Outcome1	-3.71	11.7	2.99675	Yes	n/a	-15.40589569161	n/a	n/a	n/a	ISITrial	Loss
421.793	2.997	0.018	1010.677	53.0	2	-3.71	-1.86	16.3578	70.0	3.16	Outcome1	-3.71	11.7	2.99675	Yes	n/a	-15.40589569161	n/a	n/a	n/a	TrialHappPreview	Loss
424.819	4.012	0.029	1013.703	53.0	2	-3.71	-1.86	16.3578	70.0	3.16	Outcome1	-3.71	11.7	2.99675	Yes	n/a	-15.40589569161	n/a	n/a	344.0	TrialHappiness	Loss
424.819	0.935	n/a	1014.58	53.0	2	-3.71	-1.86	16.3578	70.0	3.16	Outcome1	-3.71	11.7	2.99675	Yes	n/a	-15.40589569161	n/a	n/a	344.0	TrialHappinessSliderResponse	Loss
428.831	3.987	4.012	1017.715	53.0	2	-3.71	-1.86	16.3578	70.0	3.16	Outcome1	-3.71	11.7	2.99675	Yes	n/a	-15.40589569161	n/a	n/a	n/a	ISIRate	Loss
432.843	3.0	0.025	1021.727	54.0	2	-6.0	-6.0	15.6078	70.0	0.4	Certain	0.9	-14.18	0.0	No	4.0	-15.0816326530612	1.961	434.804	n/a	GetAnswer	Mixed
434.815	4.0	0.011	1023.699	54.0	2	-6.0	-6.0	15.6078	70.0	0.4	Certain	0.9	-14.18	0.0	No	n/a	-15.0816326530612	n/a	n/a	n/a	ShowChoice	Mixed
438.827	1.0	0.012	1027.711	54.0	2	-6.0	-6.0	15.6078	70.0	0.4	Certain	0.9	-14.18	0.0	No	n/a	-15.0816326530612	n/a	n/a	n/a	ShowResult	Mixed
439.847	8.0	0.02	1028.731	54.0	2	-6.0	-6.0	15.6078	70.0	0.4	Certain	0.9	-14.18	0.0	No	n/a	-15.0816326530612	n/a	n/a	n/a	ISITrial	Mixed
509.205	0.409	n/a	1098.405	n/a	2	n/a	n/a	n/a	n/a	n/a	n/a	n/a	n/a	n/a	n/a	n/a	n/a	n/a	n/a	384.0	BlockStartHappinessSliderResponse	n/a
-73.135	-0.001	0.024	1036.755	n/a	3	n/a	n/a	n/a	n/a	n/a	n/a	n/a	n/a	n/a	n/a	{SPACE}	n/a	57.3	-15.835	n/a	Rest	n/a
-15.814	4.0	0.021	1094.076	n/a	3	n/a	n/a	n/a	n/a	n/a	n/a	n/a	n/a	n/a	n/a	n/a	n/a	n/a	n/a	n/a	BlockHappyPreview	n/a
-11.802	0.725	0.012	1098.088	n/a	3	n/a	n/a	n/a	n/a	n/a	n/a	n/a	n/a	n/a	n/a	n/a	n/a	n/a	n/a	384.0	BlockStartHappiness	n/a
-1.705	-0.001	0.018	1108.185	n/a	3	n/a	n/a	n/a	n/a	n/a	n/a	n/a	n/a	n/a	n/a	5.0	n/a	1.695	-0.01	n/a	ScanWait	n/a
0.0	10.0	0.01	1109.89	n/a	3	n/a	n/a	n/a	n/a	n/a	n/a	n/a	n/a	n/a	n/a	n/a	n/a	n/a	n/a	n/a	GetReady	n/a
10.013	3.0	0.013	1119.903	55.0	3	3.58	1.79	16.0553	955.0	3.6	Outcome1	3.58	5.9	2.53325	Yes	2.0	-2.31719516798792	1.155	11.168	n/a	GetAnswer	Gain
11.183	4.0	0.015	1121.073	55.0	3	3.58	1.79	16.0553	955.0	3.6	Outcome1	3.58	5.9	2.53325	Yes	n/a	-2.31719516798792	n/a	n/a	n/a	ShowChoice	Gain
15.195	1.0	0.012	1125.085	55.0	3	3.58	1.79	16.0553	955.0	3.6	Outcome1	3.58	5.9	2.53325	Yes	n/a	-2.31719516798792	n/a	n/a	n/a	ShowResult	Gain
16.215	7.709	0.02	1126.105	55.0	3	3.58	1.79	16.0553	955.0	3.6	Outcome1	3.58	5.9	2.53325	Yes	n/a	-2.31719516798792	n/a	n/a	n/a	ISITrial	Gain
23.938	2.533	0.014	1133.828	55.0	3	3.58	1.79	16.0553	955.0	3.6	Outcome1	3.58	5.9	2.53325	Yes	n/a	-2.31719516798792	n/a	n/a	n/a	TrialHappPreview	Gain
26.496	4.012	0.025	1136.386	55.0	3	3.58	1.79	16.0553	955.0	3.6	Outcome1	3.58	5.9	2.53325	Yes	4{-4}4{-4}4{-4}4{-4}	-2.31719516798792	3.376	29.872	392.0	TrialHappiness	Gain
26.496	2.521	n/a	1137.241	55.0	3	3.58	1.79	16.0553	955.0	3.6	Outcome1	3.58	5.9	2.53325	Yes	n/a	-2.31719516798792	n/a	n/a	392.0	TrialHappinessSliderResponse	Gain
30.508	2.133	4.012	1140.398	55.0	3	3.58	1.79	16.0553	955.0	3.6	Outcome1	3.58	5.9	2.53325	Yes	n/a	-2.31719516798792	n/a	n/a	n/a	ISIRate	Gain
32.664	3.0	0.023	1142.554	56.0	3	9.9	-0.16	17.2928	955.0	3.6	Outcome1	9.9	-0.31	0.0	No	2.0	10.2106455266138	1.458	34.122	n/a	GetAnswer	Gain
34.135	4.0	0.013	1144.025	56.0	3	9.9	-0.16	17.2928	955.0	3.6	Outcome1	9.9	-0.31	0.0	No	n/a	10.2106455266138	n/a	n/a	n/a	ShowChoice	Gain
38.147	1.0	0.012	1148.037	56.0	3	9.9	-0.16	17.2928	955.0	3.6	Outcome1	9.9	-0.31	0.0	No	n/a	10.2106455266138	n/a	n/a	n/a	ShowResult	Gain
39.167	4.697	0.02	1149.057	56.0	3	9.9	-0.16	17.2928	955.0	3.6	Outcome1	9.9	-0.31	0.0	No	n/a	10.2106455266138	n/a	n/a	n/a	ISITrial	Gain
43.881	3.0	0.017	1153.771	57.0	3	10.71	5.36	18.6316	955.0	2.22	Outcome2	13.1	10.71	0.0	No	2.0	-2.3917516043790097	1.231	45.112	n/a	GetAnswer	Loss
45.135	4.0	0.023	1155.025	57.0	3	10.71	5.36	18.6316	955.0	2.22	Outcome2	13.1	10.71	0.0	No	n/a	-2.3917516043790097	n/a	n/a	n/a	ShowChoice	Loss
49.147	1.0	0.012	1159.037	57.0	3	10.71	5.36	18.6316	955.0	2.22	Outcome2	13.1	10.71	0.0	No	n/a	-2.3917516043790097	n/a	n/a	n/a	ShowResult	Loss
50.166	4.291	0.019	1160.056	57.0	3	10.71	5.36	18.6316	955.0	2.22	Outcome2	13.1	10.71	0.0	No	n/a	-2.3917516043790097	n/a	n/a	n/a	ISITrial	Loss
54.479	3.0	0.022	1164.369	58.0	3	2.26	1.13	18.9141	955.0	1.82	Outcome1	2.26	4.7	3.04575	Yes	2.0	-2.4448848622121604	1.524	56.003	n/a	GetAnswer	Gain
56.017	4.0	0.014	1165.907	58.0	3	2.26	1.13	18.9141	955.0	1.82	Outcome1	2.26	4.7	3.04575	Yes	n/a	-2.4448848622121604	n/a	n/a	n/a	ShowChoice	Gain
60.029	1.0	0.012	1169.919	58.0	3	2.26	1.13	18.9141	955.0	1.82	Outcome1	2.26	4.7	3.04575	Yes	n/a	-2.4448848622121604	n/a	n/a	n/a	ShowResult	Gain
61.049	2.037	0.02	1170.939	58.0	3	2.26	1.13	18.9141	955.0	1.82	Outcome1	2.26	4.7	3.04575	Yes	n/a	-2.4448848622121604	n/a	n/a	n/a	ISITrial	Gain
63.105	3.046	0.019	1172.995	58.0	3	2.26	1.13	18.9141	955.0	1.82	Outcome1	2.26	4.7	3.04575	Yes	n/a	-2.4448848622121604	n/a	n/a	n/a	TrialHappPreview	Gain
66.181	4.012	0.03	1176.071	58.0	3	2.26	1.13	18.9141	955.0	1.82	Outcome1	2.26	4.7	3.04575	Yes	n/a	-2.4448848622121604	n/a	n/a	384.0	TrialHappiness	Gain
66.182	2.15	n/a	1176.712	58.0	3	2.26	1.13	18.9141	955.0	1.82	Outcome1	2.26	4.7	3.04575	Yes	n/a	-2.4448848622121604	n/a	n/a	384.0	TrialHappinessSliderResponse	Gain
70.193	4.183	4.012	1180.083	58.0	3	2.26	1.13	18.9141	955.0	1.82	Outcome1	2.26	4.7	3.04575	Yes	n/a	-2.4448848622121604	n/a	n/a	n/a	ISIRate	Gain
74.406	3.0	0.03	1184.296	59.0	3	1.17	2.0	19.0604	955.0	1.0	Outcome2	3.7	1.17	0.0	No	2.0	-2.530483201208	1.192	75.598	n/a	GetAnswer	Mixed
75.609	4.0	0.011	1185.499	59.0	3	1.17	2.0	19.0604	955.0	1.0	Outcome2	3.7	1.17	0.0	No	n/a	-2.530483201208	n/a	n/a	n/a	ShowChoice	Mixed
79.621	1.0	0.012	1189.511	59.0	3	1.17	2.0	19.0604	955.0	1.0	Outcome2	3.7	1.17	0.0	No	n/a	-2.530483201208	n/a	n/a	n/a	ShowResult	Mixed
80.641	5.064	0.02	1190.531	59.0	3	1.17	2.0	19.0604	955.0	1.0	Outcome2	3.7	1.17	0.0	No	n/a	-2.530483201208	n/a	n/a	n/a	ISITrial	Mixed
85.723	3.0	0.018	1195.613	60.0	3	-7.0	-7.0	18.1854	955.0	1.0	Certain	-13.21	-0.3	3.5625	Yes	4.0	12.906002265005698	2.33	88.053	n/a	GetAnswer	Mixed
88.063	4.0	0.01	1197.953	60.0	3	-7.0	-7.0	18.1854	955.0	1.0	Certain	-13.21	-0.3	3.5625	Yes	n/a	12.906002265005698	n/a	n/a	n/a	ShowChoice	Mixed
92.075	1.0	0.012	1201.965	60.0	3	-7.0	-7.0	18.1854	955.0	1.0	Certain	-13.21	-0.3	3.5625	Yes	n/a	12.906002265005698	n/a	n/a	n/a	ShowResult	Mixed
93.095	8.0	0.02	1202.985	60.0	3	-7.0	-7.0	18.1854	955.0	1.0	Certain	-13.21	-0.3	3.5625	Yes	n/a	12.906002265005698	n/a	n/a	n/a	ISITrial	Mixed
101.119	3.562	0.024	1211.009	60.0	3	-7.0	-7.0	18.1854	955.0	1.0	Certain	-13.21	-0.3	3.5625	Yes	n/a	12.906002265005698	n/a	n/a	n/a	TrialHappPreview	Mixed
104.696	4.012	0.015	1214.586	60.0	3	-7.0	-7.0	18.1854	955.0	1.0	Certain	-13.21	-0.3	3.5625	Yes	n/a	12.906002265005698	n/a	n/a	352.0	TrialHappiness	Mixed
104.697	2.117	n/a	1215.453	60.0	3	-7.0	-7.0	18.1854	955.0	1.0	Certain	-13.21	-0.3	3.5625	Yes	n/a	12.906002265005698	n/a	n/a	352.0	TrialHappinessSliderResponse	Mixed
108.708	6.25	4.012	1218.598	60.0	3	-7.0	-7.0	18.1854	955.0	1.0	Certain	-13.21	-0.3	3.5625	Yes	n/a	12.906002265005698	n/a	n/a	n/a	ISIRate	Mixed
114.977	3.0	0.019	1224.867	61.0	3	10.1	-2.0	19.4479	955.0	4.2	Outcome1	10.1	-4.0	0.0	No	2.0	14.0962627406569	1.545	116.522	n/a	GetAnswer	Gain
116.548	4.0	0.026	1226.438	61.0	3	10.1	-2.0	19.4479	955.0	4.2	Outcome1	10.1	-4.0	0.0	No	n/a	14.0962627406569	n/a	n/a	n/a	ShowChoice	Gain
120.56	1.0	0.012	1230.45	61.0	3	10.1	-2.0	19.4479	955.0	4.2	Outcome1	10.1	-4.0	0.0	No	n/a	14.0962627406569	n/a	n/a	n/a	ShowResult	Gain
121.58	4.586	0.02	1231.47	61.0	3	10.1	-2.0	19.4479	955.0	4.2	Outcome1	10.1	-4.0	0.0	No	n/a	14.0962627406569	n/a	n/a	n/a	ISITrial	Gain
126.194	3.0	0.028	1236.084	62.0	3	0.3	-7.0	19.4854	955.0	2.0	Outcome2	-14.48	0.3	3.74875	Yes	2.0	14.7791619479049	2.251	128.445	n/a	GetAnswer	Mixed
128.467	4.0	0.022	1238.357	62.0	3	0.3	-7.0	19.4854	955.0	2.0	Outcome2	-14.48	0.3	3.74875	Yes	n/a	14.7791619479049	n/a	n/a	n/a	ShowChoice	Mixed
132.479	1.0	0.012	1242.369	62.0	3	0.3	-7.0	19.4854	955.0	2.0	Outcome2	-14.48	0.3	3.74875	Yes	n/a	14.7791619479049	n/a	n/a	n/a	ShowResult	Mixed
133.499	5.212	0.02	1243.389	62.0	3	0.3	-7.0	19.4854	955.0	2.0	Outcome2	-14.48	0.3	3.74875	Yes	n/a	14.7791619479049	n/a	n/a	n/a	ISITrial	Mixed
138.731	3.749	0.02	1248.621	62.0	3	0.3	-7.0	19.4854	955.0	2.0	Outcome2	-14.48	0.3	3.74875	Yes	n/a	14.7791619479049	n/a	n/a	n/a	TrialHappPreview	Mixed
142.509	4.012	0.029	1252.399	62.0	3	0.3	-7.0	19.4854	955.0	2.0	Outcome2	-14.48	0.3	3.74875	Yes	n/a	14.7791619479049	n/a	n/a	304.0	TrialHappiness	Mixed
142.51	0.979	n/a	1252.799	62.0	3	0.3	-7.0	19.4854	955.0	2.0	Outcome2	-14.48	0.3	3.74875	Yes	n/a	14.7791619479049	n/a	n/a	304.0	TrialHappinessSliderResponse	Mixed
146.521	6.995	4.012	1256.411	62.0	3	0.3	-7.0	19.4854	955.0	2.0	Outcome2	-14.48	0.3	3.74875	Yes	n/a	14.7791619479049	n/a	n/a	n/a	ISIRate	Mixed
153.542	3.0	0.026	1263.432	63.0	3	9.02	4.51	20.6129	955.0	4.2	Outcome2	12.1	9.02	0.0	No	2.0	-3.07672706681767	1.223	154.765	n/a	GetAnswer	Loss
154.779	4.0	0.014	1264.669	63.0	3	9.02	4.51	20.6129	955.0	4.2	Outcome2	12.1	9.02	0.0	No	n/a	-3.07672706681767	n/a	n/a	n/a	ShowChoice	Loss
158.791	1.0	0.012	1268.681	63.0	3	9.02	4.51	20.6129	955.0	4.2	Outcome2	12.1	9.02	0.0	No	n/a	-3.07672706681767	n/a	n/a	n/a	ShowResult	Loss
159.811	5.595	0.02	1269.701	63.0	3	9.02	4.51	20.6129	955.0	4.2	Outcome2	12.1	9.02	0.0	No	n/a	-3.07672706681767	n/a	n/a	n/a	ISITrial	Loss
165.427	3.0	0.021	1275.317	64.0	3	-3.0	-3.0	20.2379	955.0	2.0	Certain	4.9	-12.11	0.0	No	4.0	17.0147225368063	2.726	168.153	n/a	GetAnswer	Gain
168.169	4.0	0.015	1278.059	64.0	3	-3.0	-3.0	20.2379	955.0	2.0	Certain	4.9	-12.11	0.0	No	n/a	17.0147225368063	n/a	n/a	n/a	ShowChoice	Gain
172.181	1.0	0.012	1282.071	64.0	3	-3.0	-3.0	20.2379	955.0	2.0	Certain	4.9	-12.11	0.0	No	n/a	17.0147225368063	n/a	n/a	n/a	ShowResult	Gain
173.201	5.47	0.02	1283.091	64.0	3	-3.0	-3.0	20.2379	955.0	2.0	Certain	4.9	-12.11	0.0	No	n/a	17.0147225368063	n/a	n/a	n/a	ISITrial	Gain
178.7	3.0	0.029	1288.59	65.0	3	0.5	-8.0	20.3004	955.0	0.2	Outcome2	-17.25	0.5	2.99675	Yes	2.0	17.7519818799547	2.996	181.696	n/a	GetAnswer	Mixed
181.709	4.0	0.013	1291.599	65.0	3	0.5	-8.0	20.3004	955.0	0.2	Outcome2	-17.25	0.5	2.99675	Yes	n/a	17.7519818799547	n/a	n/a	n/a	ShowChoice	Mixed
185.721	1.0	0.012	1295.611	65.0	3	0.5	-8.0	20.3004	955.0	0.2	Outcome2	-17.25	0.5	2.99675	Yes	n/a	17.7519818799547	n/a	n/a	n/a	ShowResult	Mixed
186.741	3.344	0.02	1296.631	65.0	3	0.5	-8.0	20.3004	955.0	0.2	Outcome2	-17.25	0.5	2.99675	Yes	n/a	17.7519818799547	n/a	n/a	n/a	ISITrial	Mixed
190.101	2.997	0.016	1299.991	65.0	3	0.5	-8.0	20.3004	955.0	0.2	Outcome2	-17.25	0.5	2.99675	Yes	n/a	17.7519818799547	n/a	n/a	n/a	TrialHappPreview	Mixed
193.127	4.012	0.029	1303.017	65.0	3	0.5	-8.0	20.3004	955.0	0.2	Outcome2	-17.25	0.5	2.99675	Yes	4{-4}4{-4}4{-4}	17.7519818799547	2.799	195.926	320.0	TrialHappiness	Mixed
193.127	1.918	n/a	1303.898	65.0	3	0.5	-8.0	20.3004	955.0	0.2	Outcome2	-17.25	0.5	2.99675	Yes	n/a	17.7519818799547	n/a	n/a	320.0	TrialHappinessSliderResponse	Mixed
197.139	3.987	4.012	1307.029	65.0	3	0.5	-8.0	20.3004	955.0	0.2	Outcome2	-17.25	0.5	2.99675	Yes	n/a	17.7519818799547	n/a	n/a	n/a	ISIRate	Mixed
201.151	3.0	0.025	1311.041	66.0	3	10.5	1.0	21.6129	955.0	1.68	Outcome1	10.5	-7.72	0.0	No	2.0	18.2174405436014	1.672	202.823	n/a	GetAnswer	Loss
202.839	4.0	0.016	1312.729	66.0	3	10.5	1.0	21.6129	955.0	1.68	Outcome1	10.5	-7.72	0.0	No	n/a	18.2174405436014	n/a	n/a	n/a	ShowChoice	Loss
206.851	1.0	0.012	1316.741	66.0	3	10.5	1.0	21.6129	955.0	1.68	Outcome1	10.5	-7.72	0.0	No	n/a	18.2174405436014	n/a	n/a	n/a	ShowResult	Loss
207.871	3.959	0.02	1317.761	66.0	3	10.5	1.0	21.6129	955.0	1.68	Outcome1	10.5	-7.72	0.0	No	n/a	18.2174405436014	n/a	n/a	n/a	ISITrial	Loss
211.849	3.0	0.019	1321.739	67.0	3	3.5	-6.0	22.0504	955.0	0.82	Outcome1	3.5	-15.44	2.9185	Yes	2.0	18.936579841449603	2.015	213.864	n/a	GetAnswer	Mixed
213.889	4.0	0.025	1323.779	67.0	3	3.5	-6.0	22.0504	955.0	0.82	Outcome1	3.5	-15.44	2.9185	Yes	n/a	18.936579841449603	n/a	n/a	n/a	ShowChoice	Mixed
217.901	1.0	0.012	1327.791	67.0	3	3.5	-6.0	22.0504	955.0	0.82	Outcome1	3.5	-15.44	2.9185	Yes	n/a	18.936579841449603	n/a	n/a	n/a	ShowResult	Mixed
218.92	4.199	0.019	1328.81	67.0	3	3.5	-6.0	22.0504	955.0	0.82	Outcome1	3.5	-15.44	2.9185	Yes	n/a	18.936579841449603	n/a	n/a	n/a	ISITrial	Mixed
223.133	2.918	0.014	1333.023	67.0	3	3.5	-6.0	22.0504	955.0	0.82	Outcome1	3.5	-15.44	2.9185	Yes	n/a	18.936579841449603	n/a	n/a	n/a	TrialHappPreview	Mixed
226.075	4.012	0.024	1335.965	67.0	3	3.5	-6.0	22.0504	955.0	0.82	Outcome1	3.5	-15.44	2.9185	Yes	n/a	18.936579841449603	n/a	n/a	320.0	TrialHappiness	Mixed
226.076	1.04	n/a	1336.755	67.0	3	3.5	-6.0	22.0504	955.0	0.82	Outcome1	3.5	-15.44	2.9185	Yes	n/a	18.936579841449603	n/a	n/a	320.0	TrialHappinessSliderResponse	Mixed
230.087	3.674	4.012	1339.977	67.0	3	3.5	-6.0	22.0504	955.0	0.82	Outcome1	3.5	-15.44	2.9185	Yes	n/a	18.936579841449603	n/a	n/a	n/a	ISIRate	Mixed
233.782	3.0	0.021	1343.672	68.0	3	4.5	-5.0	22.6129	955.0	1.68	Outcome2	-15.16	4.5	0.0	No	2.0	19.6557191392978	2.032	235.814	n/a	GetAnswer	Gain
235.838	4.0	0.024	1345.728	68.0	3	4.5	-5.0	22.6129	955.0	1.68	Outcome2	-15.16	4.5	0.0	No	n/a	19.6557191392978	n/a	n/a	n/a	ShowChoice	Gain
239.85	1.0	0.012	1349.74	68.0	3	4.5	-5.0	22.6129	955.0	1.68	Outcome2	-15.16	4.5	0.0	No	n/a	19.6557191392978	n/a	n/a	n/a	ShowResult	Gain
240.869	2.185	0.019	1350.759	68.0	3	4.5	-5.0	22.6129	955.0	1.68	Outcome2	-15.16	4.5	0.0	No	n/a	19.6557191392978	n/a	n/a	n/a	ISITrial	Gain
243.076	3.0	0.022	1352.966	69.0	3	11.3	1.0	24.0254	955.0	2.48	Outcome1	11.3	-9.07	0.0	No	2.0	20.374858437146106	1.9	244.976	n/a	GetAnswer	Loss
244.998	4.0	0.022	1354.888	69.0	3	11.3	1.0	24.0254	955.0	2.48	Outcome1	11.3	-9.07	0.0	No	n/a	20.374858437146106	n/a	n/a	n/a	ShowChoice	Loss
249.01	1.0	0.012	1358.9	69.0	3	11.3	1.0	24.0254	955.0	2.48	Outcome1	11.3	-9.07	0.0	No	n/a	20.374858437146106	n/a	n/a	n/a	ShowResult	Loss
250.03	2.0	0.02	1359.92	69.0	3	11.3	1.0	24.0254	955.0	2.48	Outcome1	11.3	-9.07	0.0	No	n/a	20.374858437146106	n/a	n/a	n/a	ISITrial	Loss
252.053	3.0	0.023	1361.943	70.0	3	0.0	0.0	24.0254	955.0	1.0	Certain	1.7	-1.74	3.65125	Yes	4.0	-3.4358248395621	2.692	254.745	n/a	GetAnswer	Mixed
254.761	4.0	0.016	1364.651	70.0	3	0.0	0.0	24.0254	955.0	1.0	Certain	1.7	-1.74	3.65125	Yes	n/a	-3.4358248395621	n/a	n/a	n/a	ShowChoice	Mixed
258.773	1.0	0.012	1368.663	70.0	3	0.0	0.0	24.0254	955.0	1.0	Certain	1.7	-1.74	3.65125	Yes	n/a	-3.4358248395621	n/a	n/a	n/a	ShowResult	Mixed
259.793	2.623	0.02	1369.683	70.0	3	0.0	0.0	24.0254	955.0	1.0	Certain	1.7	-1.74	3.65125	Yes	n/a	-3.4358248395621	n/a	n/a	n/a	ISITrial	Mixed
262.434	3.651	0.018	1372.324	70.0	3	0.0	0.0	24.0254	955.0	1.0	Certain	1.7	-1.74	3.65125	Yes	n/a	-3.4358248395621	n/a	n/a	n/a	TrialHappPreview	Mixed
266.111	4.012	0.026	1376.001	70.0	3	0.0	0.0	24.0254	955.0	1.0	Certain	1.7	-1.74	3.65125	Yes	n/a	-3.4358248395621	n/a	n/a	324.0	TrialHappiness	Mixed
266.112	1.727	n/a	1376.418	70.0	3	0.0	0.0	24.0254	955.0	1.0	Certain	1.7	-1.74	3.65125	Yes	n/a	-3.4358248395621	n/a	n/a	324.0	TrialHappinessSliderResponse	Mixed
270.123	6.605	4.012	1380.013	70.0	3	0.0	0.0	24.0254	955.0	1.0	Certain	1.7	-1.74	3.65125	Yes	n/a	-3.4358248395621	n/a	n/a	n/a	ISIRate	Mixed
276.76	3.0	0.032	1386.65	71.0	3	-0.38	1.0	23.9779	955.0	0.52	Outcome2	3.1	-0.38	0.0	No	2.0	-3.4795205738014303	1.505	278.265	n/a	GetAnswer	Mixed
278.281	4.0	0.015	1388.171	71.0	3	-0.38	1.0	23.9779	955.0	0.52	Outcome2	3.1	-0.38	0.0	No	n/a	-3.4795205738014303	n/a	n/a	n/a	ShowChoice	Mixed
282.293	1.0	0.012	1392.183	71.0	3	-0.38	1.0	23.9779	955.0	0.52	Outcome2	3.1	-0.38	0.0	No	n/a	-3.4795205738014303	n/a	n/a	n/a	ShowResult	Mixed
283.313	5.499	0.02	1393.203	71.0	3	-0.38	1.0	23.9779	955.0	0.52	Outcome2	3.1	-0.38	0.0	No	n/a	-3.4795205738014303	n/a	n/a	n/a	ISITrial	Mixed
288.829	3.0	0.017	1398.719	72.0	3	-1.5	-12.0	23.7904	955.0	0.2	Outcome1	-1.5	-23.96	3.0805	Yes	2.0	22.4597961494904	2.914	291.743	n/a	GetAnswer	Mixed
291.755	4.0	0.012	1401.645	72.0	3	-1.5	-12.0	23.7904	955.0	0.2	Outcome1	-1.5	-23.96	3.0805	Yes	n/a	22.4597961494904	n/a	n/a	n/a	ShowChoice	Mixed
295.767	1.0	0.012	1405.657	72.0	3	-1.5	-12.0	23.7904	955.0	0.2	Outcome1	-1.5	-23.96	3.0805	Yes	n/a	22.4597961494904	n/a	n/a	n/a	ShowResult	Mixed
296.786	5.672	0.019	1406.676	72.0	3	-1.5	-12.0	23.7904	955.0	0.2	Outcome1	-1.5	-23.96	3.0805	Yes	n/a	22.4597961494904	n/a	n/a	n/a	ISITrial	Mixed
302.47	3.08	0.012	1412.36	72.0	3	-1.5	-12.0	23.7904	955.0	0.2	Outcome1	-1.5	-23.96	3.0805	Yes	n/a	22.4597961494904	n/a	n/a	n/a	TrialHappPreview	Mixed
305.579	4.012	0.029	1415.469	72.0	3	-1.5	-12.0	23.7904	955.0	0.2	Outcome1	-1.5	-23.96	3.0805	Yes	n/a	22.4597961494904	n/a	n/a	328.0	TrialHappiness	Mixed
305.58	1.95	n/a	1416.302	72.0	3	-1.5	-12.0	23.7904	955.0	0.2	Outcome1	-1.5	-23.96	3.0805	Yes	n/a	22.4597961494904	n/a	n/a	328.0	TrialHappinessSliderResponse	Mixed
309.591	4.322	4.012	1419.481	72.0	3	-1.5	-12.0	23.7904	955.0	0.2	Outcome1	-1.5	-23.96	3.0805	Yes	n/a	22.4597961494904	n/a	n/a	n/a	ISIRate	Mixed
313.938	3.0	0.025	1423.828	73.0	3	13.9	2.0	25.5279	955.0	3.6	Outcome2	-9.21	13.9	0.0	No	2.0	23.1064552661382	1.818	315.756	n/a	GetAnswer	Loss
315.776	4.0	0.02	1425.666	73.0	3	13.9	2.0	25.5279	955.0	3.6	Outcome2	-9.21	13.9	0.0	No	n/a	23.1064552661382	n/a	n/a	n/a	ShowChoice	Loss
319.788	1.0	0.012	1429.678	73.0	3	13.9	2.0	25.5279	955.0	3.6	Outcome2	-9.21	13.9	0.0	No	n/a	23.1064552661382	n/a	n/a	n/a	ShowResult	Loss
320.808	4.616	0.02	1430.698	73.0	3	13.9	2.0	25.5279	955.0	3.6	Outcome2	-9.21	13.9	0.0	No	n/a	23.1064552661382	n/a	n/a	n/a	ISITrial	Loss
325.455	3.0	0.031	1435.345	74.0	3	-4.0	-4.0	25.0279	955.0	2.48	Certain	-16.52	7.3	3.05625	Yes	4.0	23.8165345413364	2.579	328.034	n/a	GetAnswer	Gain
328.046	4.0	0.012	1437.936	74.0	3	-4.0	-4.0	25.0279	955.0	2.48	Certain	-16.52	7.3	3.05625	Yes	n/a	23.8165345413364	n/a	n/a	n/a	ShowChoice	Gain
332.058	1.0	0.012	1441.948	74.0	3	-4.0	-4.0	25.0279	955.0	2.48	Certain	-16.52	7.3	3.05625	Yes	n/a	23.8165345413364	n/a	n/a	n/a	ShowResult	Gain
333.078	3.909	0.02	1442.968	74.0	3	-4.0	-4.0	25.0279	955.0	2.48	Certain	-16.52	7.3	3.05625	Yes	n/a	23.8165345413364	n/a	n/a	n/a	ISITrial	Gain
337.006	3.056	0.019	1446.896	74.0	3	-4.0	-4.0	25.0279	955.0	2.48	Certain	-16.52	7.3	3.05625	Yes	n/a	23.8165345413364	n/a	n/a	n/a	TrialHappPreview	Gain
340.082	4.012	0.02	1449.972	74.0	3	-4.0	-4.0	25.0279	955.0	2.48	Certain	-16.52	7.3	3.05625	Yes	n/a	23.8165345413364	n/a	n/a	336.0	TrialHappiness	Gain
340.083	1.964	n/a	1450.491	74.0	3	-4.0	-4.0	25.0279	955.0	2.48	Certain	-16.52	7.3	3.05625	Yes	n/a	23.8165345413364	n/a	n/a	336.0	TrialHappinessSliderResponse	Gain
344.094	4.225	4.012	1453.984	74.0	3	-4.0	-4.0	25.0279	955.0	2.48	Certain	-16.52	7.3	3.05625	Yes	n/a	23.8165345413364	n/a	n/a	n/a	ISIRate	Gain
348.34	3.0	0.021	1458.23	75.0	3	-0.5	-12.0	24.9654	955.0	0.82	Outcome2	-24.89	-0.5	0.0	No	2.0	24.3907134767837	2.791	351.131	n/a	GetAnswer	Mixed
351.149	4.0	0.018	1461.039	75.0	3	-0.5	-12.0	24.9654	955.0	0.82	Outcome2	-24.89	-0.5	0.0	No	n/a	24.3907134767837	n/a	n/a	n/a	ShowChoice	Mixed
355.161	1.0	0.012	1465.051	75.0	3	-0.5	-12.0	24.9654	955.0	0.82	Outcome2	-24.89	-0.5	0.0	No	n/a	24.3907134767837	n/a	n/a	n/a	ShowResult	Mixed
356.18	4.979	0.019	1466.07	75.0	3	-0.5	-12.0	24.9654	955.0	0.82	Outcome2	-24.89	-0.5	0.0	No	n/a	24.3907134767837	n/a	n/a	n/a	ISITrial	Mixed
361.179	3.0	0.02	1471.069	76.0	3	3.37	1.68	25.3866	955.0	2.22	Outcome2	7.1	3.37	0.0	No	2.0	-3.72668931672329	1.728	362.907	n/a	GetAnswer	Gain
362.934	4.0	0.027	1472.824	76.0	3	3.37	1.68	25.3866	955.0	2.22	Outcome2	7.1	3.37	0.0	No	n/a	-3.72668931672329	n/a	n/a	n/a	ShowChoice	Gain
366.946	1.0	0.012	1476.836	76.0	3	3.37	1.68	25.3866	955.0	2.22	Outcome2	7.1	3.37	0.0	No	n/a	-3.72668931672329	n/a	n/a	n/a	ShowResult	Gain
367.966	3.931	0.02	1477.856	76.0	3	3.37	1.68	25.3866	955.0	2.22	Outcome2	7.1	3.37	0.0	No	n/a	-3.72668931672329	n/a	n/a	n/a	ISITrial	Gain
371.927	3.0	0.03	1481.817	77.0	3	8.3	-4.0	26.4241	955.0	5.0	Outcome2	-17.49	8.3	4.0	Yes	2.0	25.79275198188	2.429	374.356	n/a	GetAnswer	Gain
374.368	4.0	0.012	1484.258	77.0	3	8.3	-4.0	26.4241	955.0	5.0	Outcome2	-17.49	8.3	4.0	Yes	n/a	25.79275198188	n/a	n/a	n/a	ShowChoice	Gain
378.38	1.0	0.012	1488.27	77.0	3	8.3	-4.0	26.4241	955.0	5.0	Outcome2	-17.49	8.3	4.0	Yes	n/a	25.79275198188	n/a	n/a	n/a	ShowResult	Gain
379.4	7.022	0.02	1489.29	77.0	3	8.3	-4.0	26.4241	955.0	5.0	Outcome2	-17.49	8.3	4.0	Yes	n/a	25.79275198188	n/a	n/a	n/a	ISITrial	Gain
386.437	4.0	0.015	1496.327	77.0	3	8.3	-4.0	26.4241	955.0	5.0	Outcome2	-17.49	8.3	4.0	Yes	n/a	25.79275198188	n/a	n/a	n/a	TrialHappPreview	Gain
390.466	4.012	0.029	1500.356	77.0	3	8.3	-4.0	26.4241	955.0	5.0	Outcome2	-17.49	8.3	4.0	Yes	4{-4}4{-4}4{-4}	25.79275198188	2.665	393.131	308.0	TrialHappiness	Gain
390.467	2.321	n/a	1500.701	77.0	3	8.3	-4.0	26.4241	955.0	5.0	Outcome2	-17.49	8.3	4.0	Yes	n/a	25.79275198188	n/a	n/a	308.0	TrialHappinessSliderResponse	Gain
394.478	8.0	4.012	1504.368	77.0	3	8.3	-4.0	26.4241	955.0	5.0	Outcome2	-17.49	8.3	4.0	Yes	n/a	25.79275198188	n/a	n/a	n/a	ISIRate	Gain
402.502	3.0	0.024	1512.392	78.0	3	0.7	-13.0	26.5116	955.0	0.3	Outcome2	-26.27	0.7	0.0	No	n/a	26.969422423556104	n/a	n/a	n/a	GetAnswer	Mixed
405.528	4.0	0.026	1515.418	78.0	3	0.7	-13.0	26.5116	955.0	0.3	Outcome2	-26.27	0.7	0.0	No	n/a	26.969422423556104	n/a	n/a	n/a	ShowChoice	Mixed
409.54	1.0	0.012	1519.43	78.0	3	0.7	-13.0	26.5116	955.0	0.3	Outcome2	-26.27	0.7	0.0	No	n/a	26.969422423556104	n/a	n/a	n/a	ShowResult	Mixed
410.559	2.078	0.019	1520.449	78.0	3	0.7	-13.0	26.5116	955.0	0.3	Outcome2	-26.27	0.7	0.0	No	n/a	26.969422423556104	n/a	n/a	n/a	ISITrial	Mixed
412.666	3.0	0.029	1522.556	79.0	3	-10.0	-10.0	25.2616	955.0	1.0	Certain	3.7	-24.0	2.7295	Yes	4.0	27.7021517553794	2.14	414.806	n/a	GetAnswer	Mixed
414.822	4.0	0.016	1524.712	79.0	3	-10.0	-10.0	25.2616	955.0	1.0	Certain	3.7	-24.0	2.7295	Yes	n/a	27.7021517553794	n/a	n/a	n/a	ShowChoice	Mixed
418.834	1.0	0.012	1528.724	79.0	3	-10.0	-10.0	25.2616	955.0	1.0	Certain	3.7	-24.0	2.7295	Yes	n/a	27.7021517553794	n/a	n/a	n/a	ShowResult	Mixed
419.854	3.829	0.02	1529.744	79.0	3	-10.0	-10.0	25.2616	955.0	1.0	Certain	3.7	-24.0	2.7295	Yes	n/a	27.7021517553794	n/a	n/a	n/a	ISITrial	Mixed
423.699	2.73	0.016	1533.589	79.0	3	-10.0	-10.0	25.2616	955.0	1.0	Certain	3.7	-24.0	2.7295	Yes	n/a	27.7021517553794	n/a	n/a	n/a	TrialHappPreview	Mixed
426.457	4.012	0.028	1536.347	79.0	3	-10.0	-10.0	25.2616	955.0	1.0	Certain	3.7	-24.0	2.7295	Yes	n/a	27.7021517553794	n/a	n/a	344.0	TrialHappiness	Mixed
426.458	2.221	n/a	1537.007	79.0	3	-10.0	-10.0	25.2616	955.0	1.0	Certain	3.7	-24.0	2.7295	Yes	n/a	27.7021517553794	n/a	n/a	344.0	TrialHappinessSliderResponse	Mixed
430.469	2.918	4.012	1540.359	79.0	3	-10.0	-10.0	25.2616	955.0	1.0	Certain	3.7	-24.0	2.7295	Yes	n/a	27.7021517553794	n/a	n/a	n/a	ISIRate	Mixed
433.411	3.0	0.024	1543.301	80.0	3	6.1	-8.0	26.0241	955.0	4.2	Outcome2	-21.72	6.1	0.0	No	2.0	27.8233295583239	1.784	435.195	n/a	GetAnswer	Gain
435.216	4.0	0.021	1545.106	80.0	3	6.1	-8.0	26.0241	955.0	4.2	Outcome2	-21.72	6.1	0.0	No	n/a	27.8233295583239	n/a	n/a	n/a	ShowChoice	Gain
439.228	1.0	0.012	1549.118	80.0	3	6.1	-8.0	26.0241	955.0	4.2	Outcome2	-21.72	6.1	0.0	No	n/a	27.8233295583239	n/a	n/a	n/a	ShowResult	Gain
440.248	3.336	0.02	1550.138	80.0	3	6.1	-8.0	26.0241	955.0	4.2	Outcome2	-21.72	6.1	0.0	No	n/a	27.8233295583239	n/a	n/a	n/a	ISITrial	Gain
443.608	3.0	0.024	1553.498	81.0	3	5.51	2.76	26.7129	955.0	2.8	Outcome2	9.5	5.51	3.92375	Yes	2.0	-3.99084560211401	1.377	444.985	n/a	GetAnswer	Gain
445.012	4.0	0.027	1554.902	81.0	3	5.51	2.76	26.7129	955.0	2.8	Outcome2	9.5	5.51	3.92375	Yes	n/a	-3.99084560211401	n/a	n/a	n/a	ShowChoice	Gain
449.024	1.0	0.012	1558.914	81.0	3	5.51	2.76	26.7129	955.0	2.8	Outcome2	9.5	5.51	3.92375	Yes	n/a	-3.99084560211401	n/a	n/a	n/a	ShowResult	Gain
450.044	3.919	0.02	1559.934	81.0	3	5.51	2.76	26.7129	955.0	2.8	Outcome2	9.5	5.51	3.92375	Yes	n/a	-3.99084560211401	n/a	n/a	n/a	ISITrial	Gain
453.989	3.924	0.026	1563.879	81.0	3	5.51	2.76	26.7129	955.0	2.8	Outcome2	9.5	5.51	3.92375	Yes	n/a	-3.99084560211401	n/a	n/a	n/a	TrialHappPreview	Gain
457.934	4.012	0.021	1567.824	81.0	3	5.51	2.76	26.7129	955.0	2.8	Outcome2	9.5	5.51	3.92375	Yes	n/a	-3.99084560211401	n/a	n/a	372.0	TrialHappiness	Gain
457.935	1.297	n/a	1568.337	81.0	3	5.51	2.76	26.7129	955.0	2.8	Outcome2	9.5	5.51	3.92375	Yes	n/a	-3.99084560211401	n/a	n/a	372.0	TrialHappinessSliderResponse	Gain
461.946	7.695	4.012	1571.836	81.0	3	5.51	2.76	26.7129	955.0	2.8	Outcome2	9.5	5.51	3.92375	Yes	n/a	-3.99084560211401	n/a	n/a	n/a	ISIRate	Gain
469.669	3.0	0.028	1579.559	n/a	3	n/a	n/a	n/a	n/a	n/a	n/a	n/a	n/a	n/a	n/a	n/a	n/a	n/a	n/a	n/a	CurrentEarnings	n/a
472.695	-0.001	0.026	1582.585	n/a	3	n/a	n/a	n/a	n/a	n/a	n/a	n/a	n/a	n/a	n/a	{SPACE}	n/a	11.041	483.736	n/a	Goodbye	n/a
