onset	duration	onset_delay	onset_unadjusted	trial_number	block	amount_change	certain_amount	current_amount	mood_target	multiplier	outcome	outcome1_amount	outcome2_amount	question_duration	rating	response	rpe	rt	rt_time	slider_response	trial_phase	trial_type
-30.658	-0.001	0.022	46.152	n/a	0	n/a	n/a	n/a	n/a	n/a	n/a	n/a	n/a	n/a	n/a	{SPACE}	n/a	3.844	-26.814	n/a	Welcome	n/a
-26.78	5.0	0.034	50.03	n/a	0	n/a	n/a	n/a	n/a	n/a	n/a	n/a	n/a	n/a	n/a	n/a	n/a	n/a	n/a	n/a	LifeHappyPreview	n/a
-21.748	4.004	0.032	55.062	n/a	0	n/a	n/a	n/a	n/a	n/a	n/a	n/a	n/a	n/a	n/a	n/a	n/a	n/a	n/a	624.0	LifeHappiness	n/a
-21.748	3.289	n/a	55.777	n/a	0	n/a	n/a	n/a	n/a	n/a	n/a	n/a	n/a	n/a	n/a	n/a	n/a	n/a	n/a	624.0	LifeHappinessSliderResponse	n/a
-11.969	4.0	0.029	64.841	n/a	0	n/a	n/a	n/a	n/a	n/a	n/a	n/a	n/a	n/a	n/a	n/a	n/a	n/a	n/a	n/a	BlockHappyPreview	n/a
-7.957	2.816	0.012	68.853	n/a	0	n/a	n/a	n/a	n/a	n/a	n/a	n/a	n/a	n/a	n/a	n/a	n/a	n/a	n/a	704.0	BlockStartHappiness	n/a
-7.957	2.325	n/a	69.344	n/a	0	n/a	n/a	n/a	n/a	n/a	n/a	n/a	n/a	n/a	n/a	n/a	n/a	n/a	n/a	704.0	BlockStartHappinessSliderResponse	n/a
-1.655	-0.001	0.023	75.155	n/a	0	n/a	n/a	n/a	n/a	n/a	n/a	n/a	n/a	n/a	n/a	5.0	n/a	1.642	-0.013	n/a	ScanWait	n/a
0.0	10.0	0.013	76.81	n/a	1	n/a	n/a	n/a	n/a	n/a	n/a	n/a	n/a	n/a	n/a	n/a	n/a	n/a	n/a	n/a	GetReady	n/a
10.03	3.0	0.03	86.84	1.0	1	7.88	3.94	10.985	955.0	2.0	Outcome1	7.88	8.9	0.0	No	2.0	-1.0185919214798	1.749	11.779	n/a	GetAnswer	Gain
11.802	4.0	0.023	88.612	1.0	1	7.88	3.94	10.985	955.0	2.0	Outcome1	7.88	8.9	0.0	No	n/a	-1.0185919214798	n/a	n/a	n/a	ShowChoice	Gain
15.814	1.0	0.012	92.624	1.0	1	7.88	3.94	10.985	955.0	2.0	Outcome1	7.88	8.9	0.0	No	n/a	-1.0185919214798	n/a	n/a	n/a	ShowResult	Gain
16.834	2.431	0.02	93.644	1.0	1	7.88	3.94	10.985	955.0	2.0	Outcome1	7.88	8.9	0.0	No	n/a	-1.0185919214798	n/a	n/a	n/a	ISITrial	Gain
19.291	3.0	0.026	96.101	2.0	1	4.66	2.33	11.5675	955.0	3.16	Outcome2	5.7	4.66	0.0	No	2.0	-1.04228010570026	1.268	20.559	n/a	GetAnswer	Gain
20.578	4.0	0.019	97.388	2.0	1	4.66	2.33	11.5675	955.0	3.16	Outcome2	5.7	4.66	0.0	No	n/a	-1.04228010570026	n/a	n/a	n/a	ShowChoice	Gain
24.607	1.0	0.029	101.417	2.0	1	4.66	2.33	11.5675	955.0	3.16	Outcome2	5.7	4.66	0.0	No	n/a	-1.04228010570026	n/a	n/a	n/a	ShowResult	Gain
25.627	4.568	0.02	102.437	2.0	1	4.66	2.33	11.5675	955.0	3.16	Outcome2	5.7	4.66	0.0	No	n/a	-1.04228010570026	n/a	n/a	n/a	ISITrial	Gain
30.224	3.0	0.029	107.034	3.0	1	11.03	5.52	12.9463	955.0	4.2	Outcome1	11.03	12.1	2.868	Yes	2.0	-1.06596828992072	1.246	31.47	n/a	GetAnswer	Loss
31.494	4.0	0.024	108.304	3.0	1	11.03	5.52	12.9463	955.0	4.2	Outcome1	11.03	12.1	2.868	Yes	n/a	-1.06596828992072	n/a	n/a	n/a	ShowChoice	Loss
35.506	1.0	0.012	112.316	3.0	1	11.03	5.52	12.9463	955.0	4.2	Outcome1	11.03	12.1	2.868	Yes	n/a	-1.06596828992072	n/a	n/a	n/a	ShowResult	Loss
36.526	3.243	0.02	113.336	3.0	1	11.03	5.52	12.9463	955.0	4.2	Outcome1	11.03	12.1	2.868	Yes	n/a	-1.06596828992072	n/a	n/a	n/a	ISITrial	Loss
39.786	2.868	0.017	116.596	3.0	1	11.03	5.52	12.9463	955.0	4.2	Outcome1	11.03	12.1	2.868	Yes	n/a	-1.06596828992072	n/a	n/a	n/a	TrialHappPreview	Loss
42.678	4.028	0.024	119.488	3.0	1	11.03	5.52	12.9463	955.0	4.2	Outcome1	11.03	12.1	2.868	Yes	2{-2}4{-4}	-1.06596828992072	3.216	45.894	704.0	TrialHappiness	Loss
42.678	2.609	n/a	120.095	3.0	1	11.03	5.52	12.9463	955.0	4.2	Outcome1	11.03	12.1	2.868	Yes	n/a	-1.06596828992072	n/a	n/a	704.0	TrialHappinessSliderResponse	Loss
46.706	3.472	4.028	123.516	3.0	1	11.03	5.52	12.9463	955.0	4.2	Outcome1	11.03	12.1	2.868	Yes	n/a	-1.06596828992072	n/a	n/a	n/a	ISIRate	Loss
50.2	3.0	0.022	127.01	4.0	1	0.0	0.0	12.9463	955.0	0.4	Certain	-2.22	2.9	0.0	No	4.0	5.116647791619481	1.716	51.916	n/a	GetAnswer	Mixed
51.939	4.0	0.023	128.749	4.0	1	0.0	0.0	12.9463	955.0	0.4	Certain	-2.22	2.9	0.0	No	n/a	5.116647791619481	n/a	n/a	n/a	ShowChoice	Mixed
55.967	1.0	0.028	132.777	4.0	1	0.0	0.0	12.9463	955.0	0.4	Certain	-2.22	2.9	0.0	No	n/a	5.116647791619481	n/a	n/a	n/a	ShowResult	Mixed
56.987	2.011	0.02	133.797	4.0	1	0.0	0.0	12.9463	955.0	0.4	Certain	-2.22	2.9	0.0	No	n/a	5.116647791619481	n/a	n/a	n/a	ISITrial	Mixed
59.027	3.0	0.029	135.837	5.0	1	1.5	-1.0	13.1338	955.0	0.82	Outcome2	-3.9	1.5	2.5825	Yes	2.0	5.4009060022650095	1.852	60.879	n/a	GetAnswer	Mixed
60.899	4.0	0.02	137.709	5.0	1	1.5	-1.0	13.1338	955.0	0.82	Outcome2	-3.9	1.5	2.5825	Yes	n/a	5.4009060022650095	n/a	n/a	n/a	ShowChoice	Mixed
64.927	1.0	0.028	141.737	5.0	1	1.5	-1.0	13.1338	955.0	0.82	Outcome2	-3.9	1.5	2.5825	Yes	n/a	5.4009060022650095	n/a	n/a	n/a	ShowResult	Mixed
65.947	5.129	0.02	142.757	5.0	1	1.5	-1.0	13.1338	955.0	0.82	Outcome2	-3.9	1.5	2.5825	Yes	n/a	5.4009060022650095	n/a	n/a	n/a	ISITrial	Mixed
71.096	2.582	0.02	147.906	5.0	1	1.5	-1.0	13.1338	955.0	0.82	Outcome2	-3.9	1.5	2.5825	Yes	n/a	5.4009060022650095	n/a	n/a	n/a	TrialHappPreview	Mixed
73.704	4.012	0.026	150.514	5.0	1	1.5	-1.0	13.1338	955.0	0.82	Outcome2	-3.9	1.5	2.5825	Yes	2{-2}	5.4009060022650095	0.992	74.696	744.0	TrialHappiness	Mixed
73.704	0.622	n/a	150.884	5.0	1	1.5	-1.0	13.1338	955.0	0.82	Outcome2	-3.9	1.5	2.5825	Yes	n/a	5.4009060022650095	n/a	n/a	744.0	TrialHappinessSliderResponse	Mixed
77.716	2.33	4.012	154.526	5.0	1	1.5	-1.0	13.1338	955.0	0.82	Outcome2	-3.9	1.5	2.5825	Yes	n/a	5.4009060022650095	n/a	n/a	n/a	ISIRate	Mixed
80.073	3.0	0.027	156.883	6.0	1	-1.87	-1.0	12.9	955.0	0.52	Outcome1	-1.87	-0.9	0.0	No	2.0	-0.974707436768592	2.796	82.869	n/a	GetAnswer	Mixed
82.881	4.0	0.012	159.691	6.0	1	-1.87	-1.0	12.9	955.0	0.52	Outcome1	-1.87	-0.9	0.0	No	n/a	-0.974707436768592	n/a	n/a	n/a	ShowChoice	Mixed
86.893	1.0	0.012	163.703	6.0	1	-1.87	-1.0	12.9	955.0	0.52	Outcome1	-1.87	-0.9	0.0	No	n/a	-0.974707436768592	n/a	n/a	n/a	ShowResult	Mixed
87.913	6.232	0.02	164.723	6.0	1	-1.87	-1.0	12.9	955.0	0.52	Outcome1	-1.87	-0.9	0.0	No	n/a	-0.974707436768592	n/a	n/a	n/a	ISITrial	Mixed
94.165	3.0	0.02	170.975	7.0	1	8.5	1.63	13.9625	955.0	1.68	Outcome2	3.26	8.5	0.0	No	2.0	5.244620611551531	1.52	95.685	n/a	GetAnswer	Gain
95.703	4.0	0.018	172.513	7.0	1	8.5	1.63	13.9625	955.0	1.68	Outcome2	3.26	8.5	0.0	No	n/a	5.244620611551531	n/a	n/a	n/a	ShowChoice	Gain
99.715	1.0	0.012	176.525	7.0	1	8.5	1.63	13.9625	955.0	1.68	Outcome2	3.26	8.5	0.0	No	n/a	5.244620611551531	n/a	n/a	n/a	ShowResult	Gain
100.735	2.305	0.02	177.545	7.0	1	8.5	1.63	13.9625	955.0	1.68	Outcome2	3.26	8.5	0.0	No	n/a	5.244620611551531	n/a	n/a	n/a	ISITrial	Gain
103.058	3.0	0.018	179.868	8.0	1	6.29	3.14	14.7487	955.0	2.48	Outcome1	6.29	7.3	3.1125	Yes	2.0	-1.01453378633447	1.113	104.171	n/a	GetAnswer	Gain
104.195	4.0	0.024	181.005	8.0	1	6.29	3.14	14.7487	955.0	2.48	Outcome1	6.29	7.3	3.1125	Yes	n/a	-1.01453378633447	n/a	n/a	n/a	ShowChoice	Gain
108.207	1.0	0.012	185.017	8.0	1	6.29	3.14	14.7487	955.0	2.48	Outcome1	6.29	7.3	3.1125	Yes	n/a	-1.01453378633447	n/a	n/a	n/a	ShowResult	Gain
109.227	3.506	0.02	186.037	8.0	1	6.29	3.14	14.7487	955.0	2.48	Outcome1	6.29	7.3	3.1125	Yes	n/a	-1.01453378633447	n/a	n/a	n/a	ISITrial	Gain
112.754	3.112	0.021	189.564	8.0	1	6.29	3.14	14.7487	955.0	2.48	Outcome1	6.29	7.3	3.1125	Yes	n/a	-1.01453378633447	n/a	n/a	n/a	TrialHappPreview	Gain
115.897	4.012	0.031	192.707	8.0	1	6.29	3.14	14.7487	955.0	2.48	Outcome1	6.29	7.3	3.1125	Yes	n/a	-1.01453378633447	n/a	n/a	592.0	TrialHappiness	Gain
115.897	1.55	n/a	193.287	8.0	1	6.29	3.14	14.7487	955.0	2.48	Outcome1	6.29	7.3	3.1125	Yes	n/a	-1.01453378633447	n/a	n/a	592.0	TrialHappinessSliderResponse	Gain
119.909	4.45	4.012	196.719	8.0	1	6.29	3.14	14.7487	955.0	2.48	Outcome1	6.29	7.3	3.1125	Yes	n/a	-1.01453378633447	n/a	n/a	n/a	ISIRate	Gain
124.389	3.0	0.03	201.199	9.0	1	12.7	2.2	16.3362	955.0	1.82	Outcome1	12.7	4.4	0.0	No	2.0	8.30464326160815	1.628	126.017	n/a	GetAnswer	Loss
126.044	4.0	0.027	202.854	9.0	1	12.7	2.2	16.3362	955.0	1.82	Outcome1	12.7	4.4	0.0	No	n/a	8.30464326160815	n/a	n/a	n/a	ShowChoice	Loss
130.056	1.0	0.012	206.866	9.0	1	12.7	2.2	16.3362	955.0	1.82	Outcome1	12.7	4.4	0.0	No	n/a	8.30464326160815	n/a	n/a	n/a	ShowResult	Loss
131.075	2.0	0.019	207.885	9.0	1	12.7	2.2	16.3362	955.0	1.82	Outcome1	12.7	4.4	0.0	No	n/a	8.30464326160815	n/a	n/a	n/a	ISITrial	Loss
133.098	3.0	0.023	209.908	10.0	1	9.1	0.19	17.4737	955.0	2.22	Outcome1	9.1	0.38	4.0	Yes	2.0	8.71574178935447	1.863	134.961	n/a	GetAnswer	Gain
134.987	4.0	0.026	211.797	10.0	1	9.1	0.19	17.4737	955.0	2.22	Outcome1	9.1	0.38	4.0	Yes	n/a	8.71574178935447	n/a	n/a	n/a	ShowChoice	Gain
138.999	1.0	0.012	215.809	10.0	1	9.1	0.19	17.4737	955.0	2.22	Outcome1	9.1	0.38	4.0	Yes	n/a	8.71574178935447	n/a	n/a	n/a	ShowResult	Gain
140.019	2.0	0.02	216.829	10.0	1	9.1	0.19	17.4737	955.0	2.22	Outcome1	9.1	0.38	4.0	Yes	n/a	8.71574178935447	n/a	n/a	n/a	ISITrial	Gain
142.041	4.0	0.022	218.851	10.0	1	9.1	0.19	17.4737	955.0	2.22	Outcome1	9.1	0.38	4.0	Yes	n/a	8.71574178935447	n/a	n/a	n/a	TrialHappPreview	Gain
146.07	4.012	0.029	222.88	10.0	1	9.1	0.19	17.4737	955.0	2.22	Outcome1	9.1	0.38	4.0	Yes	n/a	8.71574178935447	n/a	n/a	696.0	TrialHappiness	Gain
146.071	2.355	n/a	223.274	10.0	1	9.1	0.19	17.4737	955.0	2.22	Outcome1	9.1	0.38	4.0	Yes	n/a	8.71574178935447	n/a	n/a	696.0	TrialHappinessSliderResponse	Gain
150.082	8.0	4.012	226.892	10.0	1	9.1	0.19	17.4737	955.0	2.22	Outcome1	9.1	0.38	4.0	Yes	n/a	8.71574178935447	n/a	n/a	n/a	ISIRate	Gain
158.106	3.0	0.024	234.916	11.0	1	5.5	2.0	18.1612	955.0	2.8	Outcome2	-1.86	5.5	0.0	No	2.0	7.36013590033975	1.706	159.812	n/a	GetAnswer	Gain
159.828	4.0	0.016	236.638	11.0	1	5.5	2.0	18.1612	955.0	2.8	Outcome2	-1.86	5.5	0.0	No	n/a	7.36013590033975	n/a	n/a	n/a	ShowChoice	Gain
163.84	1.0	0.012	240.65	11.0	1	5.5	2.0	18.1612	955.0	2.8	Outcome2	-1.86	5.5	0.0	No	n/a	7.36013590033975	n/a	n/a	n/a	ShowResult	Gain
164.86	3.324	0.02	241.67	11.0	1	5.5	2.0	18.1612	955.0	2.8	Outcome2	-1.86	5.5	0.0	No	n/a	7.36013590033975	n/a	n/a	n/a	ISITrial	Gain
168.203	3.0	0.019	245.013	12.0	1	3.5	0.0	18.5987	955.0	0.82	Outcome2	-4.15	3.5	2.61875	Yes	2.0	7.65345413363533	1.453	169.656	n/a	GetAnswer	Mixed
169.674	4.0	0.018	246.484	12.0	1	3.5	0.0	18.5987	955.0	0.82	Outcome2	-4.15	3.5	2.61875	Yes	n/a	7.65345413363533	n/a	n/a	n/a	ShowChoice	Mixed
173.686	1.0	0.012	250.496	12.0	1	3.5	0.0	18.5987	955.0	0.82	Outcome2	-4.15	3.5	2.61875	Yes	n/a	7.65345413363533	n/a	n/a	n/a	ShowResult	Mixed
174.706	6.642	0.02	251.516	12.0	1	3.5	0.0	18.5987	955.0	0.82	Outcome2	-4.15	3.5	2.61875	Yes	n/a	7.65345413363533	n/a	n/a	n/a	ISITrial	Mixed
181.359	2.619	0.011	258.169	12.0	1	3.5	0.0	18.5987	955.0	0.82	Outcome2	-4.15	3.5	2.61875	Yes	n/a	7.65345413363533	n/a	n/a	n/a	TrialHappPreview	Mixed
184.0	4.012	0.022	260.81	12.0	1	3.5	0.0	18.5987	955.0	0.82	Outcome2	-4.15	3.5	2.61875	Yes	n/a	7.65345413363533	n/a	n/a	752.0	TrialHappiness	Mixed
184.001	0.64	n/a	261.297	12.0	1	3.5	0.0	18.5987	955.0	0.82	Outcome2	-4.15	3.5	2.61875	Yes	n/a	7.65345413363533	n/a	n/a	752.0	TrialHappinessSliderResponse	Mixed
188.012	2.475	4.012	264.822	12.0	1	3.5	0.0	18.5987	955.0	0.82	Outcome2	-4.15	3.5	2.61875	Yes	n/a	7.65345413363533	n/a	n/a	n/a	ISIRate	Mixed
190.503	3.0	0.016	267.313	13.0	1	-5.0	-5.0	17.9737	955.0	0.2	Certain	-8.5	-1.5	0.0	No	4.0	6.995469988674969	2.609	193.112	n/a	GetAnswer	Mixed
193.127	4.0	0.015	269.937	13.0	1	-5.0	-5.0	17.9737	955.0	0.2	Certain	-8.5	-1.5	0.0	No	n/a	6.995469988674969	n/a	n/a	n/a	ShowChoice	Mixed
197.139	1.0	0.012	273.949	13.0	1	-5.0	-5.0	17.9737	955.0	0.2	Certain	-8.5	-1.5	0.0	No	n/a	6.995469988674969	n/a	n/a	n/a	ShowResult	Mixed
198.159	3.48	0.02	274.969	13.0	1	-5.0	-5.0	17.9737	955.0	0.2	Certain	-8.5	-1.5	0.0	No	n/a	6.995469988674969	n/a	n/a	n/a	ISITrial	Mixed
201.67	3.0	0.031	278.48	14.0	1	0.3	-3.0	18.0112	955.0	2.0	Outcome1	0.3	-6.93	0.0	No	2.0	7.22536806342016	1.838	203.508	n/a	GetAnswer	Mixed
203.525	4.0	0.017	280.335	14.0	1	0.3	-3.0	18.0112	955.0	2.0	Outcome1	0.3	-6.93	0.0	No	n/a	7.22536806342016	n/a	n/a	n/a	ShowChoice	Mixed
207.537	1.0	0.012	284.347	14.0	1	0.3	-3.0	18.0112	955.0	2.0	Outcome1	0.3	-6.93	0.0	No	n/a	7.22536806342016	n/a	n/a	n/a	ShowResult	Mixed
208.557	5.019	0.02	285.367	14.0	1	0.3	-3.0	18.0112	955.0	2.0	Outcome1	0.3	-6.93	0.0	No	n/a	7.22536806342016	n/a	n/a	n/a	ISITrial	Mixed
213.605	3.0	0.029	290.415	15.0	1	8.74	4.37	19.1037	955.0	3.6	Outcome1	8.74	9.9	3.3485	Yes	2.0	-1.15770101925255	1.184	214.789	n/a	GetAnswer	Gain
214.809	4.0	0.02	291.619	15.0	1	8.74	4.37	19.1037	955.0	3.6	Outcome1	8.74	9.9	3.3485	Yes	n/a	-1.15770101925255	n/a	n/a	n/a	ShowChoice	Gain
218.821	1.0	0.012	295.631	15.0	1	8.74	4.37	19.1037	955.0	3.6	Outcome1	8.74	9.9	3.3485	Yes	n/a	-1.15770101925255	n/a	n/a	n/a	ShowResult	Gain
219.841	7.614	0.02	296.651	15.0	1	8.74	4.37	19.1037	955.0	3.6	Outcome1	8.74	9.9	3.3485	Yes	n/a	-1.15770101925255	n/a	n/a	n/a	ISITrial	Gain
227.48	3.348	0.025	304.29	15.0	1	8.74	4.37	19.1037	955.0	3.6	Outcome1	8.74	9.9	3.3485	Yes	n/a	-1.15770101925255	n/a	n/a	n/a	TrialHappPreview	Gain
230.857	4.012	0.029	307.667	15.0	1	8.74	4.37	19.1037	955.0	3.6	Outcome1	8.74	9.9	3.3485	Yes	2{-2}2{-2}2{-2}2{-2}4	-1.15770101925255	3.934	234.791	744.0	TrialHappiness	Gain
230.858	1.627	n/a	309.975	15.0	1	8.74	4.37	19.1037	955.0	3.6	Outcome1	8.74	9.9	3.3485	Yes	n/a	-1.15770101925255	n/a	n/a	744.0	TrialHappinessSliderResponse	Gain
234.869	5.394	4.012	311.679	15.0	1	8.74	4.37	19.1037	955.0	3.6	Outcome1	8.74	9.9	3.3485	Yes	n/a	-1.15770101925255	n/a	n/a	n/a	ISIRate	Gain
240.285	3.0	0.022	317.095	16.0	1	13.1	2.64	20.7412	955.0	2.22	Outcome1	13.1	5.28	0.0	No	2.0	7.82106455266138	1.157	241.442	n/a	GetAnswer	Loss
241.455	4.0	0.013	318.265	16.0	1	13.1	2.64	20.7412	955.0	2.22	Outcome1	13.1	5.28	0.0	No	n/a	7.82106455266138	n/a	n/a	n/a	ShowChoice	Loss
245.467	1.0	0.012	322.277	16.0	1	13.1	2.64	20.7412	955.0	2.22	Outcome1	13.1	5.28	0.0	No	n/a	7.82106455266138	n/a	n/a	n/a	ShowResult	Loss
246.487	3.008	0.02	323.297	16.0	1	13.1	2.64	20.7412	955.0	2.22	Outcome1	13.1	5.28	0.0	No	n/a	7.82106455266138	n/a	n/a	n/a	ISITrial	Loss
249.513	3.0	0.018	326.323	17.0	1	8.27	4.14	21.775	955.0	2.8	Outcome1	8.27	9.5	3.0415	Yes	2.0	-1.22923744809362	1.766	251.279	n/a	GetAnswer	Gain
251.301	4.0	0.022	328.111	17.0	1	8.27	4.14	21.775	955.0	2.8	Outcome1	8.27	9.5	3.0415	Yes	n/a	-1.22923744809362	n/a	n/a	n/a	ShowChoice	Gain
255.313	1.0	0.012	332.123	17.0	1	8.27	4.14	21.775	955.0	2.8	Outcome1	8.27	9.5	3.0415	Yes	n/a	-1.22923744809362	n/a	n/a	n/a	ShowResult	Gain
256.333	3.566	0.02	333.143	17.0	1	8.27	4.14	21.775	955.0	2.8	Outcome1	8.27	9.5	3.0415	Yes	n/a	-1.22923744809362	n/a	n/a	n/a	ISITrial	Gain
259.91	3.042	0.011	336.72	17.0	1	8.27	4.14	21.775	955.0	2.8	Outcome1	8.27	9.5	3.0415	Yes	n/a	-1.22923744809362	n/a	n/a	n/a	TrialHappPreview	Gain
262.97	4.012	0.018	339.78	17.0	1	8.27	4.14	21.775	955.0	2.8	Outcome1	8.27	9.5	3.0415	Yes	n/a	-1.22923744809362	n/a	n/a	680.0	TrialHappiness	Gain
262.97	1.032	n/a	340.259	17.0	1	8.27	4.14	21.775	955.0	2.8	Outcome1	8.27	9.5	3.0415	Yes	n/a	-1.22923744809362	n/a	n/a	680.0	TrialHappinessSliderResponse	Gain
266.982	4.166	4.012	343.792	17.0	1	8.27	4.14	21.775	955.0	2.8	Outcome1	8.27	9.5	3.0415	Yes	n/a	-1.22923744809362	n/a	n/a	n/a	ISIRate	Gain
271.177	3.0	0.029	347.987	18.0	1	12.3	1.46	23.3125	955.0	5.0	Outcome2	2.91	12.3	0.0	No	2.0	9.38618346545866	1.424	272.601	n/a	GetAnswer	Loss
272.615	4.0	0.014	349.425	18.0	1	12.3	1.46	23.3125	955.0	5.0	Outcome2	2.91	12.3	0.0	No	n/a	9.38618346545866	n/a	n/a	n/a	ShowChoice	Loss
276.627	1.0	0.012	353.437	18.0	1	12.3	1.46	23.3125	955.0	5.0	Outcome2	2.91	12.3	0.0	No	n/a	9.38618346545866	n/a	n/a	n/a	ShowResult	Loss
277.647	6.787	0.02	354.457	18.0	1	12.3	1.46	23.3125	955.0	5.0	Outcome2	2.91	12.3	0.0	No	n/a	9.38618346545866	n/a	n/a	n/a	ISITrial	Loss
284.451	3.0	0.017	361.261	19.0	1	3.9	-1.0	23.8	955.0	1.2	Outcome2	-5.8	3.9	0.0	No	2.0	9.69762174405436	1.89	286.341	n/a	GetAnswer	Mixed
286.356	4.0	0.015	363.166	19.0	1	3.9	-1.0	23.8	955.0	1.2	Outcome2	-5.8	3.9	0.0	No	n/a	9.69762174405436	n/a	n/a	n/a	ShowChoice	Mixed
290.368	1.0	0.012	367.178	19.0	1	3.9	-1.0	23.8	955.0	1.2	Outcome2	-5.8	3.9	0.0	No	n/a	9.69762174405436	n/a	n/a	n/a	ShowResult	Mixed
291.388	2.0	0.02	368.198	19.0	1	3.9	-1.0	23.8	955.0	1.2	Outcome2	-5.8	3.9	0.0	No	n/a	9.69762174405436	n/a	n/a	n/a	ISITrial	Mixed
293.411	3.0	0.023	370.221	20.0	1	-0.5	-5.0	23.7375	955.0	0.82	Outcome1	-0.5	-10.51	2.92125	Yes	n/a	10.0090600226501	n/a	n/a	n/a	GetAnswer	Mixed
296.436	4.0	0.025	373.246	20.0	1	-0.5	-5.0	23.7375	955.0	0.82	Outcome1	-0.5	-10.51	2.92125	Yes	n/a	10.0090600226501	n/a	n/a	n/a	ShowChoice	Mixed
300.448	1.0	0.012	377.258	20.0	1	-0.5	-5.0	23.7375	955.0	0.82	Outcome1	-0.5	-10.51	2.92125	Yes	n/a	10.0090600226501	n/a	n/a	n/a	ShowResult	Mixed
301.468	8.0	0.02	378.278	20.0	1	-0.5	-5.0	23.7375	955.0	0.82	Outcome1	-0.5	-10.51	2.92125	Yes	n/a	10.0090600226501	n/a	n/a	n/a	ISITrial	Mixed
309.492	2.921	0.024	386.302	20.0	1	-0.5	-5.0	23.7375	955.0	0.82	Outcome1	-0.5	-10.51	2.92125	Yes	n/a	10.0090600226501	n/a	n/a	n/a	TrialHappPreview	Mixed
312.434	4.012	0.021	389.244	20.0	1	-0.5	-5.0	23.7375	955.0	0.82	Outcome1	-0.5	-10.51	2.92125	Yes	n/a	10.0090600226501	n/a	n/a	688.0	TrialHappiness	Mixed
312.435	0.511	n/a	391.933	20.0	1	-0.5	-5.0	23.7375	955.0	0.82	Outcome1	-0.5	-10.51	2.92125	Yes	n/a	10.0090600226501	n/a	n/a	688.0	TrialHappinessSliderResponse	Mixed
316.446	3.685	4.012	393.256	20.0	1	-0.5	-5.0	23.7375	955.0	0.82	Outcome1	-0.5	-10.51	2.92125	Yes	n/a	10.0090600226501	n/a	n/a	n/a	ISIRate	Mixed
320.157	3.0	0.026	396.967	21.0	1	10.9	0.36	25.1	955.0	2.0	Outcome2	0.72	10.9	0.0	No	2.0	10.1845979614949	1.669	321.826	n/a	GetAnswer	Loss
321.846	4.0	0.02	398.656	21.0	1	10.9	0.36	25.1	955.0	2.0	Outcome2	0.72	10.9	0.0	No	n/a	10.1845979614949	n/a	n/a	n/a	ShowChoice	Loss
325.858	1.0	0.012	402.668	21.0	1	10.9	0.36	25.1	955.0	2.0	Outcome2	0.72	10.9	0.0	No	n/a	10.1845979614949	n/a	n/a	n/a	ShowResult	Loss
326.877	3.555	0.019	403.687	21.0	1	10.9	0.36	25.1	955.0	2.0	Outcome2	0.72	10.9	0.0	No	n/a	10.1845979614949	n/a	n/a	n/a	ISITrial	Loss
330.455	3.0	0.023	407.265	22.0	1	10.7	0.1	26.4375	955.0	1.82	Outcome1	10.7	0.21	3.2195	Yes	n/a	10.4869762174405	n/a	n/a	n/a	GetAnswer	Loss
333.48	4.0	0.025	410.29	22.0	1	10.7	0.1	26.4375	955.0	1.82	Outcome1	10.7	0.21	3.2195	Yes	n/a	10.4869762174405	n/a	n/a	n/a	ShowChoice	Loss
337.492	1.0	0.012	414.302	22.0	1	10.7	0.1	26.4375	955.0	1.82	Outcome1	10.7	0.21	3.2195	Yes	n/a	10.4869762174405	n/a	n/a	n/a	ShowResult	Loss
338.512	6.793	0.02	415.322	22.0	1	10.7	0.1	26.4375	955.0	1.82	Outcome1	10.7	0.21	3.2195	Yes	n/a	10.4869762174405	n/a	n/a	n/a	ISITrial	Loss
345.316	3.22	0.011	422.126	22.0	1	10.7	0.1	26.4375	955.0	1.82	Outcome1	10.7	0.21	3.2195	Yes	n/a	10.4869762174405	n/a	n/a	n/a	TrialHappPreview	Loss
348.559	4.012	0.023	425.369	22.0	1	10.7	0.1	26.4375	955.0	1.82	Outcome1	10.7	0.21	3.2195	Yes	n/a	10.4869762174405	n/a	n/a	640.0	TrialHappiness	Loss
348.559	2.499	n/a	425.818	22.0	1	10.7	0.1	26.4375	955.0	1.82	Outcome1	10.7	0.21	3.2195	Yes	n/a	10.4869762174405	n/a	n/a	640.0	TrialHappinessSliderResponse	Loss
352.571	4.878	4.012	429.381	22.0	1	10.7	0.1	26.4375	955.0	1.82	Outcome1	10.7	0.21	3.2195	Yes	n/a	10.4869762174405	n/a	n/a	n/a	ISIRate	Loss
357.469	3.0	0.02	434.279	23.0	1	4.3	-1.0	26.975	955.0	2.0	Outcome1	4.3	-7.3	0.0	No	2.0	11.6047565118913	1.424	358.893	n/a	GetAnswer	Mixed
358.906	4.0	0.013	435.716	23.0	1	4.3	-1.0	26.975	955.0	2.0	Outcome1	4.3	-7.3	0.0	No	n/a	11.6047565118913	n/a	n/a	n/a	ShowChoice	Mixed
362.918	1.0	0.012	439.728	23.0	1	4.3	-1.0	26.975	955.0	2.0	Outcome1	4.3	-7.3	0.0	No	n/a	11.6047565118913	n/a	n/a	n/a	ShowResult	Mixed
363.938	8.0	0.02	440.748	23.0	1	4.3	-1.0	26.975	955.0	2.0	Outcome1	4.3	-7.3	0.0	No	n/a	11.6047565118913	n/a	n/a	n/a	ISITrial	Mixed
371.962	3.0	0.024	448.772	24.0	1	-1.0	-1.0	26.85	955.0	1.0	Certain	-0.3	-2.13	3.255	Yes	4.0	-1.82918082295206	2.34	374.302	n/a	GetAnswer	Mixed
374.319	4.0	0.017	451.129	24.0	1	-1.0	-1.0	26.85	955.0	1.0	Certain	-0.3	-2.13	3.255	Yes	n/a	-1.82918082295206	n/a	n/a	n/a	ShowChoice	Mixed
378.331	1.0	0.012	455.141	24.0	1	-1.0	-1.0	26.85	955.0	1.0	Certain	-0.3	-2.13	3.255	Yes	n/a	-1.82918082295206	n/a	n/a	n/a	ShowResult	Mixed
379.351	2.0	0.02	456.161	24.0	1	-1.0	-1.0	26.85	955.0	1.0	Certain	-0.3	-2.13	3.255	Yes	n/a	-1.82918082295206	n/a	n/a	n/a	ISITrial	Mixed
381.374	3.255	0.023	458.184	24.0	1	-1.0	-1.0	26.85	955.0	1.0	Certain	-0.3	-2.13	3.255	Yes	n/a	-1.82918082295206	n/a	n/a	n/a	TrialHappPreview	Mixed
384.65	4.012	0.021	461.46	24.0	1	-1.0	-1.0	26.85	955.0	1.0	Certain	-0.3	-2.13	3.255	Yes	n/a	-1.82918082295206	n/a	n/a	616.0	TrialHappiness	Mixed
384.651	2.989	n/a	462.274	24.0	1	-1.0	-1.0	26.85	955.0	1.0	Certain	-0.3	-2.13	3.255	Yes	n/a	-1.82918082295206	n/a	n/a	616.0	TrialHappinessSliderResponse	Mixed
388.662	5.02	4.012	465.472	24.0	1	-1.0	-1.0	26.85	955.0	1.0	Certain	-0.3	-2.13	3.255	Yes	n/a	-1.82918082295206	n/a	n/a	n/a	ISIRate	Mixed
393.711	3.0	0.029	470.521	25.0	1	7.34	3.67	27.7675	955.0	2.48	Outcome1	7.34	9.3	0.0	No	2.0	-1.95630426576066	1.088	394.799	n/a	GetAnswer	Gain
394.814	4.0	0.015	471.624	25.0	1	7.34	3.67	27.7675	955.0	2.48	Outcome1	7.34	9.3	0.0	No	n/a	-1.95630426576066	n/a	n/a	n/a	ShowChoice	Gain
398.826	1.0	0.012	475.636	25.0	1	7.34	3.67	27.7675	955.0	2.48	Outcome1	7.34	9.3	0.0	No	n/a	-1.95630426576066	n/a	n/a	n/a	ShowResult	Gain
399.846	3.749	0.02	476.656	25.0	1	7.34	3.67	27.7675	955.0	2.48	Outcome1	7.34	9.3	0.0	No	n/a	-1.95630426576066	n/a	n/a	n/a	ISITrial	Gain
403.623	3.0	0.028	480.433	26.0	1	0.1	0.1	27.78	955.0	2.48	Certain	13.3	0.19	0.0	No	4.0	13.1098527746319	1.909	405.532	n/a	GetAnswer	Loss
405.546	4.0	0.014	482.356	26.0	1	0.1	0.1	27.78	955.0	2.48	Certain	13.3	0.19	0.0	No	n/a	13.1098527746319	n/a	n/a	n/a	ShowChoice	Loss
409.558	1.0	0.012	486.368	26.0	1	0.1	0.1	27.78	955.0	2.48	Certain	13.3	0.19	0.0	No	n/a	13.1098527746319	n/a	n/a	n/a	ShowResult	Loss
410.578	7.834	0.02	487.388	26.0	1	0.1	0.1	27.78	955.0	2.48	Certain	13.3	0.19	0.0	No	n/a	13.1098527746319	n/a	n/a	n/a	ISITrial	Loss
418.434	3.0	0.022	495.244	27.0	1	11.1	-1.2	29.1675	955.0	2.22	Outcome1	11.1	-2.39	2.54975	Yes	2.0	13.4937712344281	1.162	419.596	n/a	GetAnswer	Loss
419.621	4.0	0.025	496.431	27.0	1	11.1	-1.2	29.1675	955.0	2.22	Outcome1	11.1	-2.39	2.54975	Yes	n/a	13.4937712344281	n/a	n/a	n/a	ShowChoice	Loss
423.633	1.0	0.012	500.443	27.0	1	11.1	-1.2	29.1675	955.0	2.22	Outcome1	11.1	-2.39	2.54975	Yes	n/a	13.4937712344281	n/a	n/a	n/a	ShowResult	Loss
424.653	4.225	0.02	501.463	27.0	1	11.1	-1.2	29.1675	955.0	2.22	Outcome1	11.1	-2.39	2.54975	Yes	n/a	13.4937712344281	n/a	n/a	n/a	ISITrial	Loss
428.899	2.55	0.021	505.709	27.0	1	11.1	-1.2	29.1675	955.0	2.22	Outcome1	11.1	-2.39	2.54975	Yes	n/a	13.4937712344281	n/a	n/a	n/a	TrialHappPreview	Loss
431.473	4.012	0.024	508.283	27.0	1	11.1	-1.2	29.1675	955.0	2.22	Outcome1	11.1	-2.39	2.54975	Yes	n/a	13.4937712344281	n/a	n/a	584.0	TrialHappiness	Loss
431.474	2.93	n/a	508.789	27.0	1	11.1	-1.2	29.1675	955.0	2.22	Outcome1	11.1	-2.39	2.54975	Yes	n/a	13.4937712344281	n/a	n/a	584.0	TrialHappinessSliderResponse	Loss
435.485	2.199	4.012	512.295	27.0	1	11.1	-1.2	29.1675	955.0	2.22	Outcome1	11.1	-2.39	2.54975	Yes	n/a	13.4937712344281	n/a	n/a	n/a	ISIRate	Loss
467.398	0.441	n/a	545.261	n/a	1	n/a	n/a	n/a	n/a	n/a	n/a	n/a	n/a	n/a	n/a	n/a	n/a	n/a	n/a	656.0	BlockStartHappinessSliderResponse	n/a
-37.244	-0.001	0.025	514.519	n/a	2	n/a	n/a	n/a	n/a	n/a	n/a	n/a	n/a	n/a	n/a	{SPACE}	n/a	25.658	-11.586	n/a	Rest	n/a
-11.567	4.0	0.019	540.196	n/a	2	n/a	n/a	n/a	n/a	n/a	n/a	n/a	n/a	n/a	n/a	n/a	n/a	n/a	n/a	n/a	BlockHappyPreview	n/a
-7.556	1.494	0.011	544.207	n/a	2	n/a	n/a	n/a	n/a	n/a	n/a	n/a	n/a	n/a	n/a	n/a	n/a	n/a	n/a	656.0	BlockStartHappiness	n/a
-1.872	-0.001	0.018	549.891	n/a	2	n/a	n/a	n/a	n/a	n/a	n/a	n/a	n/a	n/a	n/a	5.0	n/a	1.863	-0.009	n/a	ScanWait	n/a
0.0	10.0	0.009	551.763	n/a	2	n/a	n/a	n/a	n/a	n/a	n/a	n/a	n/a	n/a	n/a	n/a	n/a	n/a	n/a	n/a	GetReady	n/a
10.014	3.0	0.014	561.777	28.0	2	-2.87	2.0	28.8087	70.0	2.22	Outcome2	7.1	-2.87	0.0	No	2.0	-9.96598639455782	1.426	11.44	n/a	GetAnswer	Gain
11.468	4.0	0.028	563.231	28.0	2	-2.87	2.0	28.8087	70.0	2.22	Outcome2	7.1	-2.87	0.0	No	n/a	-9.96598639455782	n/a	n/a	n/a	ShowChoice	Gain
15.48	1.0	0.012	567.243	28.0	2	-2.87	2.0	28.8087	70.0	2.22	Outcome2	7.1	-2.87	0.0	No	n/a	-9.96598639455782	n/a	n/a	n/a	ShowResult	Gain
16.5	3.575	0.02	568.263	28.0	2	-2.87	2.0	28.8087	70.0	2.22	Outcome2	7.1	-2.87	0.0	No	n/a	-9.96598639455782	n/a	n/a	n/a	ISITrial	Gain
20.094	3.0	0.019	571.857	29.0	2	0.0	0.0	28.8087	70.0	2.48	Certain	-5.33	5.3	3.529	Yes	4.0	-10.6303854875283	2.03	22.124	n/a	GetAnswer	Gain
22.15	4.0	0.026	573.913	29.0	2	0.0	0.0	28.8087	70.0	2.48	Certain	-5.33	5.3	3.529	Yes	n/a	-10.6303854875283	n/a	n/a	n/a	ShowChoice	Gain
26.162	1.0	0.012	577.925	29.0	2	0.0	0.0	28.8087	70.0	2.48	Certain	-5.33	5.3	3.529	Yes	n/a	-10.6303854875283	n/a	n/a	n/a	ShowResult	Gain
27.182	3.955	0.02	578.945	29.0	2	0.0	0.0	28.8087	70.0	2.48	Certain	-5.33	5.3	3.529	Yes	n/a	-10.6303854875283	n/a	n/a	n/a	ISITrial	Gain
31.16	3.529	0.023	582.923	29.0	2	0.0	0.0	28.8087	70.0	2.48	Certain	-5.33	5.3	3.529	Yes	n/a	-10.6303854875283	n/a	n/a	n/a	TrialHappPreview	Gain
34.704	4.012	0.015	586.467	29.0	2	0.0	0.0	28.8087	70.0	2.48	Certain	-5.33	5.3	3.529	Yes	n/a	-10.6303854875283	n/a	n/a	576.0	TrialHappiness	Gain
34.705	0.945	n/a	588.556	29.0	2	0.0	0.0	28.8087	70.0	2.48	Certain	-5.33	5.3	3.529	Yes	n/a	-10.6303854875283	n/a	n/a	576.0	TrialHappinessSliderResponse	Gain
38.716	6.116	4.012	590.479	29.0	2	0.0	0.0	28.8087	70.0	2.48	Certain	-5.33	5.3	3.529	Yes	n/a	-10.6303854875283	n/a	n/a	n/a	ISIRate	Gain
44.851	3.0	0.019	596.614	30.0	2	-6.83	-2.0	27.9549	70.0	0.52	Outcome1	-6.83	3.1	0.0	No	2.0	-9.93424036281179	1.332	46.183	n/a	GetAnswer	Mixed
46.205	4.0	0.022	597.968	30.0	2	-6.83	-2.0	27.9549	70.0	0.52	Outcome1	-6.83	3.1	0.0	No	n/a	-9.93424036281179	n/a	n/a	n/a	ShowChoice	Mixed
50.217	1.0	0.012	601.98	30.0	2	-6.83	-2.0	27.9549	70.0	0.52	Outcome1	-6.83	3.1	0.0	No	n/a	-9.93424036281179	n/a	n/a	n/a	ShowResult	Mixed
51.237	4.453	0.02	603.0	30.0	2	-6.83	-2.0	27.9549	70.0	0.52	Outcome1	-6.83	3.1	0.0	No	n/a	-9.93424036281179	n/a	n/a	n/a	ISITrial	Mixed
55.717	3.0	0.027	607.48	31.0	2	2.0	2.0	28.2049	70.0	3.6	Certain	-2.61	7.9	2.50325	Yes	4.0	-10.5079365079365	2.048	57.765	n/a	GetAnswer	Gain
57.79	4.0	0.025	609.553	31.0	2	2.0	2.0	28.2049	70.0	3.6	Certain	-2.61	7.9	2.50325	Yes	n/a	-10.5079365079365	n/a	n/a	n/a	ShowChoice	Gain
61.802	1.0	0.012	613.565	31.0	2	2.0	2.0	28.2049	70.0	3.6	Certain	-2.61	7.9	2.50325	Yes	n/a	-10.5079365079365	n/a	n/a	n/a	ShowResult	Gain
62.822	4.786	0.02	614.585	31.0	2	2.0	2.0	28.2049	70.0	3.6	Certain	-2.61	7.9	2.50325	Yes	n/a	-10.5079365079365	n/a	n/a	n/a	ISITrial	Gain
67.636	2.503	0.028	619.399	31.0	2	2.0	2.0	28.2049	70.0	3.6	Certain	-2.61	7.9	2.50325	Yes	n/a	-10.5079365079365	n/a	n/a	n/a	TrialHappPreview	Gain
70.16	4.012	0.021	621.923	31.0	2	2.0	2.0	28.2049	70.0	3.6	Certain	-2.61	7.9	2.50325	Yes	n/a	-10.5079365079365	n/a	n/a	552.0	TrialHappiness	Gain
70.161	0.212	n/a	622.373	31.0	2	2.0	2.0	28.2049	70.0	3.6	Certain	-2.61	7.9	2.50325	Yes	n/a	-10.5079365079365	n/a	n/a	552.0	TrialHappinessSliderResponse	Gain
74.172	2.013	4.012	625.935	31.0	2	2.0	2.0	28.2049	70.0	3.6	Certain	-2.61	7.9	2.50325	Yes	n/a	-10.5079365079365	n/a	n/a	n/a	ISIRate	Gain
76.212	3.0	0.027	627.975	32.0	2	-8.37	-3.0	27.1586	70.0	2.0	Outcome2	2.3	-8.37	0.0	No	2.0	-10.6734693877551	1.511	77.723	n/a	GetAnswer	Mixed
77.75	4.0	0.027	629.513	32.0	2	-8.37	-3.0	27.1586	70.0	2.0	Outcome2	2.3	-8.37	0.0	No	n/a	-10.6734693877551	n/a	n/a	n/a	ShowChoice	Mixed
81.762	1.0	0.012	633.525	32.0	2	-8.37	-3.0	27.1586	70.0	2.0	Outcome2	2.3	-8.37	0.0	No	n/a	-10.6734693877551	n/a	n/a	n/a	ShowResult	Mixed
82.781	2.0	0.019	634.544	32.0	2	-8.37	-3.0	27.1586	70.0	2.0	Outcome2	2.3	-8.37	0.0	No	n/a	-10.6734693877551	n/a	n/a	n/a	ISITrial	Mixed
84.804	3.0	0.023	636.567	33.0	2	-6.72	-1.0	26.3186	70.0	1.68	Outcome2	4.5	-6.72	0.0	No	2.0	-11.219954648526098	1.757	86.561	n/a	GetAnswer	Gain
86.576	4.0	0.014	638.339	33.0	2	-6.72	-1.0	26.3186	70.0	1.68	Outcome2	4.5	-6.72	0.0	No	n/a	-11.219954648526098	n/a	n/a	n/a	ShowChoice	Gain
90.588	1.0	0.012	642.351	33.0	2	-6.72	-1.0	26.3186	70.0	1.68	Outcome2	4.5	-6.72	0.0	No	n/a	-11.219954648526098	n/a	n/a	n/a	ShowResult	Gain
91.608	5.099	0.02	643.371	33.0	2	-6.72	-1.0	26.3186	70.0	1.68	Outcome2	4.5	-6.72	0.0	No	n/a	-11.219954648526098	n/a	n/a	n/a	ISITrial	Gain
96.723	3.0	0.016	648.486	34.0	2	-11.87	-6.0	24.8348	70.0	1.2	Outcome1	-11.87	-0.1	3.2315	Yes	2.0	-11.7664399092971	2.241	98.964	n/a	GetAnswer	Mixed
98.98	4.0	0.016	650.743	34.0	2	-11.87	-6.0	24.8348	70.0	1.2	Outcome1	-11.87	-0.1	3.2315	Yes	n/a	-11.7664399092971	n/a	n/a	n/a	ShowChoice	Mixed
102.992	1.0	0.012	654.755	34.0	2	-11.87	-6.0	24.8348	70.0	1.2	Outcome1	-11.87	-0.1	3.2315	Yes	n/a	-11.7664399092971	n/a	n/a	n/a	ShowResult	Mixed
104.011	4.784	0.019	655.774	34.0	2	-11.87	-6.0	24.8348	70.0	1.2	Outcome1	-11.87	-0.1	3.2315	Yes	n/a	-11.7664399092971	n/a	n/a	n/a	ISITrial	Mixed
108.809	3.232	0.014	660.572	34.0	2	-11.87	-6.0	24.8348	70.0	1.2	Outcome1	-11.87	-0.1	3.2315	Yes	n/a	-11.7664399092971	n/a	n/a	n/a	TrialHappPreview	Mixed
112.069	4.012	0.028	663.832	34.0	2	-11.87	-6.0	24.8348	70.0	1.2	Outcome1	-11.87	-0.1	3.2315	Yes	n/a	-11.7664399092971	n/a	n/a	456.0	TrialHappiness	Mixed
112.069	0.258	n/a	664.266	34.0	2	-11.87	-6.0	24.8348	70.0	1.2	Outcome1	-11.87	-0.1	3.2315	Yes	n/a	-11.7664399092971	n/a	n/a	456.0	TrialHappinessSliderResponse	Mixed
116.081	4.926	4.012	667.844	34.0	2	-11.87	-6.0	24.8348	70.0	1.2	Outcome1	-11.87	-0.1	3.2315	Yes	n/a	-11.7664399092971	n/a	n/a	n/a	ISIRate	Mixed
121.029	3.0	0.022	672.792	35.0	2	3.12	2.0	25.2248	70.0	1.68	Outcome2	1.21	3.12	0.0	No	2.0	1.91118669690098	1.483	122.512	n/a	GetAnswer	Loss
122.533	4.0	0.021	674.296	35.0	2	3.12	2.0	25.2248	70.0	1.68	Outcome2	1.21	3.12	0.0	No	n/a	1.91118669690098	n/a	n/a	n/a	ShowChoice	Loss
126.545	1.0	0.012	678.308	35.0	2	3.12	2.0	25.2248	70.0	1.68	Outcome2	1.21	3.12	0.0	No	n/a	1.91118669690098	n/a	n/a	n/a	ShowResult	Loss
127.565	2.098	0.02	679.328	35.0	2	3.12	2.0	25.2248	70.0	1.68	Outcome2	1.21	3.12	0.0	No	n/a	1.91118669690098	n/a	n/a	n/a	ISITrial	Loss
129.688	3.0	0.025	681.451	36.0	2	1.18	0.0	25.3723	70.0	1.82	Outcome2	-0.77	1.18	3.33575	Yes	2.0	1.94765684051398	1.654	131.342	n/a	GetAnswer	Gain
131.36	4.0	0.018	683.123	36.0	2	1.18	0.0	25.3723	70.0	1.82	Outcome2	-0.77	1.18	3.33575	Yes	n/a	1.94765684051398	n/a	n/a	n/a	ShowChoice	Gain
135.372	1.0	0.012	687.135	36.0	2	1.18	0.0	25.3723	70.0	1.82	Outcome2	-0.77	1.18	3.33575	Yes	n/a	1.94765684051398	n/a	n/a	n/a	ShowResult	Gain
136.392	5.156	0.02	688.155	36.0	2	1.18	0.0	25.3723	70.0	1.82	Outcome2	-0.77	1.18	3.33575	Yes	n/a	1.94765684051398	n/a	n/a	n/a	ISITrial	Gain
141.574	3.336	0.026	693.337	36.0	2	1.18	0.0	25.3723	70.0	1.82	Outcome2	-0.77	1.18	3.33575	Yes	n/a	1.94765684051398	n/a	n/a	n/a	TrialHappPreview	Gain
144.934	4.028	0.024	696.697	36.0	2	1.18	0.0	25.3723	70.0	1.82	Outcome2	-0.77	1.18	3.33575	Yes	n/a	1.94765684051398	n/a	n/a	408.0	TrialHappiness	Gain
144.934	2.512	n/a	697.736	36.0	2	1.18	0.0	25.3723	70.0	1.82	Outcome2	-0.77	1.18	3.33575	Yes	n/a	1.94765684051398	n/a	n/a	408.0	TrialHappinessSliderResponse	Gain
148.962	5.343	4.028	700.725	36.0	2	1.18	0.0	25.3723	70.0	1.82	Outcome2	-0.77	1.18	3.33575	Yes	n/a	1.94765684051398	n/a	n/a	n/a	ISIRate	Gain
154.329	3.0	0.024	706.092	37.0	2	-0.44	-0.22	25.3173	70.0	5.0	Outcome1	-0.44	10.3	0.0	No	2.0	-10.739229024943302	1.561	155.89	n/a	GetAnswer	Gain
155.917	4.0	0.027	707.68	37.0	2	-0.44	-0.22	25.3173	70.0	5.0	Outcome1	-0.44	10.3	0.0	No	n/a	-10.739229024943302	n/a	n/a	n/a	ShowChoice	Gain
159.929	1.0	0.012	711.692	37.0	2	-0.44	-0.22	25.3173	70.0	5.0	Outcome1	-0.44	10.3	0.0	No	n/a	-10.739229024943302	n/a	n/a	n/a	ShowResult	Gain
160.948	3.598	0.019	712.711	37.0	2	-0.44	-0.22	25.3173	70.0	5.0	Outcome1	-0.44	10.3	0.0	No	n/a	-10.739229024943302	n/a	n/a	n/a	ISITrial	Gain
164.576	3.0	0.03	716.339	38.0	2	-2.42	-1.21	25.0148	70.0	1.82	Outcome2	8.7	-2.42	0.0	No	2.0	-11.122448979591802	1.247	165.823	n/a	GetAnswer	Gain
165.846	4.0	0.023	717.609	38.0	2	-2.42	-1.21	25.0148	70.0	1.82	Outcome2	8.7	-2.42	0.0	No	n/a	-11.122448979591802	n/a	n/a	n/a	ShowChoice	Gain
169.858	1.0	0.012	721.621	38.0	2	-2.42	-1.21	25.0148	70.0	1.82	Outcome2	8.7	-2.42	0.0	No	n/a	-11.122448979591802	n/a	n/a	n/a	ShowResult	Gain
170.878	4.787	0.02	722.641	38.0	2	-2.42	-1.21	25.0148	70.0	1.82	Outcome2	8.7	-2.42	0.0	No	n/a	-11.122448979591802	n/a	n/a	n/a	ISITrial	Gain
175.692	3.0	0.027	727.455	39.0	2	-10.61	-5.0	23.6885	70.0	0.4	Outcome1	-10.61	0.9	2.86425	Yes	2.0	-11.5056689342404	1.749	177.441	n/a	GetAnswer	Mixed
177.464	4.0	0.023	729.227	39.0	2	-10.61	-5.0	23.6885	70.0	0.4	Outcome1	-10.61	0.9	2.86425	Yes	n/a	-11.5056689342404	n/a	n/a	n/a	ShowChoice	Mixed
181.476	1.0	0.012	733.239	39.0	2	-10.61	-5.0	23.6885	70.0	0.4	Outcome1	-10.61	0.9	2.86425	Yes	n/a	-11.5056689342404	n/a	n/a	n/a	ShowResult	Mixed
182.496	2.348	0.02	734.259	39.0	2	-10.61	-5.0	23.6885	70.0	0.4	Outcome1	-10.61	0.9	2.86425	Yes	n/a	-11.5056689342404	n/a	n/a	n/a	ISITrial	Mixed
184.87	2.864	0.026	736.633	39.0	2	-10.61	-5.0	23.6885	70.0	0.4	Outcome1	-10.61	0.9	2.86425	Yes	n/a	-11.5056689342404	n/a	n/a	n/a	TrialHappPreview	Mixed
187.762	4.029	0.028	739.525	39.0	2	-10.61	-5.0	23.6885	70.0	0.4	Outcome1	-10.61	0.9	2.86425	Yes	4{-4}4{-4}	-11.5056689342404	1.594	189.356	316.0	TrialHappiness	Mixed
187.762	1.29	n/a	739.829	39.0	2	-10.61	-5.0	23.6885	70.0	0.4	Outcome1	-10.61	0.9	2.86425	Yes	n/a	-11.5056689342404	n/a	n/a	316.0	TrialHappinessSliderResponse	Mixed
191.791	3.457	4.029	743.554	39.0	2	-10.61	-5.0	23.6885	70.0	0.4	Outcome1	-10.61	0.9	2.86425	Yes	n/a	-11.5056689342404	n/a	n/a	n/a	ISIRate	Mixed
195.268	3.0	0.02	747.031	40.0	2	-6.22	-1.0	22.911	70.0	1.5	Outcome2	4.1	-6.22	0.0	No	2.0	-10.324263038548802	1.321	196.589	n/a	GetAnswer	Mixed
196.605	4.0	0.016	748.368	40.0	2	-6.22	-1.0	22.911	70.0	1.5	Outcome2	4.1	-6.22	0.0	No	n/a	-10.324263038548802	n/a	n/a	n/a	ShowChoice	Mixed
200.634	1.0	0.029	752.397	40.0	2	-6.22	-1.0	22.911	70.0	1.5	Outcome2	4.1	-6.22	0.0	No	n/a	-10.324263038548802	n/a	n/a	n/a	ShowResult	Mixed
201.653	3.158	0.019	753.416	40.0	2	-6.22	-1.0	22.911	70.0	1.5	Outcome2	4.1	-6.22	0.0	No	n/a	-10.324263038548802	n/a	n/a	n/a	ISITrial	Mixed
204.83	3.0	0.019	756.593	41.0	2	-0.9	-0.45	22.7985	70.0	3.16	Outcome2	9.7	-0.9	4.0	Yes	2.0	-10.6031746031746	0.914	205.744	n/a	GetAnswer	Gain
205.766	4.0	0.022	757.529	41.0	2	-0.9	-0.45	22.7985	70.0	3.16	Outcome2	9.7	-0.9	4.0	Yes	n/a	-10.6031746031746	n/a	n/a	n/a	ShowChoice	Gain
209.794	1.0	0.028	761.557	41.0	2	-0.9	-0.45	22.7985	70.0	3.16	Outcome2	9.7	-0.9	4.0	Yes	n/a	-10.6031746031746	n/a	n/a	n/a	ShowResult	Gain
210.814	4.506	0.02	762.577	41.0	2	-0.9	-0.45	22.7985	70.0	3.16	Outcome2	9.7	-0.9	4.0	Yes	n/a	-10.6031746031746	n/a	n/a	n/a	ISITrial	Gain
215.344	4.0	0.024	767.107	41.0	2	-0.9	-0.45	22.7985	70.0	3.16	Outcome2	9.7	-0.9	4.0	Yes	n/a	-10.6031746031746	n/a	n/a	n/a	TrialHappPreview	Gain
219.373	4.029	0.029	771.136	41.0	2	-0.9	-0.45	22.7985	70.0	3.16	Outcome2	9.7	-0.9	4.0	Yes	n/a	-10.6031746031746	n/a	n/a	200.0	TrialHappiness	Gain
219.374	1.903	n/a	771.598	41.0	2	-0.9	-0.45	22.7985	70.0	3.16	Outcome2	9.7	-0.9	4.0	Yes	n/a	-10.6031746031746	n/a	n/a	200.0	TrialHappinessSliderResponse	Gain
223.402	8.0	4.029	775.165	41.0	2	-0.9	-0.45	22.7985	70.0	3.16	Outcome2	9.7	-0.9	4.0	Yes	n/a	-10.6031746031746	n/a	n/a	n/a	ISIRate	Gain
231.426	3.0	0.024	783.189	42.0	2	4.59	2.3	23.3723	70.0	2.8	Outcome1	4.59	13.5	0.0	No	2.0	-8.909297052154189	0.944	232.37	n/a	GetAnswer	Loss
232.395	4.0	0.025	784.158	42.0	2	4.59	2.3	23.3723	70.0	2.8	Outcome1	4.59	13.5	0.0	No	n/a	-8.909297052154189	n/a	n/a	n/a	ShowChoice	Loss
236.407	1.0	0.012	788.17	42.0	2	4.59	2.3	23.3723	70.0	2.8	Outcome1	4.59	13.5	0.0	No	n/a	-8.909297052154189	n/a	n/a	n/a	ShowResult	Loss
237.427	6.248	0.02	789.19	42.0	2	4.59	2.3	23.3723	70.0	2.8	Outcome1	4.59	13.5	0.0	No	n/a	-8.909297052154189	n/a	n/a	n/a	ISITrial	Loss
243.696	3.0	0.021	795.459	43.0	2	-0.76	-0.38	23.2773	70.0	5.0	Outcome1	-0.76	8.3	2.77575	Yes	2.0	-9.056689342403631	1.696	245.392	n/a	GetAnswer	Gain
245.418	4.0	0.026	797.181	43.0	2	-0.76	-0.38	23.2773	70.0	5.0	Outcome1	-0.76	8.3	2.77575	Yes	n/a	-9.056689342403631	n/a	n/a	n/a	ShowChoice	Gain
249.446	1.0	0.028	801.209	43.0	2	-0.76	-0.38	23.2773	70.0	5.0	Outcome1	-0.76	8.3	2.77575	Yes	n/a	-9.056689342403631	n/a	n/a	n/a	ShowResult	Gain
250.466	4.596	0.02	802.229	43.0	2	-0.76	-0.38	23.2773	70.0	5.0	Outcome1	-0.76	8.3	2.77575	Yes	n/a	-9.056689342403631	n/a	n/a	n/a	ISITrial	Gain
255.08	2.776	0.018	806.843	43.0	2	-0.76	-0.38	23.2773	70.0	5.0	Outcome1	-0.76	8.3	2.77575	Yes	n/a	-9.056689342403631	n/a	n/a	n/a	TrialHappPreview	Gain
257.888	4.012	0.032	809.651	43.0	2	-0.76	-0.38	23.2773	70.0	5.0	Outcome1	-0.76	8.3	2.77575	Yes	n/a	-9.056689342403631	n/a	n/a	272.0	TrialHappiness	Gain
257.889	2.858	n/a	810.145	43.0	2	-0.76	-0.38	23.2773	70.0	5.0	Outcome1	-0.76	8.3	2.77575	Yes	n/a	-9.056689342403631	n/a	n/a	272.0	TrialHappinessSliderResponse	Gain
261.9	3.103	4.012	813.663	43.0	2	-0.76	-0.38	23.2773	70.0	5.0	Outcome1	-0.76	8.3	2.77575	Yes	n/a	-9.056689342403631	n/a	n/a	n/a	ISIRate	Gain
265.026	3.0	0.023	816.789	44.0	2	2.02	1.0	23.5298	70.0	4.2	Outcome2	0.62	2.02	0.0	No	2.0	1.40343915343915	1.478	266.504	n/a	GetAnswer	Gain
266.531	4.0	0.027	818.294	44.0	2	2.02	1.0	23.5298	70.0	4.2	Outcome2	0.62	2.02	0.0	No	n/a	1.40343915343915	n/a	n/a	n/a	ShowChoice	Gain
270.543	1.0	0.012	822.306	44.0	2	2.02	1.0	23.5298	70.0	4.2	Outcome2	0.62	2.02	0.0	No	n/a	1.40343915343915	n/a	n/a	n/a	ShowResult	Gain
271.562	2.42	0.019	823.325	44.0	2	2.02	1.0	23.5298	70.0	4.2	Outcome2	0.62	2.02	0.0	No	n/a	1.40343915343915	n/a	n/a	n/a	ISITrial	Gain
274.003	3.0	0.021	825.766	45.0	2	-11.96	-6.0	22.0348	70.0	0.3	Outcome1	-11.96	-1.3	0.0	No	2.0	-10.6575963718821	2.128	276.131	n/a	GetAnswer	Mixed
276.143	4.0	0.012	827.906	45.0	2	-11.96	-6.0	22.0348	70.0	0.3	Outcome1	-11.96	-1.3	0.0	No	n/a	-10.6575963718821	n/a	n/a	n/a	ShowChoice	Mixed
280.155	1.0	0.012	831.918	45.0	2	-11.96	-6.0	22.0348	70.0	0.3	Outcome1	-11.96	-1.3	0.0	No	n/a	-10.6575963718821	n/a	n/a	n/a	ShowResult	Mixed
281.174	3.144	0.019	832.937	45.0	2	-11.96	-6.0	22.0348	70.0	0.3	Outcome1	-11.96	-1.3	0.0	No	n/a	-10.6575963718821	n/a	n/a	n/a	ISITrial	Mixed
284.334	3.0	0.016	836.097	46.0	2	-0.79	-0.4	21.936	70.0	4.2	Outcome1	-0.79	10.1	3.84125	Yes	2.0	-10.8866213151927	1.807	286.141	n/a	GetAnswer	Gain
286.156	4.0	0.015	837.919	46.0	2	-0.79	-0.4	21.936	70.0	4.2	Outcome1	-0.79	10.1	3.84125	Yes	n/a	-10.8866213151927	n/a	n/a	n/a	ShowChoice	Gain
290.168	1.0	0.012	841.931	46.0	2	-0.79	-0.4	21.936	70.0	4.2	Outcome1	-0.79	10.1	3.84125	Yes	n/a	-10.8866213151927	n/a	n/a	n/a	ShowResult	Gain
291.188	2.246	0.02	842.951	46.0	2	-0.79	-0.4	21.936	70.0	4.2	Outcome1	-0.79	10.1	3.84125	Yes	n/a	-10.8866213151927	n/a	n/a	n/a	ISITrial	Gain
293.444	3.841	0.01	845.207	46.0	2	-0.79	-0.4	21.936	70.0	4.2	Outcome1	-0.79	10.1	3.84125	Yes	n/a	-10.8866213151927	n/a	n/a	n/a	TrialHappPreview	Gain
297.306	4.012	0.021	849.069	46.0	2	-0.79	-0.4	21.936	70.0	4.2	Outcome1	-0.79	10.1	3.84125	Yes	n/a	-10.8866213151927	n/a	n/a	240.0	TrialHappiness	Gain
297.307	2.464	n/a	849.422	46.0	2	-0.79	-0.4	21.936	70.0	4.2	Outcome1	-0.79	10.1	3.84125	Yes	n/a	-10.8866213151927	n/a	n/a	240.0	TrialHappinessSliderResponse	Gain
301.318	7.365	4.012	853.081	46.0	2	-0.79	-0.4	21.936	70.0	4.2	Outcome1	-0.79	10.1	3.84125	Yes	n/a	-10.8866213151927	n/a	n/a	n/a	ISIRate	Gain
308.707	3.0	0.024	860.47	47.0	2	-4.47	1.0	21.3772	70.0	4.2	Outcome2	6.1	-4.47	0.0	No	2.0	-10.5714285714286	2.467	311.174	n/a	GetAnswer	Gain
311.198	4.0	0.024	862.961	47.0	2	-4.47	1.0	21.3772	70.0	4.2	Outcome2	6.1	-4.47	0.0	No	n/a	-10.5714285714286	n/a	n/a	n/a	ShowChoice	Gain
315.21	1.0	0.012	866.973	47.0	2	-4.47	1.0	21.3772	70.0	4.2	Outcome2	6.1	-4.47	0.0	No	n/a	-10.5714285714286	n/a	n/a	n/a	ShowResult	Gain
316.229	2.0	0.019	867.992	47.0	2	-4.47	1.0	21.3772	70.0	4.2	Outcome2	6.1	-4.47	0.0	No	n/a	-10.5714285714286	n/a	n/a	n/a	ISITrial	Gain
318.252	3.0	0.023	870.015	48.0	2	0.27	0.27	21.411	70.0	2.48	Certain	0.54	11.3	2.83175	Yes	4.0	-10.7641723356009	1.006	319.258	n/a	GetAnswer	Loss
319.272	4.0	0.014	871.035	48.0	2	0.27	0.27	21.411	70.0	2.48	Certain	0.54	11.3	2.83175	Yes	n/a	-10.7641723356009	n/a	n/a	n/a	ShowChoice	Loss
323.3	1.0	0.028	875.063	48.0	2	0.27	0.27	21.411	70.0	2.48	Certain	0.54	11.3	2.83175	Yes	n/a	-10.7641723356009	n/a	n/a	n/a	ShowResult	Loss
324.32	3.692	0.02	876.083	48.0	2	0.27	0.27	21.411	70.0	2.48	Certain	0.54	11.3	2.83175	Yes	n/a	-10.7641723356009	n/a	n/a	n/a	ISITrial	Loss
328.031	2.832	0.019	879.794	48.0	2	0.27	0.27	21.411	70.0	2.48	Certain	0.54	11.3	2.83175	Yes	n/a	-10.7641723356009	n/a	n/a	n/a	TrialHappPreview	Loss
330.89	4.012	0.027	882.653	48.0	2	0.27	0.27	21.411	70.0	2.48	Certain	0.54	11.3	2.83175	Yes	n/a	-10.7641723356009	n/a	n/a	272.0	TrialHappiness	Loss
330.89	0.992	n/a	883.306	48.0	2	0.27	0.27	21.411	70.0	2.48	Certain	0.54	11.3	2.83175	Yes	n/a	-10.7641723356009	n/a	n/a	272.0	TrialHappinessSliderResponse	Loss
334.902	3.327	4.012	886.665	48.0	2	0.27	0.27	21.411	70.0	2.48	Certain	0.54	11.3	2.83175	Yes	n/a	-10.7641723356009	n/a	n/a	n/a	ISIRate	Loss
338.245	3.0	0.016	890.008	49.0	2	0.2	0.1	21.436	70.0	3.16	Outcome1	0.2	11.7	0.0	No	2.0	-11.5011337868481	0.989	339.234	n/a	GetAnswer	Loss
339.248	4.0	0.014	891.011	49.0	2	0.2	0.1	21.436	70.0	3.16	Outcome1	0.2	11.7	0.0	No	n/a	-11.5011337868481	n/a	n/a	n/a	ShowChoice	Loss
343.26	1.0	0.012	895.023	49.0	2	0.2	0.1	21.436	70.0	3.16	Outcome1	0.2	11.7	0.0	No	n/a	-11.5011337868481	n/a	n/a	n/a	ShowResult	Loss
344.28	8.0	0.02	896.043	49.0	2	0.2	0.1	21.436	70.0	3.16	Outcome1	0.2	11.7	0.0	No	n/a	-11.5011337868481	n/a	n/a	n/a	ISITrial	Loss
352.304	3.0	0.024	904.067	50.0	2	-6.0	-6.0	20.686	70.0	1.5	Certain	-11.63	0.1	3.54725	Yes	4.0	-11.7301587301587	1.752	354.056	n/a	GetAnswer	Mixed
354.076	4.0	0.02	905.839	50.0	2	-6.0	-6.0	20.686	70.0	1.5	Certain	-11.63	0.1	3.54725	Yes	n/a	-11.7301587301587	n/a	n/a	n/a	ShowChoice	Mixed
358.088	1.0	0.012	909.851	50.0	2	-6.0	-6.0	20.686	70.0	1.5	Certain	-11.63	0.1	3.54725	Yes	n/a	-11.7301587301587	n/a	n/a	n/a	ShowResult	Mixed
359.107	7.537	0.019	910.87	50.0	2	-6.0	-6.0	20.686	70.0	1.5	Certain	-11.63	0.1	3.54725	Yes	n/a	-11.7301587301587	n/a	n/a	n/a	ISITrial	Mixed
366.663	3.547	0.019	918.426	50.0	2	-6.0	-6.0	20.686	70.0	1.5	Certain	-11.63	0.1	3.54725	Yes	n/a	-11.7301587301587	n/a	n/a	n/a	TrialHappPreview	Mixed
370.241	4.012	0.031	922.004	50.0	2	-6.0	-6.0	20.686	70.0	1.5	Certain	-11.63	0.1	3.54725	Yes	n/a	-11.7301587301587	n/a	n/a	176.0	TrialHappiness	Mixed
370.241	0.839	n/a	922.475	50.0	2	-6.0	-6.0	20.686	70.0	1.5	Certain	-11.63	0.1	3.54725	Yes	n/a	-11.7301587301587	n/a	n/a	176.0	TrialHappinessSliderResponse	Mixed
374.253	6.189	4.012	926.016	50.0	2	-6.0	-6.0	20.686	70.0	1.5	Certain	-11.63	0.1	3.54725	Yes	n/a	-11.7301587301587	n/a	n/a	n/a	ISIRate	Mixed
380.471	3.0	0.029	932.234	51.0	2	-6.0	-6.0	19.936	70.0	0.4	Certain	-1.1	-11.43	0.0	No	4.0	-10.3265306122449	1.344	381.815	n/a	GetAnswer	Mixed
381.825	4.0	0.01	933.588	51.0	2	-6.0	-6.0	19.936	70.0	0.4	Certain	-1.1	-11.43	0.0	No	n/a	-10.3265306122449	n/a	n/a	n/a	ShowChoice	Mixed
385.837	1.0	0.012	937.6	51.0	2	-6.0	-6.0	19.936	70.0	0.4	Certain	-1.1	-11.43	0.0	No	n/a	-10.3265306122449	n/a	n/a	n/a	ShowResult	Mixed
386.857	5.508	0.02	938.62	51.0	2	-6.0	-6.0	19.936	70.0	0.4	Certain	-1.1	-11.43	0.0	No	n/a	-10.3265306122449	n/a	n/a	n/a	ISITrial	Mixed
392.39	3.0	0.025	944.153	52.0	2	-3.0	-3.0	19.561	70.0	1.5	Certain	-8.35	2.1	0.0	No	4.0	-10.4467120181406	1.532	393.922	n/a	GetAnswer	Mixed
393.945	4.0	0.023	945.708	52.0	2	-3.0	-3.0	19.561	70.0	1.5	Certain	-8.35	2.1	0.0	No	n/a	-10.4467120181406	n/a	n/a	n/a	ShowChoice	Mixed
397.957	1.0	0.012	949.72	52.0	2	-3.0	-3.0	19.561	70.0	1.5	Certain	-8.35	2.1	0.0	No	n/a	-10.4467120181406	n/a	n/a	n/a	ShowResult	Mixed
398.977	5.913	0.02	950.74	52.0	2	-3.0	-3.0	19.561	70.0	1.5	Certain	-8.35	2.1	0.0	No	n/a	-10.4467120181406	n/a	n/a	n/a	ISITrial	Mixed
404.911	3.0	0.021	956.674	53.0	2	3.33	1.66	19.9772	70.0	3.6	Outcome1	3.33	13.9	2.99675	Yes	2.0	-10.5668934240363	2.653	407.564	n/a	GetAnswer	Loss
407.586	4.0	0.022	959.349	53.0	2	3.33	1.66	19.9772	70.0	3.6	Outcome1	3.33	13.9	2.99675	Yes	n/a	-10.5668934240363	n/a	n/a	n/a	ShowChoice	Loss
411.598	1.0	0.012	963.361	53.0	2	3.33	1.66	19.9772	70.0	3.6	Outcome1	3.33	13.9	2.99675	Yes	n/a	-10.5668934240363	n/a	n/a	n/a	ShowResult	Loss
412.617	3.66	0.019	964.38	53.0	2	3.33	1.66	19.9772	70.0	3.6	Outcome1	3.33	13.9	2.99675	Yes	n/a	-10.5668934240363	n/a	n/a	n/a	ISITrial	Loss
416.295	2.997	0.018	968.058	53.0	2	3.33	1.66	19.9772	70.0	3.6	Outcome1	3.33	13.9	2.99675	Yes	n/a	-10.5668934240363	n/a	n/a	n/a	TrialHappPreview	Loss
419.321	4.012	0.029	971.084	53.0	2	3.33	1.66	19.9772	70.0	3.6	Outcome1	3.33	13.9	2.99675	Yes	n/a	-10.5668934240363	n/a	n/a	216.0	TrialHappiness	Loss
419.321	0.754	n/a	971.573	53.0	2	3.33	1.66	19.9772	70.0	3.6	Outcome1	3.33	13.9	2.99675	Yes	n/a	-10.5668934240363	n/a	n/a	216.0	TrialHappinessSliderResponse	Loss
423.333	3.987	4.012	975.096	53.0	2	3.33	1.66	19.9772	70.0	3.6	Outcome1	3.33	13.9	2.99675	Yes	n/a	-10.5668934240363	n/a	n/a	n/a	ISIRate	Loss
427.345	3.0	0.025	979.108	54.0	2	1.0	1.0	20.1022	70.0	1.68	Certain	6.5	-4.87	0.0	No	4.0	-11.3673469387755	2.447	429.792	n/a	GetAnswer	Gain
429.802	4.0	0.01	981.565	54.0	2	1.0	1.0	20.1022	70.0	1.68	Certain	6.5	-4.87	0.0	No	n/a	-11.3673469387755	n/a	n/a	n/a	ShowChoice	Gain
433.814	1.0	0.012	985.577	54.0	2	1.0	1.0	20.1022	70.0	1.68	Certain	6.5	-4.87	0.0	No	n/a	-11.3673469387755	n/a	n/a	n/a	ShowResult	Gain
434.834	8.0	0.02	986.597	54.0	2	1.0	1.0	20.1022	70.0	1.68	Certain	6.5	-4.87	0.0	No	n/a	-11.3673469387755	n/a	n/a	n/a	ISITrial	Gain
482.928	0.808	n/a	1035.377	n/a	2	n/a	n/a	n/a	n/a	n/a	n/a	n/a	n/a	n/a	n/a	n/a	n/a	n/a	n/a	192.0	BlockStartHappinessSliderResponse	n/a
-48.478	-0.001	0.024	994.621	n/a	3	n/a	n/a	n/a	n/a	n/a	n/a	n/a	n/a	n/a	n/a	{SPACE}	n/a	36.04	-12.438	n/a	Rest	n/a
-12.42	4.0	0.018	1030.679	n/a	3	n/a	n/a	n/a	n/a	n/a	n/a	n/a	n/a	n/a	n/a	n/a	n/a	n/a	n/a	n/a	BlockHappyPreview	n/a
-8.408	1.494	0.012	1034.691	n/a	3	n/a	n/a	n/a	n/a	n/a	n/a	n/a	n/a	n/a	n/a	n/a	n/a	n/a	n/a	192.0	BlockStartHappiness	n/a
-1.437	-0.001	0.025	1041.662	n/a	3	n/a	n/a	n/a	n/a	n/a	n/a	n/a	n/a	n/a	n/a	5.0	n/a	1.413	-0.024	n/a	ScanWait	n/a
0.0	10.0	0.024	1043.099	n/a	3	n/a	n/a	n/a	n/a	n/a	n/a	n/a	n/a	n/a	n/a	n/a	n/a	n/a	n/a	n/a	GetReady	n/a
10.03	3.0	0.03	1053.129	55.0	3	-4.0	-4.0	19.6022	955.0	0.3	Certain	2.7	-10.26	2.53325	Yes	4.0	12.961494903737302	2.787	12.817	n/a	GetAnswer	Mixed
12.839	4.0	0.022	1055.938	55.0	3	-4.0	-4.0	19.6022	955.0	0.3	Certain	2.7	-10.26	2.53325	Yes	n/a	12.961494903737302	n/a	n/a	n/a	ShowChoice	Mixed
16.867	1.0	0.028	1059.966	55.0	3	-4.0	-4.0	19.6022	955.0	0.3	Certain	2.7	-10.26	2.53325	Yes	n/a	12.961494903737302	n/a	n/a	n/a	ShowResult	Mixed
17.887	7.709	0.02	1060.986	55.0	3	-4.0	-4.0	19.6022	955.0	0.3	Certain	2.7	-10.26	2.53325	Yes	n/a	12.961494903737302	n/a	n/a	n/a	ISITrial	Mixed
25.61	2.533	0.014	1068.709	55.0	3	-4.0	-4.0	19.6022	955.0	0.3	Certain	2.7	-10.26	2.53325	Yes	n/a	12.961494903737302	n/a	n/a	n/a	TrialHappPreview	Mixed
28.168	4.012	0.025	1071.267	55.0	3	-4.0	-4.0	19.6022	955.0	0.3	Certain	2.7	-10.26	2.53325	Yes	n/a	12.961494903737302	n/a	n/a	196.0	TrialHappiness	Mixed
28.168	2.34	n/a	1071.836	55.0	3	-4.0	-4.0	19.6022	955.0	0.3	Certain	2.7	-10.26	2.53325	Yes	n/a	12.961494903737302	n/a	n/a	196.0	TrialHappinessSliderResponse	Mixed
32.18	2.133	4.012	1075.279	55.0	3	-4.0	-4.0	19.6022	955.0	0.3	Certain	2.7	-10.26	2.53325	Yes	n/a	12.961494903737302	n/a	n/a	n/a	ISIRate	Mixed
34.336	3.0	0.023	1077.435	56.0	3	13.7	-0.03	21.3147	955.0	3.16	Outcome2	-0.06	13.7	0.0	No	n/a	13.757644394111	n/a	n/a	n/a	GetAnswer	Loss
37.362	4.0	0.026	1080.461	56.0	3	13.7	-0.03	21.3147	955.0	3.16	Outcome2	-0.06	13.7	0.0	No	n/a	13.757644394111	n/a	n/a	n/a	ShowChoice	Loss
41.391	1.0	0.029	1084.49	56.0	3	13.7	-0.03	21.3147	955.0	3.16	Outcome2	-0.06	13.7	0.0	No	n/a	13.757644394111	n/a	n/a	n/a	ShowResult	Loss
42.41	4.697	0.019	1085.509	56.0	3	13.7	-0.03	21.3147	955.0	3.16	Outcome2	-0.06	13.7	0.0	No	n/a	13.757644394111	n/a	n/a	n/a	ISITrial	Loss
47.124	3.0	0.017	1090.223	57.0	3	0.7	-6.0	21.4022	955.0	0.3	Outcome1	0.7	-13.92	0.0	No	n/a	14.6172140430351	n/a	n/a	n/a	GetAnswer	Mixed
50.15	4.0	0.026	1093.249	57.0	3	0.7	-6.0	21.4022	955.0	0.3	Outcome1	0.7	-13.92	0.0	No	n/a	14.6172140430351	n/a	n/a	n/a	ShowChoice	Mixed
54.162	1.0	0.012	1097.261	57.0	3	0.7	-6.0	21.4022	955.0	0.3	Outcome1	0.7	-13.92	0.0	No	n/a	14.6172140430351	n/a	n/a	n/a	ShowResult	Mixed
55.182	4.291	0.02	1098.281	57.0	3	0.7	-6.0	21.4022	955.0	0.3	Outcome1	0.7	-13.92	0.0	No	n/a	14.6172140430351	n/a	n/a	n/a	ISITrial	Mixed
59.495	3.0	0.022	1102.594	58.0	3	0.0	0.0	21.4022	955.0	2.8	Certain	-7.98	7.5	3.04575	Yes	4.0	15.4767836919592	2.183	61.678	n/a	GetAnswer	Gain
61.701	4.0	0.023	1104.8	58.0	3	0.0	0.0	21.4022	955.0	2.8	Certain	-7.98	7.5	3.04575	Yes	n/a	15.4767836919592	n/a	n/a	n/a	ShowChoice	Gain
65.713	1.0	0.012	1108.812	58.0	3	0.0	0.0	21.4022	955.0	2.8	Certain	-7.98	7.5	3.04575	Yes	n/a	15.4767836919592	n/a	n/a	n/a	ShowResult	Gain
66.733	2.037	0.02	1109.832	58.0	3	0.0	0.0	21.4022	955.0	2.8	Certain	-7.98	7.5	3.04575	Yes	n/a	15.4767836919592	n/a	n/a	n/a	ISITrial	Gain
68.789	3.046	0.019	1111.888	58.0	3	0.0	0.0	21.4022	955.0	2.8	Certain	-7.98	7.5	3.04575	Yes	n/a	15.4767836919592	n/a	n/a	n/a	TrialHappPreview	Gain
71.865	4.012	0.03	1114.964	58.0	3	0.0	0.0	21.4022	955.0	2.8	Certain	-7.98	7.5	3.04575	Yes	n/a	15.4767836919592	n/a	n/a	256.0	TrialHappiness	Gain
71.866	0.675	n/a	1115.533	58.0	3	0.0	0.0	21.4022	955.0	2.8	Certain	-7.98	7.5	3.04575	Yes	n/a	15.4767836919592	n/a	n/a	256.0	TrialHappinessSliderResponse	Gain
75.877	4.183	4.012	1118.976	58.0	3	0.0	0.0	21.4022	955.0	2.8	Certain	-7.98	7.5	3.04575	Yes	n/a	15.4767836919592	n/a	n/a	n/a	ISIRate	Gain
80.09	3.0	0.03	1123.189	59.0	3	-6.0	-6.0	20.6522	955.0	0.66	Certain	-14.02	1.3	0.0	No	4.0	15.317100792752	1.728	81.818	n/a	GetAnswer	Mixed
81.845	4.0	0.027	1124.944	59.0	3	-6.0	-6.0	20.6522	955.0	0.66	Certain	-14.02	1.3	0.0	No	n/a	15.317100792752	n/a	n/a	n/a	ShowChoice	Mixed
85.857	1.0	0.012	1128.956	59.0	3	-6.0	-6.0	20.6522	955.0	0.66	Certain	-14.02	1.3	0.0	No	n/a	15.317100792752	n/a	n/a	n/a	ShowResult	Mixed
86.877	5.064	0.02	1129.976	59.0	3	-6.0	-6.0	20.6522	955.0	0.66	Certain	-14.02	1.3	0.0	No	n/a	15.317100792752	n/a	n/a	n/a	ISITrial	Mixed
91.958	3.0	0.017	1135.057	60.0	3	3.7	-4.0	21.1147	955.0	1.0	Outcome1	3.7	-12.41	3.5625	Yes	n/a	16.1087202718007	n/a	n/a	n/a	GetAnswer	Mixed
94.984	4.0	0.026	1138.083	60.0	3	3.7	-4.0	21.1147	955.0	1.0	Outcome1	3.7	-12.41	3.5625	Yes	n/a	16.1087202718007	n/a	n/a	n/a	ShowChoice	Mixed
98.996	1.0	0.012	1142.095	60.0	3	3.7	-4.0	21.1147	955.0	1.0	Outcome1	3.7	-12.41	3.5625	Yes	n/a	16.1087202718007	n/a	n/a	n/a	ShowResult	Mixed
100.016	8.0	0.02	1143.115	60.0	3	3.7	-4.0	21.1147	955.0	1.0	Outcome1	3.7	-12.41	3.5625	Yes	n/a	16.1087202718007	n/a	n/a	n/a	ISITrial	Mixed
108.04	3.562	0.024	1151.139	60.0	3	3.7	-4.0	21.1147	955.0	1.0	Outcome1	3.7	-12.41	3.5625	Yes	n/a	16.1087202718007	n/a	n/a	n/a	TrialHappPreview	Mixed
111.617	4.012	0.015	1154.716	60.0	3	3.7	-4.0	21.1147	955.0	1.0	Outcome1	3.7	-12.41	3.5625	Yes	n/a	16.1087202718007	n/a	n/a	304.0	TrialHappiness	Mixed
111.618	1.634	n/a	1155.28	60.0	3	3.7	-4.0	21.1147	955.0	1.0	Outcome1	3.7	-12.41	3.5625	Yes	n/a	16.1087202718007	n/a	n/a	304.0	TrialHappinessSliderResponse	Mixed
115.629	6.25	4.012	1158.728	60.0	3	3.7	-4.0	21.1147	955.0	1.0	Outcome1	3.7	-12.41	3.5625	Yes	n/a	16.1087202718007	n/a	n/a	n/a	ISIRate	Mixed
121.898	3.0	0.019	1164.997	61.0	3	7.44	3.72	22.0447	955.0	1.68	Outcome2	10.5	7.44	0.0	No	2.0	-3.0606832767081897	1.468	123.366	n/a	GetAnswer	Loss
123.386	4.0	0.02	1166.485	61.0	3	7.44	3.72	22.0447	955.0	1.68	Outcome2	10.5	7.44	0.0	No	n/a	-3.0606832767081897	n/a	n/a	n/a	ShowChoice	Loss
127.398	1.0	0.012	1170.497	61.0	3	7.44	3.72	22.0447	955.0	1.68	Outcome2	10.5	7.44	0.0	No	n/a	-3.0606832767081897	n/a	n/a	n/a	ShowResult	Loss
128.417	4.586	0.019	1171.516	61.0	3	7.44	3.72	22.0447	955.0	1.68	Outcome2	10.5	7.44	0.0	No	n/a	-3.0606832767081897	n/a	n/a	n/a	ISITrial	Loss
133.031	3.0	0.028	1176.13	62.0	3	-9.0	-9.0	20.9197	955.0	0.66	Certain	-17.52	-0.7	3.74875	Yes	4.0	16.822197055492598	2.094	135.125	n/a	GetAnswer	Mixed
135.138	4.0	0.013	1178.237	62.0	3	-9.0	-9.0	20.9197	955.0	0.66	Certain	-17.52	-0.7	3.74875	Yes	n/a	16.822197055492598	n/a	n/a	n/a	ShowChoice	Mixed
139.15	1.0	0.012	1182.249	62.0	3	-9.0	-9.0	20.9197	955.0	0.66	Certain	-17.52	-0.7	3.74875	Yes	n/a	16.822197055492598	n/a	n/a	n/a	ShowResult	Mixed
140.169	5.212	0.019	1183.268	62.0	3	-9.0	-9.0	20.9197	955.0	0.66	Certain	-17.52	-0.7	3.74875	Yes	n/a	16.822197055492598	n/a	n/a	n/a	ISITrial	Mixed
145.402	3.749	0.021	1188.501	62.0	3	-9.0	-9.0	20.9197	955.0	0.66	Certain	-17.52	-0.7	3.74875	Yes	n/a	16.822197055492598	n/a	n/a	n/a	TrialHappPreview	Mixed
149.18	4.012	0.029	1192.279	62.0	3	-9.0	-9.0	20.9197	955.0	0.66	Certain	-17.52	-0.7	3.74875	Yes	n/a	16.822197055492598	n/a	n/a	352.0	TrialHappiness	Mixed
149.18	1.256	n/a	1192.835	62.0	3	-9.0	-9.0	20.9197	955.0	0.66	Certain	-17.52	-0.7	3.74875	Yes	n/a	16.822197055492598	n/a	n/a	352.0	TrialHappinessSliderResponse	Mixed
153.192	6.995	4.012	1196.291	62.0	3	-9.0	-9.0	20.9197	955.0	0.66	Certain	-17.52	-0.7	3.74875	Yes	n/a	16.822197055492598	n/a	n/a	n/a	ISIRate	Mixed
160.212	3.0	0.025	1203.311	63.0	3	-1.0	-1.0	20.7947	955.0	1.82	Certain	6.7	-10.04	0.0	No	4.0	16.7440543601359	2.493	162.705	n/a	GetAnswer	Gain
162.72	4.0	0.015	1205.819	63.0	3	-1.0	-1.0	20.7947	955.0	1.82	Certain	6.7	-10.04	0.0	No	n/a	16.7440543601359	n/a	n/a	n/a	ShowChoice	Gain
166.732	1.0	0.012	1209.831	63.0	3	-1.0	-1.0	20.7947	955.0	1.82	Certain	6.7	-10.04	0.0	No	n/a	16.7440543601359	n/a	n/a	n/a	ShowResult	Gain
167.752	5.595	0.02	1210.851	63.0	3	-1.0	-1.0	20.7947	955.0	1.82	Certain	6.7	-10.04	0.0	No	n/a	16.7440543601359	n/a	n/a	n/a	ISITrial	Gain
173.369	3.0	0.022	1216.468	64.0	3	-1.0	-1.0	20.6697	955.0	3.16	Certain	7.7	-9.73	0.0	No	4.0	17.4269535673839	1.996	175.365	n/a	GetAnswer	Gain
175.391	4.0	0.026	1218.49	64.0	3	-1.0	-1.0	20.6697	955.0	3.16	Certain	7.7	-9.73	0.0	No	n/a	17.4269535673839	n/a	n/a	n/a	ShowChoice	Gain
179.403	1.0	0.012	1222.502	64.0	3	-1.0	-1.0	20.6697	955.0	3.16	Certain	7.7	-9.73	0.0	No	n/a	17.4269535673839	n/a	n/a	n/a	ShowResult	Gain
180.423	5.47	0.02	1223.522	64.0	3	-1.0	-1.0	20.6697	955.0	3.16	Certain	7.7	-9.73	0.0	No	n/a	17.4269535673839	n/a	n/a	n/a	ISITrial	Gain
185.923	3.0	0.03	1229.022	65.0	3	-3.1	-3.1	20.2822	955.0	3.6	Certain	11.9	-6.21	2.99675	Yes	4.0	18.1098527746319	2.241	188.164	n/a	GetAnswer	Loss
188.179	4.0	0.015	1231.278	65.0	3	-3.1	-3.1	20.2822	955.0	3.6	Certain	11.9	-6.21	2.99675	Yes	n/a	18.1098527746319	n/a	n/a	n/a	ShowChoice	Loss
192.191	1.0	0.012	1235.29	65.0	3	-3.1	-3.1	20.2822	955.0	3.6	Certain	11.9	-6.21	2.99675	Yes	n/a	18.1098527746319	n/a	n/a	n/a	ShowResult	Loss
193.211	3.344	0.02	1236.31	65.0	3	-3.1	-3.1	20.2822	955.0	3.6	Certain	11.9	-6.21	2.99675	Yes	n/a	18.1098527746319	n/a	n/a	n/a	ISITrial	Loss
196.571	2.997	0.016	1239.67	65.0	3	-3.1	-3.1	20.2822	955.0	3.6	Certain	11.9	-6.21	2.99675	Yes	n/a	18.1098527746319	n/a	n/a	n/a	TrialHappPreview	Loss
199.597	4.012	0.029	1242.696	65.0	3	-3.1	-3.1	20.2822	955.0	3.6	Certain	11.9	-6.21	2.99675	Yes	n/a	18.1098527746319	n/a	n/a	264.0	TrialHappiness	Loss
199.598	2.612	n/a	1243.102	65.0	3	-3.1	-3.1	20.2822	955.0	3.6	Certain	11.9	-6.21	2.99675	Yes	n/a	18.1098527746319	n/a	n/a	264.0	TrialHappinessSliderResponse	Loss
203.609	3.987	4.012	1246.708	65.0	3	-3.1	-3.1	20.2822	955.0	3.6	Certain	11.9	-6.21	2.99675	Yes	n/a	18.1098527746319	n/a	n/a	n/a	ISIRate	Loss
207.621	3.0	0.025	1250.72	66.0	3	-9.0	-9.0	19.1572	955.0	0.2	Certain	0.5	-19.79	0.0	No	4.0	20.287655719139305	1.846	209.467	n/a	GetAnswer	Mixed
209.493	4.0	0.026	1252.592	66.0	3	-9.0	-9.0	19.1572	955.0	0.2	Certain	0.5	-19.79	0.0	No	n/a	20.287655719139305	n/a	n/a	n/a	ShowChoice	Mixed
213.505	1.0	0.012	1256.604	66.0	3	-9.0	-9.0	19.1572	955.0	0.2	Certain	0.5	-19.79	0.0	No	n/a	20.287655719139305	n/a	n/a	n/a	ShowResult	Mixed
214.525	3.959	0.02	1257.624	66.0	3	-9.0	-9.0	19.1572	955.0	0.2	Certain	0.5	-19.79	0.0	No	n/a	20.287655719139305	n/a	n/a	n/a	ISITrial	Mixed
218.503	3.0	0.019	1261.602	67.0	3	-8.0	-8.0	18.1572	955.0	0.2	Certain	-18.57	2.5	2.9185	Yes	4.0	21.0702151755379	2.182	220.685	n/a	GetAnswer	Mixed
220.71	4.0	0.025	1263.809	67.0	3	-8.0	-8.0	18.1572	955.0	0.2	Certain	-18.57	2.5	2.9185	Yes	n/a	21.0702151755379	n/a	n/a	n/a	ShowChoice	Mixed
224.722	1.0	0.012	1267.821	67.0	3	-8.0	-8.0	18.1572	955.0	0.2	Certain	-18.57	2.5	2.9185	Yes	n/a	21.0702151755379	n/a	n/a	n/a	ShowResult	Mixed
225.742	4.199	0.02	1268.841	67.0	3	-8.0	-8.0	18.1572	955.0	0.2	Certain	-18.57	2.5	2.9185	Yes	n/a	21.0702151755379	n/a	n/a	n/a	ISITrial	Mixed
229.954	2.918	0.013	1273.053	67.0	3	-8.0	-8.0	18.1572	955.0	0.2	Certain	-18.57	2.5	2.9185	Yes	n/a	21.0702151755379	n/a	n/a	n/a	TrialHappPreview	Mixed
232.896	4.012	0.024	1275.995	67.0	3	-8.0	-8.0	18.1572	955.0	0.2	Certain	-18.57	2.5	2.9185	Yes	n/a	21.0702151755379	n/a	n/a	288.0	TrialHappiness	Mixed
232.897	0.611	n/a	1276.478	67.0	3	-8.0	-8.0	18.1572	955.0	0.2	Certain	-18.57	2.5	2.9185	Yes	n/a	21.0702151755379	n/a	n/a	288.0	TrialHappinessSliderResponse	Mixed
236.908	3.674	4.012	1280.007	67.0	3	-8.0	-8.0	18.1572	955.0	0.2	Certain	-18.57	2.5	2.9185	Yes	n/a	21.0702151755379	n/a	n/a	n/a	ISIRate	Mixed
240.603	3.0	0.021	1283.702	68.0	3	1.1	-9.0	18.2947	955.0	0.52	Outcome1	1.1	-20.35	0.0	No	2.0	21.445073612684	2.463	243.066	n/a	GetAnswer	Mixed
243.094	4.0	0.028	1286.193	68.0	3	1.1	-9.0	18.2947	955.0	0.52	Outcome1	1.1	-20.35	0.0	No	n/a	21.445073612684	n/a	n/a	n/a	ShowChoice	Mixed
247.106	1.0	0.012	1290.205	68.0	3	1.1	-9.0	18.2947	955.0	0.52	Outcome1	1.1	-20.35	0.0	No	n/a	21.445073612684	n/a	n/a	n/a	ShowResult	Mixed
248.125	2.185	0.019	1291.224	68.0	3	1.1	-9.0	18.2947	955.0	0.52	Outcome1	1.1	-20.35	0.0	No	n/a	21.445073612684	n/a	n/a	n/a	ISITrial	Mixed
250.332	3.0	0.022	1293.431	69.0	3	-6.0	-6.0	17.5447	955.0	2.0	Certain	-17.3	4.9	0.0	No	4.0	22.200453001132495	1.742	252.074	n/a	GetAnswer	Gain
252.087	4.0	0.013	1295.186	69.0	3	-6.0	-6.0	17.5447	955.0	2.0	Certain	-17.3	4.9	0.0	No	n/a	22.200453001132495	n/a	n/a	n/a	ShowChoice	Gain
256.099	1.0	0.012	1299.198	69.0	3	-6.0	-6.0	17.5447	955.0	2.0	Certain	-17.3	4.9	0.0	No	n/a	22.200453001132495	n/a	n/a	n/a	ShowResult	Gain
257.119	2.0	0.02	1300.218	69.0	3	-6.0	-6.0	17.5447	955.0	2.0	Certain	-17.3	4.9	0.0	No	n/a	22.200453001132495	n/a	n/a	n/a	ISITrial	Gain
259.142	3.0	0.023	1302.241	70.0	3	1.42	0.71	17.7222	955.0	2.22	Outcome1	1.42	5.1	3.65125	Yes	2.0	-3.67553793884485	1.697	260.839	n/a	GetAnswer	Gain
260.863	4.0	0.024	1303.962	70.0	3	1.42	0.71	17.7222	955.0	2.22	Outcome1	1.42	5.1	3.65125	Yes	n/a	-3.67553793884485	n/a	n/a	n/a	ShowChoice	Gain
264.875	1.0	0.012	1307.974	70.0	3	1.42	0.71	17.7222	955.0	2.22	Outcome1	1.42	5.1	3.65125	Yes	n/a	-3.67553793884485	n/a	n/a	n/a	ShowResult	Gain
265.895	2.623	0.02	1308.994	70.0	3	1.42	0.71	17.7222	955.0	2.22	Outcome1	1.42	5.1	3.65125	Yes	n/a	-3.67553793884485	n/a	n/a	n/a	ISITrial	Gain
268.536	3.651	0.018	1311.635	70.0	3	1.42	0.71	17.7222	955.0	2.22	Outcome1	1.42	5.1	3.65125	Yes	n/a	-3.67553793884485	n/a	n/a	n/a	TrialHappPreview	Gain
272.214	4.012	0.027	1315.313	70.0	3	1.42	0.71	17.7222	955.0	2.22	Outcome1	1.42	5.1	3.65125	Yes	4{-4}4{-4}	-3.67553793884485	2.763	274.977	172.0	TrialHappiness	Gain
272.215	2.327	n/a	1315.75	70.0	3	1.42	0.71	17.7222	955.0	2.22	Outcome1	1.42	5.1	3.65125	Yes	n/a	-3.67553793884485	n/a	n/a	172.0	TrialHappinessSliderResponse	Gain
276.226	6.605	4.012	1319.325	70.0	3	1.42	0.71	17.7222	955.0	2.22	Outcome1	1.42	5.1	3.65125	Yes	n/a	-3.67553793884485	n/a	n/a	n/a	ISIRate	Gain
282.863	3.0	0.032	1325.962	71.0	3	-1.0	-1.0	17.5972	955.0	2.8	Certain	11.5	-14.18	0.0	No	4.0	25.6817667044168	2.127	284.99	n/a	GetAnswer	Loss
285.002	4.0	0.012	1328.101	71.0	3	-1.0	-1.0	17.5972	955.0	2.8	Certain	11.5	-14.18	0.0	No	n/a	25.6817667044168	n/a	n/a	n/a	ShowChoice	Loss
289.014	1.0	0.012	1332.113	71.0	3	-1.0	-1.0	17.5972	955.0	2.8	Certain	11.5	-14.18	0.0	No	n/a	25.6817667044168	n/a	n/a	n/a	ShowResult	Loss
290.034	5.499	0.02	1333.133	71.0	3	-1.0	-1.0	17.5972	955.0	2.8	Certain	11.5	-14.18	0.0	No	n/a	25.6817667044168	n/a	n/a	n/a	ISITrial	Loss
295.55	3.0	0.017	1338.649	72.0	3	1.7	-11.0	17.8097	955.0	1.0	Outcome1	1.7	-24.87	3.0805	Yes	2.0	26.568516421291104	2.056	297.606	n/a	GetAnswer	Mixed
297.623	4.0	0.017	1340.722	72.0	3	1.7	-11.0	17.8097	955.0	1.0	Outcome1	1.7	-24.87	3.0805	Yes	n/a	26.568516421291104	n/a	n/a	n/a	ShowChoice	Mixed
301.635	1.0	0.012	1344.734	72.0	3	1.7	-11.0	17.8097	955.0	1.0	Outcome1	1.7	-24.87	3.0805	Yes	n/a	26.568516421291104	n/a	n/a	n/a	ShowResult	Mixed
302.655	5.672	0.02	1345.754	72.0	3	1.7	-11.0	17.8097	955.0	1.0	Outcome1	1.7	-24.87	3.0805	Yes	n/a	26.568516421291104	n/a	n/a	n/a	ISITrial	Mixed
308.339	3.08	0.012	1351.438	72.0	3	1.7	-11.0	17.8097	955.0	1.0	Outcome1	1.7	-24.87	3.0805	Yes	n/a	26.568516421291104	n/a	n/a	n/a	TrialHappPreview	Mixed
311.448	4.012	0.029	1354.547	72.0	3	1.7	-11.0	17.8097	955.0	1.0	Outcome1	1.7	-24.87	3.0805	Yes	n/a	26.568516421291104	n/a	n/a	224.0	TrialHappiness	Mixed
311.449	1.933	n/a	1354.962	72.0	3	1.7	-11.0	17.8097	955.0	1.0	Outcome1	1.7	-24.87	3.0805	Yes	n/a	26.568516421291104	n/a	n/a	224.0	TrialHappinessSliderResponse	Mixed
315.46	4.322	4.012	1358.559	72.0	3	1.7	-11.0	17.8097	955.0	1.0	Outcome1	1.7	-24.87	3.0805	Yes	n/a	26.568516421291104	n/a	n/a	n/a	ISIRate	Mixed
319.806	3.0	0.024	1362.905	73.0	3	0.0	0.0	17.8097	955.0	2.0	Certain	12.9	-13.67	0.0	No	4.0	26.5719139297848	1.862	321.668	n/a	GetAnswer	Loss
321.679	4.0	0.011	1364.778	73.0	3	0.0	0.0	17.8097	955.0	2.0	Certain	12.9	-13.67	0.0	No	n/a	26.5719139297848	n/a	n/a	n/a	ShowChoice	Loss
325.691	1.0	0.012	1368.79	73.0	3	0.0	0.0	17.8097	955.0	2.0	Certain	12.9	-13.67	0.0	No	n/a	26.5719139297848	n/a	n/a	n/a	ShowResult	Loss
326.71	4.616	0.019	1369.809	73.0	3	0.0	0.0	17.8097	955.0	2.0	Certain	12.9	-13.67	0.0	No	n/a	26.5719139297848	n/a	n/a	n/a	ISITrial	Loss
331.358	3.0	0.032	1374.457	74.0	3	6.9	-7.0	18.6722	955.0	2.0	Outcome1	6.9	-20.5	3.05625	Yes	2.0	27.3997734994337	2.73	334.088	n/a	GetAnswer	Gain
334.116	4.0	0.028	1377.215	74.0	3	6.9	-7.0	18.6722	955.0	2.0	Outcome1	6.9	-20.5	3.05625	Yes	n/a	27.3997734994337	n/a	n/a	n/a	ShowChoice	Gain
338.128	1.0	0.012	1381.227	74.0	3	6.9	-7.0	18.6722	955.0	2.0	Outcome1	6.9	-20.5	3.05625	Yes	n/a	27.3997734994337	n/a	n/a	n/a	ShowResult	Gain
339.147	3.909	0.019	1382.246	74.0	3	6.9	-7.0	18.6722	955.0	2.0	Outcome1	6.9	-20.5	3.05625	Yes	n/a	27.3997734994337	n/a	n/a	n/a	ISITrial	Gain
343.076	3.056	0.02	1386.175	74.0	3	6.9	-7.0	18.6722	955.0	2.0	Outcome1	6.9	-20.5	3.05625	Yes	n/a	27.3997734994337	n/a	n/a	n/a	TrialHappPreview	Gain
346.152	4.012	0.02	1389.251	74.0	3	6.9	-7.0	18.6722	955.0	2.0	Outcome1	6.9	-20.5	3.05625	Yes	4{-4}2{-2}	27.3997734994337	1.996	348.148	296.0	TrialHappiness	Gain
346.152	1.57	n/a	1389.677	74.0	3	6.9	-7.0	18.6722	955.0	2.0	Outcome1	6.9	-20.5	3.05625	Yes	n/a	27.3997734994337	n/a	n/a	296.0	TrialHappinessSliderResponse	Gain
350.164	4.225	4.012	1393.263	74.0	3	6.9	-7.0	18.6722	955.0	2.0	Outcome1	6.9	-20.5	3.05625	Yes	n/a	27.3997734994337	n/a	n/a	n/a	ISIRate	Gain
354.41	3.0	0.021	1397.509	75.0	3	3.3	-10.0	19.0847	955.0	0.66	Outcome1	3.3	-23.7	0.0	No	n/a	27.004530011325	n/a	n/a	n/a	GetAnswer	Mixed
357.436	4.0	0.026	1400.535	75.0	3	3.3	-10.0	19.0847	955.0	0.66	Outcome1	3.3	-23.7	0.0	No	n/a	27.004530011325	n/a	n/a	n/a	ShowChoice	Mixed
361.448	1.0	0.012	1404.547	75.0	3	3.3	-10.0	19.0847	955.0	0.66	Outcome1	3.3	-23.7	0.0	No	n/a	27.004530011325	n/a	n/a	n/a	ShowResult	Mixed
362.467	4.979	0.019	1405.566	75.0	3	3.3	-10.0	19.0847	955.0	0.66	Outcome1	3.3	-23.7	0.0	No	n/a	27.004530011325	n/a	n/a	n/a	ISITrial	Mixed
367.465	3.0	0.019	1410.564	76.0	3	6.3	-7.0	19.8722	955.0	5.0	Outcome1	6.3	-21.45	0.0	No	2.0	27.7508493771234	2.294	369.759	n/a	GetAnswer	Gain
369.772	4.0	0.013	1412.871	76.0	3	6.3	-7.0	19.8722	955.0	5.0	Outcome1	6.3	-21.45	0.0	No	n/a	27.7508493771234	n/a	n/a	n/a	ShowChoice	Gain
373.784	1.0	0.012	1416.883	76.0	3	6.3	-7.0	19.8722	955.0	5.0	Outcome1	6.3	-21.45	0.0	No	n/a	27.7508493771234	n/a	n/a	n/a	ShowResult	Gain
374.804	3.931	0.02	1417.903	76.0	3	6.3	-7.0	19.8722	955.0	5.0	Outcome1	6.3	-21.45	0.0	No	n/a	27.7508493771234	n/a	n/a	n/a	ISITrial	Gain
378.766	3.0	0.031	1421.865	77.0	3	1.9	-12.0	20.1097	955.0	1.2	Outcome2	-26.6	1.9	4.0	Yes	n/a	28.4971687429219	n/a	n/a	n/a	GetAnswer	Mixed
381.792	4.0	0.026	1424.891	77.0	3	1.9	-12.0	20.1097	955.0	1.2	Outcome2	-26.6	1.9	4.0	Yes	n/a	28.4971687429219	n/a	n/a	n/a	ShowChoice	Mixed
385.804	1.0	0.012	1428.903	77.0	3	1.9	-12.0	20.1097	955.0	1.2	Outcome2	-26.6	1.9	4.0	Yes	n/a	28.4971687429219	n/a	n/a	n/a	ShowResult	Mixed
386.823	7.022	0.019	1429.922	77.0	3	1.9	-12.0	20.1097	955.0	1.2	Outcome2	-26.6	1.9	4.0	Yes	n/a	28.4971687429219	n/a	n/a	n/a	ISITrial	Mixed
393.861	4.0	0.016	1436.96	77.0	3	1.9	-12.0	20.1097	955.0	1.2	Outcome2	-26.6	1.9	4.0	Yes	n/a	28.4971687429219	n/a	n/a	n/a	TrialHappPreview	Mixed
397.89	4.012	0.029	1440.989	77.0	3	1.9	-12.0	20.1097	955.0	1.2	Outcome2	-26.6	1.9	4.0	Yes	n/a	28.4971687429219	n/a	n/a	368.0	TrialHappiness	Mixed
397.89	0.438	n/a	1441.543	77.0	3	1.9	-12.0	20.1097	955.0	1.2	Outcome2	-26.6	1.9	4.0	Yes	n/a	28.4971687429219	n/a	n/a	368.0	TrialHappinessSliderResponse	Mixed
401.902	8.0	4.012	1445.001	77.0	3	1.9	-12.0	20.1097	955.0	1.2	Outcome2	-26.6	1.9	4.0	Yes	n/a	28.4971687429219	n/a	n/a	n/a	ISIRate	Mixed
409.926	3.0	0.024	1453.025	78.0	3	5.9	-8.0	20.8472	955.0	3.6	Outcome2	-22.12	5.9	0.0	No	2.0	28.0203850509626	2.815	412.741	n/a	GetAnswer	Gain
412.768	4.0	0.027	1455.867	78.0	3	5.9	-8.0	20.8472	955.0	3.6	Outcome2	-22.12	5.9	0.0	No	n/a	28.0203850509626	n/a	n/a	n/a	ShowChoice	Gain
416.78	1.0	0.012	1459.879	78.0	3	5.9	-8.0	20.8472	955.0	3.6	Outcome2	-22.12	5.9	0.0	No	n/a	28.0203850509626	n/a	n/a	n/a	ShowResult	Gain
417.799	2.078	0.019	1460.898	78.0	3	5.9	-8.0	20.8472	955.0	3.6	Outcome2	-22.12	5.9	0.0	No	n/a	28.0203850509626	n/a	n/a	n/a	ISITrial	Gain
419.906	3.0	0.029	1463.005	79.0	3	-0.7	-15.0	20.7597	955.0	0.66	Outcome2	-29.39	-0.7	2.7295	Yes	n/a	28.6851642129105	n/a	n/a	n/a	GetAnswer	Mixed
422.931	4.0	0.025	1466.03	79.0	3	-0.7	-15.0	20.7597	955.0	0.66	Outcome2	-29.39	-0.7	2.7295	Yes	n/a	28.6851642129105	n/a	n/a	n/a	ShowChoice	Mixed
426.943	1.0	0.012	1470.042	79.0	3	-0.7	-15.0	20.7597	955.0	0.66	Outcome2	-29.39	-0.7	2.7295	Yes	n/a	28.6851642129105	n/a	n/a	n/a	ShowResult	Mixed
427.963	3.829	0.02	1471.062	79.0	3	-0.7	-15.0	20.7597	955.0	0.66	Outcome2	-29.39	-0.7	2.7295	Yes	n/a	28.6851642129105	n/a	n/a	n/a	ISITrial	Mixed
431.808	2.73	0.016	1474.907	79.0	3	-0.7	-15.0	20.7597	955.0	0.66	Outcome2	-29.39	-0.7	2.7295	Yes	n/a	28.6851642129105	n/a	n/a	n/a	TrialHappPreview	Mixed
434.566	4.012	0.028	1477.665	79.0	3	-0.7	-15.0	20.7597	955.0	0.66	Outcome2	-29.39	-0.7	2.7295	Yes	n/a	28.6851642129105	n/a	n/a	440.0	TrialHappiness	Mixed
434.567	0.298	n/a	1478.178	79.0	3	-0.7	-15.0	20.7597	955.0	0.66	Outcome2	-29.39	-0.7	2.7295	Yes	n/a	28.6851642129105	n/a	n/a	440.0	TrialHappinessSliderResponse	Mixed
438.578	2.918	4.012	1481.677	79.0	3	-0.7	-15.0	20.7597	955.0	0.66	Outcome2	-29.39	-0.7	2.7295	Yes	n/a	28.6851642129105	n/a	n/a	n/a	ISIRate	Mixed
441.52	3.0	0.024	1484.619	80.0	3	2.5	-11.0	21.0722	955.0	0.2	Outcome1	2.5	-25.63	0.0	No	2.0	28.1268403171008	2.498	444.018	n/a	GetAnswer	Mixed
444.044	4.0	0.026	1487.143	80.0	3	2.5	-11.0	21.0722	955.0	0.2	Outcome1	2.5	-25.63	0.0	No	n/a	28.1268403171008	n/a	n/a	n/a	ShowChoice	Mixed
448.056	1.0	0.012	1491.155	80.0	3	2.5	-11.0	21.0722	955.0	0.2	Outcome1	2.5	-25.63	0.0	No	n/a	28.1268403171008	n/a	n/a	n/a	ShowResult	Mixed
449.076	3.336	0.02	1492.175	80.0	3	2.5	-11.0	21.0722	955.0	0.2	Outcome1	2.5	-25.63	0.0	No	n/a	28.1268403171008	n/a	n/a	n/a	ISITrial	Mixed
452.436	3.0	0.024	1495.535	81.0	3	3.7	-10.0	21.5347	955.0	1.0	Outcome1	3.7	-25.01	3.92375	Yes	n/a	28.7100792751982	n/a	n/a	n/a	GetAnswer	Mixed
455.462	4.0	0.026	1498.561	81.0	3	3.7	-10.0	21.5347	955.0	1.0	Outcome1	3.7	-25.01	3.92375	Yes	n/a	28.7100792751982	n/a	n/a	n/a	ShowChoice	Mixed
459.474	1.0	0.012	1502.573	81.0	3	3.7	-10.0	21.5347	955.0	1.0	Outcome1	3.7	-25.01	3.92375	Yes	n/a	28.7100792751982	n/a	n/a	n/a	ShowResult	Mixed
460.494	3.919	0.02	1503.593	81.0	3	3.7	-10.0	21.5347	955.0	1.0	Outcome1	3.7	-25.01	3.92375	Yes	n/a	28.7100792751982	n/a	n/a	n/a	ISITrial	Mixed
464.439	3.924	0.026	1507.538	81.0	3	3.7	-10.0	21.5347	955.0	1.0	Outcome1	3.7	-25.01	3.92375	Yes	n/a	28.7100792751982	n/a	n/a	n/a	TrialHappPreview	Mixed
468.384	4.012	0.021	1511.483	81.0	3	3.7	-10.0	21.5347	955.0	1.0	Outcome1	3.7	-25.01	3.92375	Yes	n/a	28.7100792751982	n/a	n/a	544.0	TrialHappiness	Mixed
468.385	0.215	n/a	1512.079	81.0	3	3.7	-10.0	21.5347	955.0	1.0	Outcome1	3.7	-25.01	3.92375	Yes	n/a	28.7100792751982	n/a	n/a	544.0	TrialHappinessSliderResponse	Mixed
472.396	7.695	4.012	1515.495	81.0	3	3.7	-10.0	21.5347	955.0	1.0	Outcome1	3.7	-25.01	3.92375	Yes	n/a	28.7100792751982	n/a	n/a	n/a	ISIRate	Mixed
480.119	3.0	0.028	1523.218	n/a	3	n/a	n/a	n/a	n/a	n/a	n/a	n/a	n/a	n/a	n/a	n/a	n/a	n/a	n/a	n/a	CurrentEarnings	n/a
483.145	-0.001	0.026	1526.244	n/a	3	n/a	n/a	n/a	n/a	n/a	n/a	n/a	n/a	n/a	n/a	{SPACE}	n/a	5.942	489.087	n/a	Goodbye	n/a
