onset	duration	onset_delay	onset_unadjusted	trial_number	block	amount_change	certain_amount	current_amount	mood_target	multiplier	outcome	outcome1_amount	outcome2_amount	question_duration	rating	response	rpe	rt	rt_time	slider_response	trial_phase	trial_type
-58.366	-0.001	0.014	16.031	n/a	0	n/a	n/a	n/a	n/a	n/a	n/a	n/a	n/a	n/a	n/a	{SPACE}	n/a	2.348	-56.018	n/a	Welcome	n/a
-56.001	5.0	0.017	18.396	n/a	0	n/a	n/a	n/a	n/a	n/a	n/a	n/a	n/a	n/a	n/a	n/a	n/a	n/a	n/a	n/a	LifeHappyPreview	n/a
-50.969	3.05	0.032	23.428	n/a	0	n/a	n/a	n/a	n/a	n/a	n/a	n/a	n/a	n/a	n/a	n/a	n/a	n/a	n/a	376.0	LifeHappiness	n/a
-50.969	2.354	n/a	24.124	n/a	0	n/a	n/a	n/a	n/a	n/a	n/a	n/a	n/a	n/a	n/a	n/a	n/a	n/a	n/a	376.0	LifeHappinessSliderResponse	n/a
-26.178	4.0	0.017	48.219	n/a	0	n/a	n/a	n/a	n/a	n/a	n/a	n/a	n/a	n/a	n/a	n/a	n/a	n/a	n/a	n/a	BlockHappyPreview	n/a
-22.167	3.934	0.011	52.23	n/a	0	n/a	n/a	n/a	n/a	n/a	n/a	n/a	n/a	n/a	n/a	n/a	n/a	n/a	n/a	512.0	BlockStartHappiness	n/a
-22.166	0.0	n/a	56.165	n/a	0	n/a	n/a	n/a	n/a	n/a	n/a	n/a	n/a	n/a	n/a	n/a	n/a	n/a	n/a	512.0	BlockStartHappinessSliderResponse	n/a
-0.502	-0.001	0.013	73.895	n/a	0	n/a	n/a	n/a	n/a	n/a	n/a	n/a	n/a	n/a	n/a	5.0	n/a	0.484	-0.018	n/a	ScanWait	n/a
0.0	10.0	0.018	74.397	n/a	1	n/a	n/a	n/a	n/a	n/a	n/a	n/a	n/a	n/a	n/a	n/a	n/a	n/a	n/a	n/a	GetReady	n/a
10.03	3.0	0.03	84.427	1.0	1	-3.1	-2.0	9.6125	955.0	0.3	Outcome2	-1.3	-3.1	0.0	No	2.0	-1.79775386938467	2.434	12.464	n/a	GetAnswer	Mixed
12.487	4.0	0.023	86.884	1.0	1	-3.1	-2.0	9.6125	955.0	0.3	Outcome2	-1.3	-3.1	0.0	No	n/a	-1.79775386938467	n/a	n/a	n/a	ShowChoice	Mixed
16.516	1.0	0.029	90.913	1.0	1	-3.1	-2.0	9.6125	955.0	0.3	Outcome2	-1.3	-3.1	0.0	No	n/a	-1.79775386938467	n/a	n/a	n/a	ShowResult	Mixed
17.535	2.431	0.019	91.932	1.0	1	-3.1	-2.0	9.6125	955.0	0.3	Outcome2	-1.3	-3.1	0.0	No	n/a	-1.79775386938467	n/a	n/a	n/a	ISITrial	Mixed
19.993	3.0	0.027	94.39	2.0	1	13.9	2.94	11.35	955.0	3.6	Outcome2	5.87	13.9	0.0	No	2.0	8.02718006795017	1.15	21.143	n/a	GetAnswer	Loss
21.163	4.0	0.02	95.56	2.0	1	13.9	2.94	11.35	955.0	3.6	Outcome2	5.87	13.9	0.0	No	n/a	8.02718006795017	n/a	n/a	n/a	ShowChoice	Loss
25.192	1.0	0.029	99.589	2.0	1	13.9	2.94	11.35	955.0	3.6	Outcome2	5.87	13.9	0.0	No	n/a	8.02718006795017	n/a	n/a	n/a	ShowResult	Loss
26.211	4.568	0.019	100.608	2.0	1	13.9	2.94	11.35	955.0	3.6	Outcome2	5.87	13.9	0.0	No	n/a	8.02718006795017	n/a	n/a	n/a	ISITrial	Loss
30.808	3.0	0.029	105.205	3.0	1	9.9	0.68	12.5875	955.0	3.6	Outcome2	1.37	9.9	2.868	Yes	2.0	8.52887882219705	1.193	32.001	n/a	GetAnswer	Gain
32.029	4.0	0.028	106.426	3.0	1	9.9	0.68	12.5875	955.0	3.6	Outcome2	1.37	9.9	2.868	Yes	n/a	8.52887882219705	n/a	n/a	n/a	ShowChoice	Gain
36.041	1.0	0.012	110.438	3.0	1	9.9	0.68	12.5875	955.0	3.6	Outcome2	1.37	9.9	2.868	Yes	n/a	8.52887882219705	n/a	n/a	n/a	ShowResult	Gain
37.06	3.243	0.019	111.457	3.0	1	9.9	0.68	12.5875	955.0	3.6	Outcome2	1.37	9.9	2.868	Yes	n/a	8.52887882219705	n/a	n/a	n/a	ISITrial	Gain
40.32	2.868	0.017	114.717	3.0	1	9.9	0.68	12.5875	955.0	3.6	Outcome2	1.37	9.9	2.868	Yes	n/a	8.52887882219705	n/a	n/a	n/a	TrialHappPreview	Gain
43.212	4.012	0.024	117.609	3.0	1	9.9	0.68	12.5875	955.0	3.6	Outcome2	1.37	9.9	2.868	Yes	2{-2}2{-2}2{-2}2{-2}	8.52887882219705	2.853	46.065	592.0	TrialHappiness	Gain
43.213	2.437	n/a	118.026	3.0	1	9.9	0.68	12.5875	955.0	3.6	Outcome2	1.37	9.9	2.868	Yes	n/a	8.52887882219705	n/a	n/a	592.0	TrialHappinessSliderResponse	Gain
47.224	3.472	4.012	121.621	3.0	1	9.9	0.68	12.5875	955.0	3.6	Outcome2	1.37	9.9	2.868	Yes	n/a	8.52887882219705	n/a	n/a	n/a	ISIRate	Gain
50.718	3.0	0.022	125.115	4.0	1	-4.0	-4.0	12.0875	955.0	0.82	Certain	-8.17	-0.5	0.0	No	4.0	7.67157417893545	1.977	52.695	n/a	GetAnswer	Mixed
52.724	4.0	0.029	127.121	4.0	1	-4.0	-4.0	12.0875	955.0	0.82	Certain	-8.17	-0.5	0.0	No	n/a	7.67157417893545	n/a	n/a	n/a	ShowChoice	Mixed
56.753	1.0	0.029	131.15	4.0	1	-4.0	-4.0	12.0875	955.0	0.82	Certain	-8.17	-0.5	0.0	No	n/a	7.67157417893545	n/a	n/a	n/a	ShowResult	Mixed
57.772	2.011	0.019	132.169	4.0	1	-4.0	-4.0	12.0875	955.0	0.82	Certain	-8.17	-0.5	0.0	No	n/a	7.67157417893545	n/a	n/a	n/a	ISITrial	Mixed
59.812	3.0	0.029	134.209	5.0	1	-1.0	-1.0	11.9625	955.0	0.2	Certain	2.5	-5.58	2.5825	Yes	4.0	8.08267270668177	2.214	62.026	n/a	GetAnswer	Mixed
62.052	4.0	0.026	136.449	5.0	1	-1.0	-1.0	11.9625	955.0	0.2	Certain	2.5	-5.58	2.5825	Yes	n/a	8.08267270668177	n/a	n/a	n/a	ShowChoice	Mixed
66.08	1.0	0.028	140.477	5.0	1	-1.0	-1.0	11.9625	955.0	0.2	Certain	2.5	-5.58	2.5825	Yes	n/a	8.08267270668177	n/a	n/a	n/a	ShowResult	Mixed
67.1	5.129	0.02	141.497	5.0	1	-1.0	-1.0	11.9625	955.0	0.2	Certain	2.5	-5.58	2.5825	Yes	n/a	8.08267270668177	n/a	n/a	n/a	ISITrial	Mixed
72.249	2.582	0.02	146.646	5.0	1	-1.0	-1.0	11.9625	955.0	0.2	Certain	2.5	-5.58	2.5825	Yes	n/a	8.08267270668177	n/a	n/a	n/a	TrialHappPreview	Mixed
74.857	4.028	0.026	149.254	5.0	1	-1.0	-1.0	11.9625	955.0	0.2	Certain	2.5	-5.58	2.5825	Yes	n/a	8.08267270668177	n/a	n/a	552.0	TrialHappiness	Mixed
74.857	1.063	n/a	149.783	5.0	1	-1.0	-1.0	11.9625	955.0	0.2	Certain	2.5	-5.58	2.5825	Yes	n/a	8.08267270668177	n/a	n/a	552.0	TrialHappinessSliderResponse	Mixed
78.885	2.33	4.028	153.282	5.0	1	-1.0	-1.0	11.9625	955.0	0.2	Certain	2.5	-5.58	2.5825	Yes	n/a	8.08267270668177	n/a	n/a	n/a	ISIRate	Mixed
81.242	3.0	0.027	155.639	6.0	1	1.87	0.94	12.1963	955.0	1.0	Outcome1	1.87	3.7	0.0	No	2.0	-1.82936957342393	0.835	82.077	n/a	GetAnswer	Mixed
82.095	4.0	0.018	156.492	6.0	1	1.87	0.94	12.1963	955.0	1.0	Outcome1	1.87	3.7	0.0	No	n/a	-1.82936957342393	n/a	n/a	n/a	ShowChoice	Mixed
86.124	1.0	0.029	160.521	6.0	1	1.87	0.94	12.1963	955.0	1.0	Outcome1	1.87	3.7	0.0	No	n/a	-1.82936957342393	n/a	n/a	n/a	ShowResult	Mixed
87.143	6.232	0.019	161.54	6.0	1	1.87	0.94	12.1963	955.0	1.0	Outcome1	1.87	3.7	0.0	No	n/a	-1.82936957342393	n/a	n/a	n/a	ISITrial	Mixed
93.395	3.0	0.02	167.792	7.0	1	0.0	0.0	12.1963	955.0	0.52	Certain	1.1	-0.77	0.0	No	4.0	-1.86740279350698	1.841	95.236	n/a	GetAnswer	Mixed
95.251	4.0	0.015	169.648	7.0	1	0.0	0.0	12.1963	955.0	0.52	Certain	1.1	-0.77	0.0	No	n/a	-1.86740279350698	n/a	n/a	n/a	ShowChoice	Mixed
99.263	1.0	0.012	173.66	7.0	1	0.0	0.0	12.1963	955.0	0.52	Certain	1.1	-0.77	0.0	No	n/a	-1.86740279350698	n/a	n/a	n/a	ShowResult	Mixed
100.283	2.305	0.02	174.68	7.0	1	0.0	0.0	12.1963	955.0	0.52	Certain	1.1	-0.77	0.0	No	n/a	-1.86740279350698	n/a	n/a	n/a	ISITrial	Mixed
102.623	3.0	0.035	177.02	8.0	1	0.5	-4.0	12.2588	955.0	0.2	Outcome1	0.5	-9.59	3.1125	Yes	2.0	10.0860702151755	1.99	104.613	n/a	GetAnswer	Mixed
104.629	4.0	0.016	179.026	8.0	1	0.5	-4.0	12.2588	955.0	0.2	Outcome1	0.5	-9.59	3.1125	Yes	n/a	10.0860702151755	n/a	n/a	n/a	ShowChoice	Mixed
108.658	1.0	0.029	183.055	8.0	1	0.5	-4.0	12.2588	955.0	0.2	Outcome1	0.5	-9.59	3.1125	Yes	n/a	10.0860702151755	n/a	n/a	n/a	ShowResult	Mixed
109.677	3.506	0.019	184.074	8.0	1	0.5	-4.0	12.2588	955.0	0.2	Outcome1	0.5	-9.59	3.1125	Yes	n/a	10.0860702151755	n/a	n/a	n/a	ISITrial	Mixed
113.204	3.112	0.021	187.601	8.0	1	0.5	-4.0	12.2588	955.0	0.2	Outcome1	0.5	-9.59	3.1125	Yes	n/a	10.0860702151755	n/a	n/a	n/a	TrialHappPreview	Mixed
116.347	4.029	0.031	190.744	8.0	1	0.5	-4.0	12.2588	955.0	0.2	Outcome1	0.5	-9.59	3.1125	Yes	n/a	10.0860702151755	n/a	n/a	472.0	TrialHappiness	Mixed
116.348	0.235	n/a	191.304	8.0	1	0.5	-4.0	12.2588	955.0	0.2	Outcome1	0.5	-9.59	3.1125	Yes	n/a	10.0860702151755	n/a	n/a	472.0	TrialHappinessSliderResponse	Mixed
120.376	4.45	4.029	194.773	8.0	1	0.5	-4.0	12.2588	955.0	0.2	Outcome1	0.5	-9.59	3.1125	Yes	n/a	10.0860702151755	n/a	n/a	n/a	ISIRate	Mixed
124.856	3.0	0.03	199.253	9.0	1	0.0	0.0	12.2588	955.0	3.16	Certain	5.7	-6.2	0.0	No	4.0	11.901472253680598	2.328	127.184	n/a	GetAnswer	Gain
127.213	4.0	0.029	201.61	9.0	1	0.0	0.0	12.2588	955.0	3.16	Certain	5.7	-6.2	0.0	No	n/a	11.901472253680598	n/a	n/a	n/a	ShowChoice	Gain
131.242	1.0	0.029	205.639	9.0	1	0.0	0.0	12.2588	955.0	3.16	Certain	5.7	-6.2	0.0	No	n/a	11.901472253680598	n/a	n/a	n/a	ShowResult	Gain
132.261	2.0	0.019	206.658	9.0	1	0.0	0.0	12.2588	955.0	3.16	Certain	5.7	-6.2	0.0	No	n/a	11.901472253680598	n/a	n/a	n/a	ISITrial	Gain
134.284	3.0	0.023	208.681	10.0	1	2.0	2.0	12.5088	955.0	1.82	Certain	-3.75	8.7	4.0	Yes	4.0	12.4484711211778	1.81	136.094	n/a	GetAnswer	Gain
136.123	4.0	0.029	210.52	10.0	1	2.0	2.0	12.5088	955.0	1.82	Certain	-3.75	8.7	4.0	Yes	n/a	12.4484711211778	n/a	n/a	n/a	ShowChoice	Gain
140.152	1.0	0.029	214.549	10.0	1	2.0	2.0	12.5088	955.0	1.82	Certain	-3.75	8.7	4.0	Yes	n/a	12.4484711211778	n/a	n/a	n/a	ShowResult	Gain
141.171	2.0	0.019	215.568	10.0	1	2.0	2.0	12.5088	955.0	1.82	Certain	-3.75	8.7	4.0	Yes	n/a	12.4484711211778	n/a	n/a	n/a	ISITrial	Gain
143.194	4.0	0.023	217.591	10.0	1	2.0	2.0	12.5088	955.0	1.82	Certain	-3.75	8.7	4.0	Yes	n/a	12.4484711211778	n/a	n/a	n/a	TrialHappPreview	Gain
147.223	4.028	0.029	221.62	10.0	1	2.0	2.0	12.5088	955.0	1.82	Certain	-3.75	8.7	4.0	Yes	n/a	12.4484711211778	n/a	n/a	512.0	TrialHappiness	Gain
147.223	0.0	n/a	221.62	10.0	1	2.0	2.0	12.5088	955.0	1.82	Certain	-3.75	8.7	4.0	Yes	n/a	12.4484711211778	n/a	n/a	512.0	TrialHappinessSliderResponse	Gain
151.251	8.0	4.028	225.648	10.0	1	2.0	2.0	12.5088	955.0	1.82	Certain	-3.75	8.7	4.0	Yes	n/a	12.4484711211778	n/a	n/a	n/a	ISIRate	Gain
159.275	3.0	0.024	233.672	11.0	1	7.3	1.0	13.4213	955.0	2.48	Outcome1	7.3	-5.02	0.0	No	2.0	12.3159682899207	1.545	160.82	n/a	GetAnswer	Gain
160.847	4.0	0.027	235.244	11.0	1	7.3	1.0	13.4213	955.0	2.48	Outcome1	7.3	-5.02	0.0	No	n/a	12.3159682899207	n/a	n/a	n/a	ShowChoice	Gain
164.875	1.0	0.028	239.272	11.0	1	7.3	1.0	13.4213	955.0	2.48	Outcome1	7.3	-5.02	0.0	No	n/a	12.3159682899207	n/a	n/a	n/a	ShowResult	Gain
165.895	3.324	0.02	240.292	11.0	1	7.3	1.0	13.4213	955.0	2.48	Outcome1	7.3	-5.02	0.0	No	n/a	12.3159682899207	n/a	n/a	n/a	ISITrial	Gain
169.238	3.0	0.019	243.635	12.0	1	-3.0	-3.0	13.0463	955.0	0.66	Certain	3.3	-9.52	2.61875	Yes	4.0	12.8176670441676	2.396	171.634	n/a	GetAnswer	Mixed
171.662	4.0	0.028	246.059	12.0	1	-3.0	-3.0	13.0463	955.0	0.66	Certain	3.3	-9.52	2.61875	Yes	n/a	12.8176670441676	n/a	n/a	n/a	ShowChoice	Mixed
175.691	1.0	0.029	250.088	12.0	1	-3.0	-3.0	13.0463	955.0	0.66	Certain	3.3	-9.52	2.61875	Yes	n/a	12.8176670441676	n/a	n/a	n/a	ShowResult	Mixed
176.711	6.642	0.02	251.108	12.0	1	-3.0	-3.0	13.0463	955.0	0.66	Certain	3.3	-9.52	2.61875	Yes	n/a	12.8176670441676	n/a	n/a	n/a	ISITrial	Mixed
183.381	2.619	0.028	257.778	12.0	1	-3.0	-3.0	13.0463	955.0	0.66	Certain	3.3	-9.52	2.61875	Yes	n/a	12.8176670441676	n/a	n/a	n/a	TrialHappPreview	Mixed
186.022	4.029	0.022	260.419	12.0	1	-3.0	-3.0	13.0463	955.0	0.66	Certain	3.3	-9.52	2.61875	Yes	n/a	12.8176670441676	n/a	n/a	488.0	TrialHappiness	Mixed
186.023	0.2	n/a	260.945	12.0	1	-3.0	-3.0	13.0463	955.0	0.66	Certain	3.3	-9.52	2.61875	Yes	n/a	12.8176670441676	n/a	n/a	488.0	TrialHappinessSliderResponse	Mixed
190.051	2.475	4.029	264.448	12.0	1	-3.0	-3.0	13.0463	955.0	0.66	Certain	3.3	-9.52	2.61875	Yes	n/a	12.8176670441676	n/a	n/a	n/a	ISIRate	Mixed
192.558	3.0	0.032	266.955	13.0	1	-8.0	-8.0	12.0463	955.0	0.52	Certain	-0.9	-14.63	0.0	No	4.0	13.727066817667	1.658	194.216	n/a	GetAnswer	Mixed
194.248	4.0	0.031	268.645	13.0	1	-8.0	-8.0	12.0463	955.0	0.52	Certain	-0.9	-14.63	0.0	No	n/a	13.727066817667	n/a	n/a	n/a	ShowChoice	Mixed
198.275	1.0	0.027	272.672	13.0	1	-8.0	-8.0	12.0463	955.0	0.52	Certain	-0.9	-14.63	0.0	No	n/a	13.727066817667	n/a	n/a	n/a	ShowResult	Mixed
199.295	3.48	0.02	273.692	13.0	1	-8.0	-8.0	12.0463	955.0	0.52	Certain	-0.9	-14.63	0.0	No	n/a	13.727066817667	n/a	n/a	n/a	ISITrial	Mixed
202.805	3.0	0.03	277.202	14.0	1	7.7	0.0	13.0088	955.0	3.16	Outcome2	-6.56	7.7	0.0	No	2.0	14.255945639864098	1.662	204.467	n/a	GetAnswer	Gain
204.494	4.0	0.027	278.891	14.0	1	7.7	0.0	13.0088	955.0	3.16	Outcome2	-6.56	7.7	0.0	No	n/a	14.255945639864098	n/a	n/a	n/a	ShowChoice	Gain
208.522	1.0	0.028	282.919	14.0	1	7.7	0.0	13.0088	955.0	3.16	Outcome2	-6.56	7.7	0.0	No	n/a	14.255945639864098	n/a	n/a	n/a	ShowResult	Gain
209.542	5.019	0.02	283.939	14.0	1	7.7	0.0	13.0088	955.0	3.16	Outcome2	-6.56	7.7	0.0	No	n/a	14.255945639864098	n/a	n/a	n/a	ISITrial	Gain
214.591	3.0	0.03	288.988	15.0	1	8.1	0.0	14.0213	955.0	4.2	Outcome1	8.1	-6.68	3.3485	Yes	2.0	14.7848244620612	1.363	215.954	n/a	GetAnswer	Gain
215.978	4.0	0.024	290.375	15.0	1	8.1	0.0	14.0213	955.0	4.2	Outcome1	8.1	-6.68	3.3485	Yes	n/a	14.7848244620612	n/a	n/a	n/a	ShowChoice	Gain
220.007	1.0	0.029	294.404	15.0	1	8.1	0.0	14.0213	955.0	4.2	Outcome1	8.1	-6.68	3.3485	Yes	n/a	14.7848244620612	n/a	n/a	n/a	ShowResult	Gain
221.026	7.614	0.019	295.423	15.0	1	8.1	0.0	14.0213	955.0	4.2	Outcome1	8.1	-6.68	3.3485	Yes	n/a	14.7848244620612	n/a	n/a	n/a	ISITrial	Gain
228.666	3.348	0.026	303.063	15.0	1	8.1	0.0	14.0213	955.0	4.2	Outcome1	8.1	-6.68	3.3485	Yes	n/a	14.7848244620612	n/a	n/a	n/a	TrialHappPreview	Gain
232.043	4.028	0.029	306.44	15.0	1	8.1	0.0	14.0213	955.0	4.2	Outcome1	8.1	-6.68	3.3485	Yes	n/a	14.7848244620612	n/a	n/a	496.0	TrialHappiness	Gain
232.043	0.176	n/a	306.958	15.0	1	8.1	0.0	14.0213	955.0	4.2	Outcome1	8.1	-6.68	3.3485	Yes	n/a	14.7848244620612	n/a	n/a	496.0	TrialHappinessSliderResponse	Gain
236.071	5.394	4.028	310.468	15.0	1	8.1	0.0	14.0213	955.0	4.2	Outcome1	8.1	-6.68	3.3485	Yes	n/a	14.7848244620612	n/a	n/a	n/a	ISIRate	Gain
241.488	3.0	0.023	315.885	16.0	1	-3.0	-3.0	13.6463	955.0	2.0	Certain	4.3	-10.88	0.0	No	4.0	15.177802944507402	1.787	243.275	n/a	GetAnswer	Mixed
243.293	4.0	0.018	317.69	16.0	1	-3.0	-3.0	13.6463	955.0	2.0	Certain	4.3	-10.88	0.0	No	n/a	15.177802944507402	n/a	n/a	n/a	ShowChoice	Mixed
247.322	1.0	0.029	321.719	16.0	1	-3.0	-3.0	13.6463	955.0	2.0	Certain	4.3	-10.88	0.0	No	n/a	15.177802944507402	n/a	n/a	n/a	ShowResult	Mixed
248.341	3.008	0.019	322.738	16.0	1	-3.0	-3.0	13.6463	955.0	2.0	Certain	4.3	-10.88	0.0	No	n/a	15.177802944507402	n/a	n/a	n/a	ISITrial	Mixed
251.384	3.0	0.035	325.781	17.0	1	0.9	-7.0	13.7588	955.0	0.4	Outcome1	0.9	-14.8	3.0415	Yes	2.0	15.6976217440544	1.718	253.102	n/a	GetAnswer	Mixed
253.122	4.0	0.02	327.519	17.0	1	0.9	-7.0	13.7588	955.0	0.4	Outcome1	0.9	-14.8	3.0415	Yes	n/a	15.6976217440544	n/a	n/a	n/a	ShowChoice	Mixed
257.134	1.0	0.012	331.531	17.0	1	0.9	-7.0	13.7588	955.0	0.4	Outcome1	0.9	-14.8	3.0415	Yes	n/a	15.6976217440544	n/a	n/a	n/a	ShowResult	Mixed
258.154	3.566	0.02	332.551	17.0	1	0.9	-7.0	13.7588	955.0	0.4	Outcome1	0.9	-14.8	3.0415	Yes	n/a	15.6976217440544	n/a	n/a	n/a	ISITrial	Mixed
261.748	3.042	0.028	336.145	17.0	1	0.9	-7.0	13.7588	955.0	0.4	Outcome1	0.9	-14.8	3.0415	Yes	n/a	15.6976217440544	n/a	n/a	n/a	TrialHappPreview	Mixed
264.824	4.029	0.034	339.221	17.0	1	0.9	-7.0	13.7588	955.0	0.4	Outcome1	0.9	-14.8	3.0415	Yes	n/a	15.6976217440544	n/a	n/a	456.0	TrialHappiness	Mixed
264.825	0.749	n/a	339.767	17.0	1	0.9	-7.0	13.7588	955.0	0.4	Outcome1	0.9	-14.8	3.0415	Yes	n/a	15.6976217440544	n/a	n/a	456.0	TrialHappinessSliderResponse	Mixed
268.853	4.166	4.029	343.25	17.0	1	0.9	-7.0	13.7588	955.0	0.4	Outcome1	0.9	-14.8	3.0415	Yes	n/a	15.6976217440544	n/a	n/a	n/a	ISIRate	Mixed
273.048	3.0	0.029	347.445	18.0	1	-0.7	-9.0	13.6713	955.0	0.66	Outcome2	-17.6	-0.7	0.0	No	2.0	16.8969422423556	2.669	275.717	n/a	GetAnswer	Mixed
275.74	4.0	0.023	350.137	18.0	1	-0.7	-9.0	13.6713	955.0	0.66	Outcome2	-17.6	-0.7	0.0	No	n/a	16.8969422423556	n/a	n/a	n/a	ShowChoice	Mixed
279.752	1.0	0.012	354.149	18.0	1	-0.7	-9.0	13.6713	955.0	0.66	Outcome2	-17.6	-0.7	0.0	No	n/a	16.8969422423556	n/a	n/a	n/a	ShowResult	Mixed
280.772	6.787	0.02	355.169	18.0	1	-0.7	-9.0	13.6713	955.0	0.66	Outcome2	-17.6	-0.7	0.0	No	n/a	16.8969422423556	n/a	n/a	n/a	ISITrial	Mixed
287.575	3.0	0.016	361.972	19.0	1	13.3	-2.08	15.3338	955.0	2.48	Outcome1	13.3	-4.16	0.0	No	2.0	17.4620611551529	1.122	288.697	n/a	GetAnswer	Loss
288.712	4.0	0.015	363.109	19.0	1	13.3	-2.08	15.3338	955.0	2.48	Outcome1	13.3	-4.16	0.0	No	n/a	17.4620611551529	n/a	n/a	n/a	ShowChoice	Loss
292.724	1.0	0.012	367.121	19.0	1	13.3	-2.08	15.3338	955.0	2.48	Outcome1	13.3	-4.16	0.0	No	n/a	17.4620611551529	n/a	n/a	n/a	ShowResult	Loss
293.744	2.0	0.02	368.141	19.0	1	13.3	-2.08	15.3338	955.0	2.48	Outcome1	13.3	-4.16	0.0	No	n/a	17.4620611551529	n/a	n/a	n/a	ISITrial	Loss
295.766	3.0	0.022	370.163	20.0	1	-0.72	0.0	15.2438	955.0	1.5	Outcome2	2.1	-0.72	2.92125	Yes	2.0	-2.82087580218951	2.083	297.849	n/a	GetAnswer	Mixed
297.873	4.0	0.024	372.27	20.0	1	-0.72	0.0	15.2438	955.0	1.5	Outcome2	2.1	-0.72	2.92125	Yes	n/a	-2.82087580218951	n/a	n/a	n/a	ShowChoice	Mixed
301.885	1.0	0.012	376.282	20.0	1	-0.72	0.0	15.2438	955.0	1.5	Outcome2	2.1	-0.72	2.92125	Yes	n/a	-2.82087580218951	n/a	n/a	n/a	ShowResult	Mixed
302.904	8.0	0.019	377.301	20.0	1	-0.72	0.0	15.2438	955.0	1.5	Outcome2	2.1	-0.72	2.92125	Yes	n/a	-2.82087580218951	n/a	n/a	n/a	ISITrial	Mixed
310.928	2.921	0.024	385.325	20.0	1	-0.72	0.0	15.2438	955.0	1.5	Outcome2	2.1	-0.72	2.92125	Yes	n/a	-2.82087580218951	n/a	n/a	n/a	TrialHappPreview	Mixed
313.87	4.012	0.021	388.267	20.0	1	-0.72	0.0	15.2438	955.0	1.5	Outcome2	2.1	-0.72	2.92125	Yes	n/a	-2.82087580218951	n/a	n/a	532.0	TrialHappiness	Mixed
313.871	0.119	n/a	388.821	20.0	1	-0.72	0.0	15.2438	955.0	1.5	Outcome2	2.1	-0.72	2.92125	Yes	n/a	-2.82087580218951	n/a	n/a	532.0	TrialHappinessSliderResponse	Mixed
317.882	3.685	4.012	392.279	20.0	1	-0.72	0.0	15.2438	955.0	1.5	Outcome2	2.1	-0.72	2.92125	Yes	n/a	-2.82087580218951	n/a	n/a	n/a	ISIRate	Mixed
321.593	3.0	0.026	395.99	21.0	1	9.34	4.67	16.4113	955.0	3.6	Outcome2	11.9	9.34	0.0	No	2.0	-2.5595507738769303	1.46	323.053	n/a	GetAnswer	Loss
323.065	4.0	0.012	397.462	21.0	1	9.34	4.67	16.4113	955.0	3.6	Outcome2	11.9	9.34	0.0	No	n/a	-2.5595507738769303	n/a	n/a	n/a	ShowChoice	Loss
327.077	1.0	0.012	401.474	21.0	1	9.34	4.67	16.4113	955.0	3.6	Outcome2	11.9	9.34	0.0	No	n/a	-2.5595507738769303	n/a	n/a	n/a	ShowResult	Loss
328.096	3.555	0.019	402.493	21.0	1	9.34	4.67	16.4113	955.0	3.6	Outcome2	11.9	9.34	0.0	No	n/a	-2.5595507738769303	n/a	n/a	n/a	ISITrial	Loss
331.674	3.0	0.023	406.071	22.0	1	0.0	0.0	16.4113	955.0	2.8	Certain	9.5	-8.28	3.2195	Yes	4.0	17.7802944507361	1.767	333.441	n/a	GetAnswer	Gain
333.496	4.0	0.055	407.893	22.0	1	0.0	0.0	16.4113	955.0	2.8	Certain	9.5	-8.28	3.2195	Yes	n/a	17.7802944507361	n/a	n/a	n/a	ShowChoice	Gain
337.508	1.0	0.012	411.905	22.0	1	0.0	0.0	16.4113	955.0	2.8	Certain	9.5	-8.28	3.2195	Yes	n/a	17.7802944507361	n/a	n/a	n/a	ShowResult	Gain
338.527	6.793	0.019	412.924	22.0	1	0.0	0.0	16.4113	955.0	2.8	Certain	9.5	-8.28	3.2195	Yes	n/a	17.7802944507361	n/a	n/a	n/a	ISITrial	Gain
345.331	3.22	0.011	419.728	22.0	1	0.0	0.0	16.4113	955.0	2.8	Certain	9.5	-8.28	3.2195	Yes	n/a	17.7802944507361	n/a	n/a	n/a	TrialHappPreview	Gain
348.574	4.012	0.023	422.971	22.0	1	0.0	0.0	16.4113	955.0	2.8	Certain	9.5	-8.28	3.2195	Yes	n/a	17.7802944507361	n/a	n/a	532.0	TrialHappiness	Gain
348.575	0.107	n/a	423.612	22.0	1	0.0	0.0	16.4113	955.0	2.8	Certain	9.5	-8.28	3.2195	Yes	n/a	17.7802944507361	n/a	n/a	532.0	TrialHappinessSliderResponse	Gain
352.586	4.878	4.012	426.983	22.0	1	0.0	0.0	16.4113	955.0	2.8	Certain	9.5	-8.28	3.2195	Yes	n/a	17.7802944507361	n/a	n/a	n/a	ISIRate	Gain
357.484	3.0	0.02	431.881	23.0	1	-1.0	-1.0	16.2863	955.0	3.6	Certain	-10.36	7.9	0.0	No	4.0	18.2593431483579	1.97	359.454	n/a	GetAnswer	Gain
359.473	4.0	0.019	433.87	23.0	1	-1.0	-1.0	16.2863	955.0	3.6	Certain	-10.36	7.9	0.0	No	n/a	18.2593431483579	n/a	n/a	n/a	ShowChoice	Gain
363.485	1.0	0.012	437.882	23.0	1	-1.0	-1.0	16.2863	955.0	3.6	Certain	-10.36	7.9	0.0	No	n/a	18.2593431483579	n/a	n/a	n/a	ShowResult	Gain
364.505	8.0	0.02	438.902	23.0	1	-1.0	-1.0	16.2863	955.0	3.6	Certain	-10.36	7.9	0.0	No	n/a	18.2593431483579	n/a	n/a	n/a	ISITrial	Gain
372.529	3.0	0.024	446.926	24.0	1	12.7	-3.02	17.8738	955.0	1.82	Outcome2	-6.04	12.7	3.255	Yes	2.0	18.738391845979603	1.523	374.052	n/a	GetAnswer	Loss
374.067	4.0	0.015	448.464	24.0	1	12.7	-3.02	17.8738	955.0	1.82	Outcome2	-6.04	12.7	3.255	Yes	n/a	18.738391845979603	n/a	n/a	n/a	ShowChoice	Loss
378.079	1.0	0.012	452.476	24.0	1	12.7	-3.02	17.8738	955.0	1.82	Outcome2	-6.04	12.7	3.255	Yes	n/a	18.738391845979603	n/a	n/a	n/a	ShowResult	Loss
379.099	2.0	0.02	453.496	24.0	1	12.7	-3.02	17.8738	955.0	1.82	Outcome2	-6.04	12.7	3.255	Yes	n/a	18.738391845979603	n/a	n/a	n/a	ISITrial	Loss
381.121	3.255	0.022	455.518	24.0	1	12.7	-3.02	17.8738	955.0	1.82	Outcome2	-6.04	12.7	3.255	Yes	n/a	18.738391845979603	n/a	n/a	n/a	TrialHappPreview	Loss
384.398	4.012	0.022	458.795	24.0	1	12.7	-3.02	17.8738	955.0	1.82	Outcome2	-6.04	12.7	3.255	Yes	n/a	18.738391845979603	n/a	n/a	552.0	TrialHappiness	Loss
384.398	0.592	n/a	460.437	24.0	1	12.7	-3.02	17.8738	955.0	1.82	Outcome2	-6.04	12.7	3.255	Yes	n/a	18.738391845979603	n/a	n/a	552.0	TrialHappinessSliderResponse	Loss
388.41	5.02	4.012	462.807	24.0	1	12.7	-3.02	17.8738	955.0	1.82	Outcome2	-6.04	12.7	3.255	Yes	n/a	18.738391845979603	n/a	n/a	n/a	ISIRate	Loss
393.458	3.0	0.028	467.855	25.0	1	13.5	-2.69	19.5613	955.0	2.8	Outcome1	13.5	-5.38	0.0	No	2.0	18.8776896942242	1.537	394.995	n/a	GetAnswer	Loss
395.013	4.0	0.018	469.41	25.0	1	13.5	-2.69	19.5613	955.0	2.8	Outcome1	13.5	-5.38	0.0	No	n/a	18.8776896942242	n/a	n/a	n/a	ShowChoice	Loss
399.025	1.0	0.012	473.422	25.0	1	13.5	-2.69	19.5613	955.0	2.8	Outcome1	13.5	-5.38	0.0	No	n/a	18.8776896942242	n/a	n/a	n/a	ShowResult	Loss
400.044	3.749	0.019	474.441	25.0	1	13.5	-2.69	19.5613	955.0	2.8	Outcome1	13.5	-5.38	0.0	No	n/a	18.8776896942242	n/a	n/a	n/a	ISITrial	Loss
403.822	3.0	0.029	478.219	26.0	1	1.0	1.0	19.6863	955.0	2.0	Certain	2.3	-0.38	0.0	No	4.0	-2.67610419026048	1.755	405.577	n/a	GetAnswer	Mixed
405.594	4.0	0.017	479.991	26.0	1	1.0	1.0	19.6863	955.0	2.0	Certain	2.3	-0.38	0.0	No	n/a	-2.67610419026048	n/a	n/a	n/a	ShowChoice	Mixed
409.606	1.0	0.012	484.003	26.0	1	1.0	1.0	19.6863	955.0	2.0	Certain	2.3	-0.38	0.0	No	n/a	-2.67610419026048	n/a	n/a	n/a	ShowResult	Mixed
410.626	7.834	0.02	485.023	26.0	1	1.0	1.0	19.6863	955.0	2.0	Certain	2.3	-0.38	0.0	No	n/a	-2.67610419026048	n/a	n/a	n/a	ISITrial	Mixed
418.483	3.0	0.023	492.88	27.0	1	8.5	-1.0	20.7488	955.0	1.68	Outcome1	8.5	-11.29	2.54975	Yes	2.0	19.7904869762174	1.527	420.01	n/a	GetAnswer	Gain
420.037	4.0	0.027	494.434	27.0	1	8.5	-1.0	20.7488	955.0	1.68	Outcome1	8.5	-11.29	2.54975	Yes	n/a	19.7904869762174	n/a	n/a	n/a	ShowChoice	Gain
424.049	1.0	0.012	498.446	27.0	1	8.5	-1.0	20.7488	955.0	1.68	Outcome1	8.5	-11.29	2.54975	Yes	n/a	19.7904869762174	n/a	n/a	n/a	ShowResult	Gain
425.069	4.225	0.02	499.466	27.0	1	8.5	-1.0	20.7488	955.0	1.68	Outcome1	8.5	-11.29	2.54975	Yes	n/a	19.7904869762174	n/a	n/a	n/a	ISITrial	Gain
429.315	2.55	0.021	503.712	27.0	1	8.5	-1.0	20.7488	955.0	1.68	Outcome1	8.5	-11.29	2.54975	Yes	n/a	19.7904869762174	n/a	n/a	n/a	TrialHappPreview	Gain
431.89	4.012	0.025	506.287	27.0	1	8.5	-1.0	20.7488	955.0	1.68	Outcome1	8.5	-11.29	2.54975	Yes	n/a	19.7904869762174	n/a	n/a	560.0	TrialHappiness	Gain
431.89	0.867	n/a	506.695	27.0	1	8.5	-1.0	20.7488	955.0	1.68	Outcome1	8.5	-11.29	2.54975	Yes	n/a	19.7904869762174	n/a	n/a	560.0	TrialHappinessSliderResponse	Gain
435.902	2.199	4.012	510.299	27.0	1	8.5	-1.0	20.7488	955.0	1.68	Outcome1	8.5	-11.29	2.54975	Yes	n/a	19.7904869762174	n/a	n/a	n/a	ISIRate	Gain
491.702	1.183	n/a	567.267	n/a	1	n/a	n/a	n/a	n/a	n/a	n/a	n/a	n/a	n/a	n/a	n/a	n/a	n/a	n/a	548.0	BlockStartHappinessSliderResponse	n/a
-61.5	-0.001	0.024	512.522	n/a	2	n/a	n/a	n/a	n/a	n/a	n/a	n/a	n/a	n/a	n/a	{SPACE}	n/a	49.539	-11.961	n/a	Rest	n/a
-11.935	4.0	0.026	562.087	n/a	2	n/a	n/a	n/a	n/a	n/a	n/a	n/a	n/a	n/a	n/a	n/a	n/a	n/a	n/a	n/a	BlockHappyPreview	n/a
-7.924	2.351	0.011	566.098	n/a	2	n/a	n/a	n/a	n/a	n/a	n/a	n/a	n/a	n/a	n/a	n/a	n/a	n/a	n/a	548.0	BlockStartHappiness	n/a
-1.421	-0.001	0.013	572.601	n/a	2	n/a	n/a	n/a	n/a	n/a	n/a	n/a	n/a	n/a	n/a	5.0	n/a	1.404	-0.017	n/a	ScanWait	n/a
0.0	10.0	0.017	574.022	n/a	2	n/a	n/a	n/a	n/a	n/a	n/a	n/a	n/a	n/a	n/a	n/a	n/a	n/a	n/a	n/a	GetReady	n/a
10.013	3.0	0.013	584.035	28.0	2	-1.03	-0.52	20.62	70.0	2.22	Outcome1	-1.03	7.1	0.0	No	2.0	-8.12925170068027	1.214	11.227	n/a	GetAnswer	Gain
11.25	4.0	0.023	585.272	28.0	2	-1.03	-0.52	20.62	70.0	2.22	Outcome1	-1.03	7.1	0.0	No	n/a	-8.12925170068027	n/a	n/a	n/a	ShowChoice	Gain
15.262	1.0	0.012	589.284	28.0	2	-1.03	-0.52	20.62	70.0	2.22	Outcome1	-1.03	7.1	0.0	No	n/a	-8.12925170068027	n/a	n/a	n/a	ShowResult	Gain
16.282	3.575	0.02	590.304	28.0	2	-1.03	-0.52	20.62	70.0	2.22	Outcome1	-1.03	7.1	0.0	No	n/a	-8.12925170068027	n/a	n/a	n/a	ISITrial	Gain
19.876	3.0	0.019	593.898	29.0	2	0.43	0.22	20.6738	70.0	2.22	Outcome1	0.43	9.1	3.529	Yes	2.0	-8.671201814058959	1.753	21.629	n/a	GetAnswer	Gain
21.648	4.0	0.019	595.67	29.0	2	0.43	0.22	20.6738	70.0	2.22	Outcome1	0.43	9.1	3.529	Yes	n/a	-8.671201814058959	n/a	n/a	n/a	ShowChoice	Gain
25.66	1.0	0.012	599.682	29.0	2	0.43	0.22	20.6738	70.0	2.22	Outcome1	0.43	9.1	3.529	Yes	n/a	-8.671201814058959	n/a	n/a	n/a	ShowResult	Gain
26.68	3.955	0.02	600.702	29.0	2	0.43	0.22	20.6738	70.0	2.22	Outcome1	0.43	9.1	3.529	Yes	n/a	-8.671201814058959	n/a	n/a	n/a	ISITrial	Gain
30.658	3.529	0.023	604.68	29.0	2	0.43	0.22	20.6738	70.0	2.22	Outcome1	0.43	9.1	3.529	Yes	n/a	-8.671201814058959	n/a	n/a	n/a	TrialHappPreview	Gain
34.202	4.029	0.015	608.224	29.0	2	0.43	0.22	20.6738	70.0	2.22	Outcome1	0.43	9.1	3.529	Yes	4{-4}2{-2}2{-2}	-8.671201814058959	2.185	36.387	472.0	TrialHappiness	Gain
34.203	1.87	n/a	608.54	29.0	2	0.43	0.22	20.6738	70.0	2.22	Outcome1	0.43	9.1	3.529	Yes	n/a	-8.671201814058959	n/a	n/a	472.0	TrialHappinessSliderResponse	Gain
38.231	6.116	4.029	612.253	29.0	2	0.43	0.22	20.6738	70.0	2.22	Outcome1	0.43	9.1	3.529	Yes	n/a	-8.671201814058959	n/a	n/a	n/a	ISIRate	Gain
44.366	3.0	0.019	618.388	30.0	2	3.78	1.89	21.1463	70.0	3.16	Outcome1	3.78	11.7	0.0	No	2.0	-7.920634920634919	1.219	45.585	n/a	GetAnswer	Loss
45.603	4.0	0.018	619.625	30.0	2	3.78	1.89	21.1463	70.0	3.16	Outcome1	3.78	11.7	0.0	No	n/a	-7.920634920634919	n/a	n/a	n/a	ShowChoice	Loss
49.615	1.0	0.012	623.637	30.0	2	3.78	1.89	21.1463	70.0	3.16	Outcome1	3.78	11.7	0.0	No	n/a	-7.920634920634919	n/a	n/a	n/a	ShowResult	Loss
50.635	4.453	0.02	624.657	30.0	2	3.78	1.89	21.1463	70.0	3.16	Outcome1	3.78	11.7	0.0	No	n/a	-7.920634920634919	n/a	n/a	n/a	ISITrial	Loss
55.115	3.0	0.027	629.137	31.0	2	2.72	1.36	21.4863	70.0	2.22	Outcome2	11.1	2.72	2.50325	Yes	2.0	-8.37641723356009	1.228	56.343	n/a	GetAnswer	Loss
56.369	4.0	0.026	630.391	31.0	2	2.72	1.36	21.4863	70.0	2.22	Outcome2	11.1	2.72	2.50325	Yes	n/a	-8.37641723356009	n/a	n/a	n/a	ShowChoice	Loss
60.38	1.0	0.011	634.402	31.0	2	2.72	1.36	21.4863	70.0	2.22	Outcome2	11.1	2.72	2.50325	Yes	n/a	-8.37641723356009	n/a	n/a	n/a	ShowResult	Loss
61.4	4.786	0.02	635.422	31.0	2	2.72	1.36	21.4863	70.0	2.22	Outcome2	11.1	2.72	2.50325	Yes	n/a	-8.37641723356009	n/a	n/a	n/a	ISITrial	Loss
66.215	2.503	0.029	640.237	31.0	2	2.72	1.36	21.4863	70.0	2.22	Outcome2	11.1	2.72	2.50325	Yes	n/a	-8.37641723356009	n/a	n/a	n/a	TrialHappPreview	Loss
68.739	4.028	0.021	642.761	31.0	2	2.72	1.36	21.4863	70.0	2.22	Outcome2	11.1	2.72	2.50325	Yes	n/a	-8.37641723356009	n/a	n/a	488.0	TrialHappiness	Loss
68.739	0.192	n/a	643.796	31.0	2	2.72	1.36	21.4863	70.0	2.22	Outcome2	11.1	2.72	2.50325	Yes	n/a	-8.37641723356009	n/a	n/a	488.0	TrialHappinessSliderResponse	Loss
72.767	2.013	4.028	646.789	31.0	2	2.72	1.36	21.4863	70.0	2.22	Outcome2	11.1	2.72	2.50325	Yes	n/a	-8.37641723356009	n/a	n/a	n/a	ISIRate	Loss
74.807	3.0	0.027	648.829	32.0	2	-4.0	-4.0	20.9863	70.0	1.2	Certain	-9.2	-0.1	0.0	No	4.0	-9.10430839002268	2.863	77.67	n/a	GetAnswer	Mixed
77.699	4.0	0.029	651.721	32.0	2	-4.0	-4.0	20.9863	70.0	1.2	Certain	-9.2	-0.1	0.0	No	n/a	-9.10430839002268	n/a	n/a	n/a	ShowChoice	Mixed
81.711	1.0	0.012	655.733	32.0	2	-4.0	-4.0	20.9863	70.0	1.2	Certain	-9.2	-0.1	0.0	No	n/a	-9.10430839002268	n/a	n/a	n/a	ShowResult	Mixed
82.731	2.0	0.02	656.753	32.0	2	-4.0	-4.0	20.9863	70.0	1.2	Certain	-9.2	-0.1	0.0	No	n/a	-9.10430839002268	n/a	n/a	n/a	ISITrial	Mixed
84.753	3.0	0.022	658.775	33.0	2	-6.68	-2.0	20.1513	70.0	0.4	Outcome2	2.9	-6.68	0.0	No	2.0	-9.57823129251701	1.404	86.157	n/a	GetAnswer	Mixed
86.174	4.0	0.017	660.196	33.0	2	-6.68	-2.0	20.1513	70.0	0.4	Outcome2	2.9	-6.68	0.0	No	n/a	-9.57823129251701	n/a	n/a	n/a	ShowChoice	Mixed
90.203	1.0	0.029	664.225	33.0	2	-6.68	-2.0	20.1513	70.0	0.4	Outcome2	2.9	-6.68	0.0	No	n/a	-9.57823129251701	n/a	n/a	n/a	ShowResult	Mixed
91.223	5.099	0.02	665.245	33.0	2	-6.68	-2.0	20.1513	70.0	0.4	Outcome2	2.9	-6.68	0.0	No	n/a	-9.57823129251701	n/a	n/a	n/a	ISITrial	Mixed
96.355	3.0	0.033	670.377	34.0	2	-11.15	-6.0	18.7575	70.0	0.4	Outcome2	-1.1	-11.15	3.2315	Yes	2.0	-10.0521541950113	2.241	98.596	n/a	GetAnswer	Mixed
98.611	4.0	0.015	672.633	34.0	2	-11.15	-6.0	18.7575	70.0	0.4	Outcome2	-1.1	-11.15	3.2315	Yes	n/a	-10.0521541950113	n/a	n/a	n/a	ShowChoice	Mixed
102.623	1.0	0.012	676.645	34.0	2	-11.15	-6.0	18.7575	70.0	0.4	Outcome2	-1.1	-11.15	3.2315	Yes	n/a	-10.0521541950113	n/a	n/a	n/a	ShowResult	Mixed
103.643	4.784	0.02	677.665	34.0	2	-11.15	-6.0	18.7575	70.0	0.4	Outcome2	-1.1	-11.15	3.2315	Yes	n/a	-10.0521541950113	n/a	n/a	n/a	ISITrial	Mixed
108.457	3.232	0.03	682.479	34.0	2	-11.15	-6.0	18.7575	70.0	0.4	Outcome2	-1.1	-11.15	3.2315	Yes	n/a	-10.0521541950113	n/a	n/a	n/a	TrialHappPreview	Mixed
111.717	4.029	0.028	685.739	34.0	2	-11.15	-6.0	18.7575	70.0	0.4	Outcome2	-1.1	-11.15	3.2315	Yes	n/a	-10.0521541950113	n/a	n/a	380.0	TrialHappiness	Mixed
111.718	2.183	n/a	686.006	34.0	2	-11.15	-6.0	18.7575	70.0	0.4	Outcome2	-1.1	-11.15	3.2315	Yes	n/a	-10.0521541950113	n/a	n/a	380.0	TrialHappinessSliderResponse	Mixed
115.746	4.926	4.029	689.768	34.0	2	-11.15	-6.0	18.7575	70.0	0.4	Outcome2	-1.1	-11.15	3.2315	Yes	n/a	-10.0521541950113	n/a	n/a	n/a	ISIRate	Mixed
120.694	3.0	0.022	694.716	35.0	2	0.0	0.0	18.7575	70.0	2.22	Certain	-0.27	1.27	0.0	No	4.0	1.54421768707483	2.11	122.804	n/a	GetAnswer	Gain
122.817	4.0	0.013	696.839	35.0	2	0.0	0.0	18.7575	70.0	2.22	Certain	-0.27	1.27	0.0	No	n/a	1.54421768707483	n/a	n/a	n/a	ShowChoice	Gain
126.846	1.0	0.029	700.868	35.0	2	0.0	0.0	18.7575	70.0	2.22	Certain	-0.27	1.27	0.0	No	n/a	1.54421768707483	n/a	n/a	n/a	ShowResult	Gain
127.865	2.098	0.019	701.887	35.0	2	0.0	0.0	18.7575	70.0	2.22	Certain	-0.27	1.27	0.0	No	n/a	1.54421768707483	n/a	n/a	n/a	ISITrial	Gain
129.988	3.0	0.025	704.01	36.0	2	-0.08	-1.0	18.7475	70.0	1.0	Outcome1	-0.08	-1.65	3.33575	Yes	2.0	1.5735071806500398	2.578	132.566	n/a	GetAnswer	Mixed
132.596	4.0	0.03	706.618	36.0	2	-0.08	-1.0	18.7475	70.0	1.0	Outcome1	-0.08	-1.65	3.33575	Yes	n/a	1.5735071806500398	n/a	n/a	n/a	ShowChoice	Mixed
136.608	1.0	0.012	710.63	36.0	2	-0.08	-1.0	18.7475	70.0	1.0	Outcome1	-0.08	-1.65	3.33575	Yes	n/a	1.5735071806500398	n/a	n/a	n/a	ShowResult	Mixed
137.628	5.156	0.02	711.65	36.0	2	-0.08	-1.0	18.7475	70.0	1.0	Outcome1	-0.08	-1.65	3.33575	Yes	n/a	1.5735071806500398	n/a	n/a	n/a	ISITrial	Mixed
142.81	3.336	0.026	716.832	36.0	2	-0.08	-1.0	18.7475	70.0	1.0	Outcome1	-0.08	-1.65	3.33575	Yes	n/a	1.5735071806500398	n/a	n/a	n/a	TrialHappPreview	Mixed
146.17	4.029	0.024	720.192	36.0	2	-0.08	-1.0	18.7475	70.0	1.0	Outcome1	-0.08	-1.65	3.33575	Yes	4{-4}4{-4}4{-4}4{-4}	1.5735071806500398	1.941	148.111	452.0	TrialHappiness	Mixed
146.171	1.572	n/a	720.562	36.0	2	-0.08	-1.0	18.7475	70.0	1.0	Outcome1	-0.08	-1.65	3.33575	Yes	n/a	1.5735071806500398	n/a	n/a	452.0	TrialHappinessSliderResponse	Mixed
150.199	5.343	4.029	724.221	36.0	2	-0.08	-1.0	18.7475	70.0	1.0	Outcome1	-0.08	-1.65	3.33575	Yes	n/a	1.5735071806500398	n/a	n/a	n/a	ISIRate	Mixed
155.565	3.0	0.023	729.587	37.0	2	-9.32	-4.0	17.5825	70.0	0.66	Outcome1	-9.32	1.3	0.0	No	2.0	-10.6167800453515	2.178	157.743	n/a	GetAnswer	Mixed
157.771	4.0	0.028	731.793	37.0	2	-9.32	-4.0	17.5825	70.0	0.66	Outcome1	-9.32	1.3	0.0	No	n/a	-10.6167800453515	n/a	n/a	n/a	ShowChoice	Mixed
161.783	1.0	0.012	735.805	37.0	2	-9.32	-4.0	17.5825	70.0	0.66	Outcome1	-9.32	1.3	0.0	No	n/a	-10.6167800453515	n/a	n/a	n/a	ShowResult	Mixed
162.803	3.598	0.02	736.825	37.0	2	-9.32	-4.0	17.5825	70.0	0.66	Outcome1	-9.32	1.3	0.0	No	n/a	-10.6167800453515	n/a	n/a	n/a	ISITrial	Mixed
166.431	3.0	0.03	740.453	38.0	2	-6.35	-1.0	16.7887	70.0	1.82	Outcome2	4.7	-6.35	0.0	No	2.0	-11.0498866213152	1.543	167.974	n/a	GetAnswer	Gain
168.002	4.0	0.028	742.024	38.0	2	-6.35	-1.0	16.7887	70.0	1.82	Outcome2	4.7	-6.35	0.0	No	n/a	-11.0498866213152	n/a	n/a	n/a	ShowChoice	Gain
172.031	1.0	0.029	746.053	38.0	2	-6.35	-1.0	16.7887	70.0	1.82	Outcome2	4.7	-6.35	0.0	No	n/a	-11.0498866213152	n/a	n/a	n/a	ShowResult	Gain
173.05	4.787	0.019	747.072	38.0	2	-6.35	-1.0	16.7887	70.0	1.82	Outcome2	4.7	-6.35	0.0	No	n/a	-11.0498866213152	n/a	n/a	n/a	ISITrial	Gain
177.865	3.0	0.028	751.887	39.0	2	-5.0	-5.0	16.1637	70.0	1.5	Certain	0.1	-11.38	2.86425	Yes	4.0	-11.4829931972789	1.945	179.81	n/a	GetAnswer	Mixed
179.837	4.0	0.027	753.859	39.0	2	-5.0	-5.0	16.1637	70.0	1.5	Certain	0.1	-11.38	2.86425	Yes	n/a	-11.4829931972789	n/a	n/a	n/a	ShowChoice	Mixed
183.866	1.0	0.029	757.888	39.0	2	-5.0	-5.0	16.1637	70.0	1.5	Certain	0.1	-11.38	2.86425	Yes	n/a	-11.4829931972789	n/a	n/a	n/a	ShowResult	Mixed
184.886	2.348	0.02	758.908	39.0	2	-5.0	-5.0	16.1637	70.0	1.5	Certain	0.1	-11.38	2.86425	Yes	n/a	-11.4829931972789	n/a	n/a	n/a	ISITrial	Mixed
187.259	2.864	0.025	761.281	39.0	2	-5.0	-5.0	16.1637	70.0	1.5	Certain	0.1	-11.38	2.86425	Yes	n/a	-11.4829931972789	n/a	n/a	n/a	TrialHappPreview	Mixed
190.151	4.012	0.028	764.173	39.0	2	-5.0	-5.0	16.1637	70.0	1.5	Certain	0.1	-11.38	2.86425	Yes	4{-4}4{-4}4{-4}2{-2}2{-2}2{-2}	-11.4829931972789	2.735	192.886	312.0	TrialHappiness	Mixed
190.152	2.408	n/a	764.501	39.0	2	-5.0	-5.0	16.1637	70.0	1.5	Certain	0.1	-11.38	2.86425	Yes	n/a	-11.4829931972789	n/a	n/a	312.0	TrialHappinessSliderResponse	Mixed
194.163	3.457	4.012	768.185	39.0	2	-5.0	-5.0	16.1637	70.0	1.5	Certain	0.1	-11.38	2.86425	Yes	n/a	-11.4829931972789	n/a	n/a	n/a	ISIRate	Mixed
197.64	3.0	0.02	771.662	40.0	2	0.78	0.0	16.2612	70.0	0.52	Outcome2	-0.65	0.78	0.0	No	2.0	1.4348072562358305	2.474	200.114	n/a	GetAnswer	Mixed
200.131	4.0	0.017	774.153	40.0	2	0.78	0.0	16.2612	70.0	0.52	Outcome2	-0.65	0.78	0.0	No	n/a	1.4348072562358305	n/a	n/a	n/a	ShowChoice	Mixed
204.143	1.0	0.012	778.165	40.0	2	0.78	0.0	16.2612	70.0	0.52	Outcome2	-0.65	0.78	0.0	No	n/a	1.4348072562358305	n/a	n/a	n/a	ShowResult	Mixed
205.163	3.158	0.02	779.185	40.0	2	0.78	0.0	16.2612	70.0	0.52	Outcome2	-0.65	0.78	0.0	No	n/a	1.4348072562358305	n/a	n/a	n/a	ISITrial	Mixed
208.339	3.0	0.018	782.361	41.0	2	-0.51	-0.26	16.1974	70.0	2.48	Outcome1	-0.51	9.3	4.0	Yes	2.0	-9.80952380952381	1.525	209.864	n/a	GetAnswer	Gain
209.877	4.0	0.013	783.899	41.0	2	-0.51	-0.26	16.1974	70.0	2.48	Outcome1	-0.51	9.3	4.0	Yes	n/a	-9.80952380952381	n/a	n/a	n/a	ShowChoice	Gain
213.889	1.0	0.012	787.911	41.0	2	-0.51	-0.26	16.1974	70.0	2.48	Outcome1	-0.51	9.3	4.0	Yes	n/a	-9.80952380952381	n/a	n/a	n/a	ShowResult	Gain
214.909	4.506	0.02	788.931	41.0	2	-0.51	-0.26	16.1974	70.0	2.48	Outcome1	-0.51	9.3	4.0	Yes	n/a	-9.80952380952381	n/a	n/a	n/a	ISITrial	Gain
219.439	4.0	0.024	793.461	41.0	2	-0.51	-0.26	16.1974	70.0	2.48	Outcome1	-0.51	9.3	4.0	Yes	n/a	-9.80952380952381	n/a	n/a	n/a	TrialHappPreview	Gain
223.468	4.012	0.029	797.49	41.0	2	-0.51	-0.26	16.1974	70.0	2.48	Outcome1	-0.51	9.3	4.0	Yes	n/a	-9.80952380952381	n/a	n/a	408.0	TrialHappiness	Gain
223.468	1.091	n/a	797.794	41.0	2	-0.51	-0.26	16.1974	70.0	2.48	Outcome1	-0.51	9.3	4.0	Yes	n/a	-9.80952380952381	n/a	n/a	408.0	TrialHappinessSliderResponse	Gain
227.48	8.0	4.012	801.502	41.0	2	-0.51	-0.26	16.1974	70.0	2.48	Outcome1	-0.51	9.3	4.0	Yes	n/a	-9.80952380952381	n/a	n/a	n/a	ISIRate	Gain
235.503	3.0	0.023	809.525	42.0	2	-2.02	-1.01	15.9449	70.0	3.16	Outcome2	9.7	-2.02	0.0	No	2.0	-11.7165532879819	1.201	236.704	n/a	GetAnswer	Gain
236.724	4.0	0.02	810.746	42.0	2	-2.02	-1.01	15.9449	70.0	3.16	Outcome2	9.7	-2.02	0.0	No	n/a	-11.7165532879819	n/a	n/a	n/a	ShowChoice	Gain
240.736	1.0	0.012	814.758	42.0	2	-2.02	-1.01	15.9449	70.0	3.16	Outcome2	9.7	-2.02	0.0	No	n/a	-11.7165532879819	n/a	n/a	n/a	ShowResult	Gain
241.755	6.248	0.019	815.777	42.0	2	-2.02	-1.01	15.9449	70.0	3.16	Outcome2	9.7	-2.02	0.0	No	n/a	-11.7165532879819	n/a	n/a	n/a	ISITrial	Gain
248.024	3.0	0.021	822.046	43.0	2	-5.6	0.0	15.2449	70.0	1.68	Outcome2	6.5	-5.6	2.77575	Yes	2.0	-12.0997732426304	1.718	249.742	n/a	GetAnswer	Gain
249.763	4.0	0.021	823.785	43.0	2	-5.6	0.0	15.2449	70.0	1.68	Outcome2	6.5	-5.6	2.77575	Yes	n/a	-12.0997732426304	n/a	n/a	n/a	ShowChoice	Gain
253.775	1.0	0.012	827.797	43.0	2	-5.6	0.0	15.2449	70.0	1.68	Outcome2	6.5	-5.6	2.77575	Yes	n/a	-12.0997732426304	n/a	n/a	n/a	ShowResult	Gain
254.794	4.596	0.019	828.816	43.0	2	-5.6	0.0	15.2449	70.0	1.68	Outcome2	6.5	-5.6	2.77575	Yes	n/a	-12.0997732426304	n/a	n/a	n/a	ISITrial	Gain
259.408	2.776	0.018	833.43	43.0	2	-5.6	0.0	15.2449	70.0	1.68	Outcome2	6.5	-5.6	2.77575	Yes	n/a	-12.0997732426304	n/a	n/a	n/a	TrialHappPreview	Gain
262.2	4.012	0.016	836.222	43.0	2	-5.6	0.0	15.2449	70.0	1.68	Outcome2	6.5	-5.6	2.77575	Yes	4{-4}4{-4}4{-4}2{-2}	-12.0997732426304	2.65	264.85	428.0	TrialHappiness	Gain
262.201	1.651	n/a	837.222	43.0	2	-5.6	0.0	15.2449	70.0	1.68	Outcome2	6.5	-5.6	2.77575	Yes	n/a	-12.0997732426304	n/a	n/a	428.0	TrialHappinessSliderResponse	Gain
266.212	3.103	4.012	840.234	43.0	2	-5.6	0.0	15.2449	70.0	1.68	Outcome2	6.5	-5.6	2.77575	Yes	n/a	-12.0997732426304	n/a	n/a	n/a	ISIRate	Gain
269.338	3.0	0.023	843.36	44.0	2	-11.12	-4.0	13.8549	70.0	1.0	Outcome2	1.7	-11.12	0.0	No	2.0	-12.8231292517007	2.771	272.109	n/a	GetAnswer	Mixed
272.13	4.0	0.021	846.152	44.0	2	-11.12	-4.0	13.8549	70.0	1.0	Outcome2	1.7	-11.12	0.0	No	n/a	-12.8231292517007	n/a	n/a	n/a	ShowChoice	Mixed
276.142	1.0	0.012	850.164	44.0	2	-11.12	-4.0	13.8549	70.0	1.0	Outcome2	1.7	-11.12	0.0	No	n/a	-12.8231292517007	n/a	n/a	n/a	ShowResult	Mixed
277.161	2.42	0.019	851.183	44.0	2	-11.12	-4.0	13.8549	70.0	1.0	Outcome2	1.7	-11.12	0.0	No	n/a	-12.8231292517007	n/a	n/a	n/a	ISITrial	Mixed
279.602	3.0	0.021	853.624	45.0	2	-2.73	-1.36	13.5137	70.0	1.68	Outcome1	-2.73	10.5	0.0	No	2.0	-13.2290249433107	1.084	280.686	n/a	GetAnswer	Loss
280.705	4.0	0.019	854.727	45.0	2	-2.73	-1.36	13.5137	70.0	1.68	Outcome1	-2.73	10.5	0.0	No	n/a	-13.2290249433107	n/a	n/a	n/a	ShowChoice	Loss
284.717	1.0	0.012	858.739	45.0	2	-2.73	-1.36	13.5137	70.0	1.68	Outcome1	-2.73	10.5	0.0	No	n/a	-13.2290249433107	n/a	n/a	n/a	ShowResult	Loss
285.737	3.144	0.02	859.759	45.0	2	-2.73	-1.36	13.5137	70.0	1.68	Outcome1	-2.73	10.5	0.0	No	n/a	-13.2290249433107	n/a	n/a	n/a	ISITrial	Loss
288.913	3.0	0.032	862.935	46.0	2	-4.73	2.0	12.9224	70.0	2.0	Outcome1	-4.73	8.9	3.84125	Yes	2.0	-13.6349206349206	1.313	290.226	n/a	GetAnswer	Gain
290.25	4.0	0.023	864.272	46.0	2	-4.73	2.0	12.9224	70.0	2.0	Outcome1	-4.73	8.9	3.84125	Yes	n/a	-13.6349206349206	n/a	n/a	n/a	ShowChoice	Gain
294.262	1.0	0.012	868.284	46.0	2	-4.73	2.0	12.9224	70.0	2.0	Outcome1	-4.73	8.9	3.84125	Yes	n/a	-13.6349206349206	n/a	n/a	n/a	ShowResult	Gain
295.282	2.246	0.02	869.304	46.0	2	-4.73	2.0	12.9224	70.0	2.0	Outcome1	-4.73	8.9	3.84125	Yes	n/a	-13.6349206349206	n/a	n/a	n/a	ISITrial	Gain
297.539	3.841	0.011	871.561	46.0	2	-4.73	2.0	12.9224	70.0	2.0	Outcome1	-4.73	8.9	3.84125	Yes	n/a	-13.6349206349206	n/a	n/a	n/a	TrialHappPreview	Gain
301.4	4.012	0.02	875.422	46.0	2	-4.73	2.0	12.9224	70.0	2.0	Outcome1	-4.73	8.9	3.84125	Yes	n/a	-13.6349206349206	n/a	n/a	288.0	TrialHappiness	Gain
301.401	1.053	n/a	875.748	46.0	2	-4.73	2.0	12.9224	70.0	2.0	Outcome1	-4.73	8.9	3.84125	Yes	n/a	-13.6349206349206	n/a	n/a	288.0	TrialHappinessSliderResponse	Gain
305.412	7.365	4.012	879.434	46.0	2	-4.73	2.0	12.9224	70.0	2.0	Outcome1	-4.73	8.9	3.84125	Yes	n/a	-13.6349206349206	n/a	n/a	n/a	ISIRate	Gain
312.801	3.0	0.024	886.823	47.0	2	-1.36	-0.68	12.7524	70.0	5.0	Outcome2	10.3	-1.36	0.0	No	2.0	-11.659863945578198	1.189	313.99	n/a	GetAnswer	Gain
314.005	4.0	0.015	888.027	47.0	2	-1.36	-0.68	12.7524	70.0	5.0	Outcome2	10.3	-1.36	0.0	No	n/a	-11.659863945578198	n/a	n/a	n/a	ShowChoice	Gain
318.033	1.0	0.028	892.055	47.0	2	-1.36	-0.68	12.7524	70.0	5.0	Outcome2	10.3	-1.36	0.0	No	n/a	-11.659863945578198	n/a	n/a	n/a	ShowResult	Gain
319.053	2.0	0.02	893.075	47.0	2	-1.36	-0.68	12.7524	70.0	5.0	Outcome2	10.3	-1.36	0.0	No	n/a	-11.659863945578198	n/a	n/a	n/a	ISITrial	Gain
321.076	3.0	0.023	895.098	48.0	2	0.0	0.0	12.7524	70.0	0.3	Certain	0.18	-1.39	2.83175	Yes	4.0	1.56897203325775	2.374	323.45	n/a	GetAnswer	Mixed
323.466	4.0	0.016	897.488	48.0	2	0.0	0.0	12.7524	70.0	0.3	Certain	0.18	-1.39	2.83175	Yes	n/a	1.56897203325775	n/a	n/a	n/a	ShowChoice	Mixed
327.478	1.0	0.012	901.5	48.0	2	0.0	0.0	12.7524	70.0	0.3	Certain	0.18	-1.39	2.83175	Yes	n/a	1.56897203325775	n/a	n/a	n/a	ShowResult	Mixed
328.498	3.692	0.02	902.52	48.0	2	0.0	0.0	12.7524	70.0	0.3	Certain	0.18	-1.39	2.83175	Yes	n/a	1.56897203325775	n/a	n/a	n/a	ISITrial	Mixed
332.209	2.832	0.019	906.231	48.0	2	0.0	0.0	12.7524	70.0	0.3	Certain	0.18	-1.39	2.83175	Yes	n/a	1.56897203325775	n/a	n/a	n/a	TrialHappPreview	Mixed
335.068	4.028	0.027	909.09	48.0	2	0.0	0.0	12.7524	70.0	0.3	Certain	0.18	-1.39	2.83175	Yes	n/a	1.56897203325775	n/a	n/a	296.0	TrialHappiness	Mixed
335.068	2.661	n/a	909.33	48.0	2	0.0	0.0	12.7524	70.0	0.3	Certain	0.18	-1.39	2.83175	Yes	n/a	1.56897203325775	n/a	n/a	296.0	TrialHappinessSliderResponse	Mixed
339.096	3.327	4.028	913.118	48.0	2	0.0	0.0	12.7524	70.0	0.3	Certain	0.18	-1.39	2.83175	Yes	n/a	1.56897203325775	n/a	n/a	n/a	ISIRate	Mixed
342.456	3.0	0.033	916.478	49.0	2	-1.0	-1.0	12.6274	70.0	1.68	Certain	-7.79	4.5	0.0	No	4.0	-12.2902494331066	1.755	344.211	n/a	GetAnswer	Gain
344.228	4.0	0.017	918.25	49.0	2	-1.0	-1.0	12.6274	70.0	1.68	Certain	-7.79	4.5	0.0	No	n/a	-12.2902494331066	n/a	n/a	n/a	ShowChoice	Gain
348.257	1.0	0.029	922.279	49.0	2	-1.0	-1.0	12.6274	70.0	1.68	Certain	-7.79	4.5	0.0	No	n/a	-12.2902494331066	n/a	n/a	n/a	ShowResult	Gain
349.277	8.0	0.02	923.299	49.0	2	-1.0	-1.0	12.6274	70.0	1.68	Certain	-7.79	4.5	0.0	No	n/a	-12.2902494331066	n/a	n/a	n/a	ISITrial	Gain
357.301	3.0	0.024	931.323	50.0	2	-8.45	-2.0	11.5711	70.0	1.5	Outcome2	4.1	-8.45	3.54725	Yes	2.0	-12.546485260771	1.926	359.227	n/a	GetAnswer	Mixed
359.256	4.0	0.029	933.278	50.0	2	-8.45	-2.0	11.5711	70.0	1.5	Outcome2	4.1	-8.45	3.54725	Yes	n/a	-12.546485260771	n/a	n/a	n/a	ShowChoice	Mixed
363.285	1.0	0.029	937.307	50.0	2	-8.45	-2.0	11.5711	70.0	1.5	Outcome2	4.1	-8.45	3.54725	Yes	n/a	-12.546485260771	n/a	n/a	n/a	ShowResult	Mixed
364.305	7.537	0.02	938.327	50.0	2	-8.45	-2.0	11.5711	70.0	1.5	Outcome2	4.1	-8.45	3.54725	Yes	n/a	-12.546485260771	n/a	n/a	n/a	ISITrial	Mixed
371.861	3.547	0.019	945.883	50.0	2	-8.45	-2.0	11.5711	70.0	1.5	Outcome2	4.1	-8.45	3.54725	Yes	n/a	-12.546485260771	n/a	n/a	n/a	TrialHappPreview	Mixed
375.438	4.012	0.03	949.46	50.0	2	-8.45	-2.0	11.5711	70.0	1.5	Outcome2	4.1	-8.45	3.54725	Yes	n/a	-12.546485260771	n/a	n/a	168.0	TrialHappiness	Mixed
375.439	1.602	n/a	949.72	50.0	2	-8.45	-2.0	11.5711	70.0	1.5	Outcome2	4.1	-8.45	3.54725	Yes	n/a	-12.546485260771	n/a	n/a	168.0	TrialHappinessSliderResponse	Mixed
379.45	6.189	4.012	953.472	50.0	2	-8.45	-2.0	11.5711	70.0	1.5	Outcome2	4.1	-8.45	3.54725	Yes	n/a	-12.546485260771	n/a	n/a	n/a	ISIRate	Mixed
385.669	3.0	0.03	959.691	51.0	2	3.07	1.54	11.9549	70.0	3.16	Outcome2	13.7	3.07	0.0	No	2.0	-10.6258503401361	1.217	386.886	n/a	GetAnswer	Loss
386.906	4.0	0.02	960.928	51.0	2	3.07	1.54	11.9549	70.0	3.16	Outcome2	13.7	3.07	0.0	No	n/a	-10.6258503401361	n/a	n/a	n/a	ShowChoice	Loss
390.918	1.0	0.012	964.94	51.0	2	3.07	1.54	11.9549	70.0	3.16	Outcome2	13.7	3.07	0.0	No	n/a	-10.6258503401361	n/a	n/a	n/a	ShowResult	Loss
391.937	5.508	0.019	965.959	51.0	2	3.07	1.54	11.9549	70.0	3.16	Outcome2	13.7	3.07	0.0	No	n/a	-10.6258503401361	n/a	n/a	n/a	ISITrial	Loss
397.471	3.0	0.026	971.493	52.0	2	2.16	1.08	12.2249	70.0	2.0	Outcome2	12.9	2.16	0.0	No	2.0	-10.7369614512472	1.141	398.612	n/a	GetAnswer	Loss
398.624	4.0	0.012	972.646	52.0	2	2.16	1.08	12.2249	70.0	2.0	Outcome2	12.9	2.16	0.0	No	n/a	-10.7369614512472	n/a	n/a	n/a	ShowChoice	Loss
402.653	1.0	0.029	976.675	52.0	2	2.16	1.08	12.2249	70.0	2.0	Outcome2	12.9	2.16	0.0	No	n/a	-10.7369614512472	n/a	n/a	n/a	ShowResult	Loss
403.672	5.913	0.019	977.694	52.0	2	2.16	1.08	12.2249	70.0	2.0	Outcome2	12.9	2.16	0.0	No	n/a	-10.7369614512472	n/a	n/a	n/a	ISITrial	Loss
409.607	3.0	0.022	983.629	53.0	2	-3.35	2.0	11.8061	70.0	2.8	Outcome2	7.5	-3.35	2.99675	Yes	2.0	-10.8480725623583	1.913	411.52	n/a	GetAnswer	Gain
411.546	4.0	0.026	985.568	53.0	2	-3.35	2.0	11.8061	70.0	2.8	Outcome2	7.5	-3.35	2.99675	Yes	n/a	-10.8480725623583	n/a	n/a	n/a	ShowChoice	Gain
415.558	1.0	0.012	989.58	53.0	2	-3.35	2.0	11.8061	70.0	2.8	Outcome2	7.5	-3.35	2.99675	Yes	n/a	-10.8480725623583	n/a	n/a	n/a	ShowResult	Gain
416.578	3.66	0.02	990.6	53.0	2	-3.35	2.0	11.8061	70.0	2.8	Outcome2	7.5	-3.35	2.99675	Yes	n/a	-10.8480725623583	n/a	n/a	n/a	ISITrial	Gain
420.255	2.997	0.017	994.277	53.0	2	-3.35	2.0	11.8061	70.0	2.8	Outcome2	7.5	-3.35	2.99675	Yes	n/a	-10.8480725623583	n/a	n/a	n/a	TrialHappPreview	Gain
423.281	4.012	0.029	997.303	53.0	2	-3.35	2.0	11.8061	70.0	2.8	Outcome2	7.5	-3.35	2.99675	Yes	n/a	-10.8480725623583	n/a	n/a	408.0	TrialHappiness	Gain
423.282	2.128	n/a	998.542	53.0	2	-3.35	2.0	11.8061	70.0	2.8	Outcome2	7.5	-3.35	2.99675	Yes	n/a	-10.8480725623583	n/a	n/a	408.0	TrialHappinessSliderResponse	Gain
427.293	3.987	4.012	1001.315	53.0	2	-3.35	2.0	11.8061	70.0	2.8	Outcome2	7.5	-3.35	2.99675	Yes	n/a	-10.8480725623583	n/a	n/a	n/a	ISIRate	Gain
431.305	3.0	0.025	1005.327	54.0	2	1.72	0.0	12.0211	70.0	2.0	Outcome1	1.72	-0.43	0.0	No	2.0	2.14758125472411	1.932	433.237	n/a	GetAnswer	Gain
433.261	4.0	0.024	1007.283	54.0	2	1.72	0.0	12.0211	70.0	2.0	Outcome1	1.72	-0.43	0.0	No	n/a	2.14758125472411	n/a	n/a	n/a	ShowChoice	Gain
437.273	1.0	0.012	1011.295	54.0	2	1.72	0.0	12.0211	70.0	2.0	Outcome1	1.72	-0.43	0.0	No	n/a	2.14758125472411	n/a	n/a	n/a	ShowResult	Gain
438.292	8.0	0.019	1012.314	54.0	2	1.72	0.0	12.0211	70.0	2.0	Outcome1	1.72	-0.43	0.0	No	n/a	2.14758125472411	n/a	n/a	n/a	ISITrial	Gain
485.618	0.0	n/a	1059.64	n/a	2	n/a	n/a	n/a	n/a	n/a	n/a	n/a	n/a	n/a	n/a	n/a	n/a	n/a	n/a	512.0	BlockStartHappinessSliderResponse	n/a
-45.77	-0.001	0.024	1020.338	n/a	3	n/a	n/a	n/a	n/a	n/a	n/a	n/a	n/a	n/a	n/a	{SPACE}	n/a	35.277	-10.493	n/a	Rest	n/a
-10.481	4.0	0.012	1055.627	n/a	3	n/a	n/a	n/a	n/a	n/a	n/a	n/a	n/a	n/a	n/a	n/a	n/a	n/a	n/a	n/a	BlockHappyPreview	n/a
-6.469	0.0	0.012	1059.639	n/a	3	n/a	n/a	n/a	n/a	n/a	n/a	n/a	n/a	n/a	n/a	n/a	n/a	n/a	n/a	512.0	BlockStartHappiness	n/a
-0.501	-0.001	0.024	1065.607	n/a	3	n/a	n/a	n/a	n/a	n/a	n/a	n/a	n/a	n/a	n/a	5.0	n/a	0.486	-0.015	n/a	ScanWait	n/a
0.0	10.0	0.015	1066.108	n/a	3	n/a	n/a	n/a	n/a	n/a	n/a	n/a	n/a	n/a	n/a	n/a	n/a	n/a	n/a	n/a	GetReady	n/a
10.014	3.0	0.014	1076.122	55.0	3	0.0	0.0	12.0211	955.0	2.0	Certain	0.3	-1.5	2.53325	Yes	4.0	-1.79775386938467	1.795	11.809	n/a	GetAnswer	Mixed
11.836	4.0	0.027	1077.944	55.0	3	0.0	0.0	12.0211	955.0	2.0	Certain	0.3	-1.5	2.53325	Yes	n/a	-1.79775386938467	n/a	n/a	n/a	ShowChoice	Mixed
15.848	1.0	0.012	1081.956	55.0	3	0.0	0.0	12.0211	955.0	2.0	Certain	0.3	-1.5	2.53325	Yes	n/a	-1.79775386938467	n/a	n/a	n/a	ShowResult	Mixed
16.867	7.709	0.019	1082.975	55.0	3	0.0	0.0	12.0211	955.0	2.0	Certain	0.3	-1.5	2.53325	Yes	n/a	-1.79775386938467	n/a	n/a	n/a	ISITrial	Mixed
24.591	2.533	0.015	1090.699	55.0	3	0.0	0.0	12.0211	955.0	2.0	Certain	0.3	-1.5	2.53325	Yes	n/a	-1.79775386938467	n/a	n/a	n/a	TrialHappPreview	Mixed
27.148	4.012	0.024	1093.256	55.0	3	0.0	0.0	12.0211	955.0	2.0	Certain	0.3	-1.5	2.53325	Yes	n/a	-1.79775386938467	n/a	n/a	440.0	TrialHappiness	Mixed
27.149	1.848	n/a	1093.589	55.0	3	0.0	0.0	12.0211	955.0	2.0	Certain	0.3	-1.5	2.53325	Yes	n/a	-1.79775386938467	n/a	n/a	440.0	TrialHappinessSliderResponse	Mixed
31.16	2.133	4.012	1097.268	55.0	3	0.0	0.0	12.0211	955.0	2.0	Certain	0.3	-1.5	2.53325	Yes	n/a	-1.79775386938467	n/a	n/a	n/a	ISIRate	Mixed
33.317	3.0	0.024	1099.425	56.0	3	3.5	-1.0	12.4586	955.0	0.82	Outcome1	3.5	-5.75	0.0	No	2.0	9.25028312570782	2.056	35.373	n/a	GetAnswer	Mixed
35.389	4.0	0.016	1101.497	56.0	3	3.5	-1.0	12.4586	955.0	0.82	Outcome1	3.5	-5.75	0.0	No	n/a	9.25028312570782	n/a	n/a	n/a	ShowChoice	Mixed
39.401	1.0	0.012	1105.509	56.0	3	3.5	-1.0	12.4586	955.0	0.82	Outcome1	3.5	-5.75	0.0	No	n/a	9.25028312570782	n/a	n/a	n/a	ShowResult	Mixed
40.421	4.697	0.02	1106.529	56.0	3	3.5	-1.0	12.4586	955.0	0.82	Outcome1	3.5	-5.75	0.0	No	n/a	9.25028312570782	n/a	n/a	n/a	ISITrial	Mixed
45.135	3.0	0.017	1111.243	57.0	3	0.0	0.0	12.4586	955.0	2.0	Certain	-4.93	4.9	0.0	No	4.0	9.83352208380521	2.235	47.37	n/a	GetAnswer	Gain
47.392	4.0	0.022	1113.5	57.0	3	0.0	0.0	12.4586	955.0	2.0	Certain	-4.93	4.9	0.0	No	n/a	9.83352208380521	n/a	n/a	n/a	ShowChoice	Gain
51.404	1.0	0.012	1117.512	57.0	3	0.0	0.0	12.4586	955.0	2.0	Certain	-4.93	4.9	0.0	No	n/a	9.83352208380521	n/a	n/a	n/a	ShowResult	Gain
52.424	4.291	0.02	1118.532	57.0	3	0.0	0.0	12.4586	955.0	2.0	Certain	-4.93	4.9	0.0	No	n/a	9.83352208380521	n/a	n/a	n/a	ISITrial	Gain
56.737	3.0	0.022	1122.845	58.0	3	13.1	1.34	14.0961	955.0	2.22	Outcome2	2.68	13.1	3.04575	Yes	2.0	10.4167610419026	1.539	58.276	n/a	GetAnswer	Loss
58.291	4.0	0.015	1124.399	58.0	3	13.1	1.34	14.0961	955.0	2.22	Outcome2	2.68	13.1	3.04575	Yes	n/a	10.4167610419026	n/a	n/a	n/a	ShowChoice	Loss
62.303	1.0	0.012	1128.411	58.0	3	13.1	1.34	14.0961	955.0	2.22	Outcome2	2.68	13.1	3.04575	Yes	n/a	10.4167610419026	n/a	n/a	n/a	ShowResult	Loss
63.323	2.037	0.02	1129.431	58.0	3	13.1	1.34	14.0961	955.0	2.22	Outcome2	2.68	13.1	3.04575	Yes	n/a	10.4167610419026	n/a	n/a	n/a	ISITrial	Loss
65.379	3.046	0.019	1131.487	58.0	3	13.1	1.34	14.0961	955.0	2.22	Outcome2	2.68	13.1	3.04575	Yes	n/a	10.4167610419026	n/a	n/a	n/a	TrialHappPreview	Loss
68.455	4.012	0.03	1134.563	58.0	3	13.1	1.34	14.0961	955.0	2.22	Outcome2	2.68	13.1	3.04575	Yes	n/a	10.4167610419026	n/a	n/a	472.0	TrialHappiness	Loss
68.455	2.34	n/a	1135.281	58.0	3	13.1	1.34	14.0961	955.0	2.22	Outcome2	2.68	13.1	3.04575	Yes	n/a	10.4167610419026	n/a	n/a	472.0	TrialHappinessSliderResponse	Loss
72.467	4.183	4.012	1138.575	58.0	3	13.1	1.34	14.0961	955.0	2.22	Outcome2	2.68	13.1	3.04575	Yes	n/a	10.4167610419026	n/a	n/a	n/a	ISIRate	Loss
76.679	3.0	0.029	1142.787	59.0	3	3.75	1.88	14.5649	955.0	3.6	Outcome1	3.75	5.9	0.0	No	2.0	-2.14769724424311	1.102	77.781	n/a	GetAnswer	Gain
77.799	4.0	0.018	1143.907	59.0	3	3.75	1.88	14.5649	955.0	3.6	Outcome1	3.75	5.9	0.0	No	n/a	-2.14769724424311	n/a	n/a	n/a	ShowChoice	Gain
81.811	1.0	0.012	1147.919	59.0	3	3.75	1.88	14.5649	955.0	3.6	Outcome1	3.75	5.9	0.0	No	n/a	-2.14769724424311	n/a	n/a	n/a	ShowResult	Gain
82.831	5.064	0.02	1148.939	59.0	3	3.75	1.88	14.5649	955.0	3.6	Outcome1	3.75	5.9	0.0	No	n/a	-2.14769724424311	n/a	n/a	n/a	ISITrial	Gain
87.913	3.0	0.018	1154.021	60.0	3	10.1	-0.45	15.8274	955.0	4.2	Outcome2	-0.9	10.1	3.5625	Yes	2.0	11.0033975084938	1.637	89.55	n/a	GetAnswer	Gain
89.568	4.0	0.018	1155.676	60.0	3	10.1	-0.45	15.8274	955.0	4.2	Outcome2	-0.9	10.1	3.5625	Yes	n/a	11.0033975084938	n/a	n/a	n/a	ShowChoice	Gain
93.58	1.0	0.012	1159.688	60.0	3	10.1	-0.45	15.8274	955.0	4.2	Outcome2	-0.9	10.1	3.5625	Yes	n/a	11.0033975084938	n/a	n/a	n/a	ShowResult	Gain
94.6	8.0	0.02	1160.708	60.0	3	10.1	-0.45	15.8274	955.0	4.2	Outcome2	-0.9	10.1	3.5625	Yes	n/a	11.0033975084938	n/a	n/a	n/a	ISITrial	Gain
102.624	3.562	0.024	1168.732	60.0	3	10.1	-0.45	15.8274	955.0	4.2	Outcome2	-0.9	10.1	3.5625	Yes	n/a	11.0033975084938	n/a	n/a	n/a	TrialHappPreview	Gain
106.201	4.012	0.015	1172.309	60.0	3	10.1	-0.45	15.8274	955.0	4.2	Outcome2	-0.9	10.1	3.5625	Yes	2{-2}	11.0033975084938	0.589	106.79	532.0	TrialHappiness	Gain
106.202	0.14	n/a	1172.759	60.0	3	10.1	-0.45	15.8274	955.0	4.2	Outcome2	-0.9	10.1	3.5625	Yes	n/a	11.0033975084938	n/a	n/a	532.0	TrialHappinessSliderResponse	Gain
110.213	6.25	4.012	1176.321	60.0	3	10.1	-0.45	15.8274	955.0	4.2	Outcome2	-0.9	10.1	3.5625	Yes	n/a	11.0033975084938	n/a	n/a	n/a	ISIRate	Gain
116.482	3.0	0.019	1182.59	61.0	3	8.3	-1.12	16.8649	955.0	5.0	Outcome2	-2.23	8.3	0.0	No	2.0	10.5311438278596	1.414	117.896	n/a	GetAnswer	Gain
117.919	4.0	0.023	1184.027	61.0	3	8.3	-1.12	16.8649	955.0	5.0	Outcome2	-2.23	8.3	0.0	No	n/a	10.5311438278596	n/a	n/a	n/a	ShowChoice	Gain
121.931	1.0	0.012	1188.039	61.0	3	8.3	-1.12	16.8649	955.0	5.0	Outcome2	-2.23	8.3	0.0	No	n/a	10.5311438278596	n/a	n/a	n/a	ShowResult	Gain
122.951	4.586	0.02	1189.059	61.0	3	8.3	-1.12	16.8649	955.0	5.0	Outcome2	-2.23	8.3	0.0	No	n/a	10.5311438278596	n/a	n/a	n/a	ISITrial	Gain
127.565	3.0	0.028	1193.673	62.0	3	2.7	-3.0	17.2024	955.0	0.3	Outcome2	-8.31	2.7	3.74875	Yes	n/a	11.0101925254813	n/a	n/a	n/a	GetAnswer	Mixed
130.59	4.0	0.025	1196.698	62.0	3	2.7	-3.0	17.2024	955.0	0.3	Outcome2	-8.31	2.7	3.74875	Yes	n/a	11.0101925254813	n/a	n/a	n/a	ShowChoice	Mixed
134.602	1.0	0.012	1200.71	62.0	3	2.7	-3.0	17.2024	955.0	0.3	Outcome2	-8.31	2.7	3.74875	Yes	n/a	11.0101925254813	n/a	n/a	n/a	ShowResult	Mixed
135.622	5.212	0.02	1201.73	62.0	3	2.7	-3.0	17.2024	955.0	0.3	Outcome2	-8.31	2.7	3.74875	Yes	n/a	11.0101925254813	n/a	n/a	n/a	ISITrial	Mixed
140.854	3.749	0.02	1206.962	62.0	3	2.7	-3.0	17.2024	955.0	0.3	Outcome2	-8.31	2.7	3.74875	Yes	n/a	11.0101925254813	n/a	n/a	n/a	TrialHappPreview	Mixed
144.632	4.012	0.029	1210.74	62.0	3	2.7	-3.0	17.2024	955.0	0.3	Outcome2	-8.31	2.7	3.74875	Yes	n/a	11.0101925254813	n/a	n/a	552.0	TrialHappiness	Mixed
144.633	0.8	n/a	1211.452	62.0	3	2.7	-3.0	17.2024	955.0	0.3	Outcome2	-8.31	2.7	3.74875	Yes	n/a	11.0101925254813	n/a	n/a	552.0	TrialHappinessSliderResponse	Mixed
148.644	6.995	4.012	1214.752	62.0	3	2.7	-3.0	17.2024	955.0	0.3	Outcome2	-8.31	2.7	3.74875	Yes	n/a	11.0101925254813	n/a	n/a	n/a	ISIRate	Mixed
155.665	3.0	0.026	1221.773	63.0	3	5.5	0.0	17.8899	955.0	2.8	Outcome2	-5.65	5.5	0.0	No	2.0	11.1494903737259	2.372	158.037	n/a	GetAnswer	Gain
158.056	4.0	0.019	1224.164	63.0	3	5.5	0.0	17.8899	955.0	2.8	Outcome2	-5.65	5.5	0.0	No	n/a	11.1494903737259	n/a	n/a	n/a	ShowChoice	Gain
162.068	1.0	0.012	1228.176	63.0	3	5.5	0.0	17.8899	955.0	2.8	Outcome2	-5.65	5.5	0.0	No	n/a	11.1494903737259	n/a	n/a	n/a	ShowResult	Gain
163.087	5.595	0.019	1229.195	63.0	3	5.5	0.0	17.8899	955.0	2.8	Outcome2	-5.65	5.5	0.0	No	n/a	11.1494903737259	n/a	n/a	n/a	ISITrial	Gain
168.704	3.0	0.022	1234.812	64.0	3	0.0	0.0	17.8899	955.0	0.82	Certain	1.5	-0.53	0.0	No	4.0	-2.03208758021895	1.47	170.174	n/a	GetAnswer	Mixed
170.192	4.0	0.018	1236.3	64.0	3	0.0	0.0	17.8899	955.0	0.82	Certain	1.5	-0.53	0.0	No	n/a	-2.03208758021895	n/a	n/a	n/a	ShowChoice	Mixed
174.204	1.0	0.012	1240.312	64.0	3	0.0	0.0	17.8899	955.0	0.82	Certain	1.5	-0.53	0.0	No	n/a	-2.03208758021895	n/a	n/a	n/a	ShowResult	Mixed
175.224	5.47	0.02	1241.332	64.0	3	0.0	0.0	17.8899	955.0	0.82	Certain	1.5	-0.53	0.0	No	n/a	-2.03208758021895	n/a	n/a	n/a	ISITrial	Mixed
180.724	3.0	0.03	1246.832	65.0	3	9.23	4.62	19.0437	955.0	2.48	Outcome1	9.23	11.3	2.99675	Yes	2.0	-2.070120800302	2.768	183.492	n/a	GetAnswer	Loss
183.515	4.0	0.023	1249.623	65.0	3	9.23	4.62	19.0437	955.0	2.48	Outcome1	9.23	11.3	2.99675	Yes	n/a	-2.070120800302	n/a	n/a	n/a	ShowChoice	Loss
187.527	1.0	0.012	1253.635	65.0	3	9.23	4.62	19.0437	955.0	2.48	Outcome1	9.23	11.3	2.99675	Yes	n/a	-2.070120800302	n/a	n/a	n/a	ShowResult	Loss
188.547	3.344	0.02	1254.655	65.0	3	9.23	4.62	19.0437	955.0	2.48	Outcome1	9.23	11.3	2.99675	Yes	n/a	-2.070120800302	n/a	n/a	n/a	ISITrial	Loss
191.907	2.997	0.016	1258.015	65.0	3	9.23	4.62	19.0437	955.0	2.48	Outcome1	9.23	11.3	2.99675	Yes	n/a	-2.070120800302	n/a	n/a	n/a	TrialHappPreview	Loss
194.933	4.012	0.029	1261.041	65.0	3	9.23	4.62	19.0437	955.0	2.48	Outcome1	9.23	11.3	2.99675	Yes	n/a	-2.070120800302	n/a	n/a	532.0	TrialHappiness	Loss
194.933	0.139	n/a	1261.494	65.0	3	9.23	4.62	19.0437	955.0	2.48	Outcome1	9.23	11.3	2.99675	Yes	n/a	-2.070120800302	n/a	n/a	532.0	TrialHappinessSliderResponse	Loss
198.945	3.987	4.012	1265.053	65.0	3	9.23	4.62	19.0437	955.0	2.48	Outcome1	9.23	11.3	2.99675	Yes	n/a	-2.070120800302	n/a	n/a	n/a	ISIRate	Loss
202.957	3.0	0.025	1269.065	66.0	3	4.11	2.06	19.5575	955.0	5.0	Outcome2	6.3	4.11	0.0	No	2.0	-2.1893167232918103	2.026	204.983	n/a	GetAnswer	Gain
204.996	4.0	0.013	1271.104	66.0	3	4.11	2.06	19.5575	955.0	5.0	Outcome2	6.3	4.11	0.0	No	n/a	-2.1893167232918103	n/a	n/a	n/a	ShowChoice	Gain
209.008	1.0	0.012	1275.116	66.0	3	4.11	2.06	19.5575	955.0	5.0	Outcome2	6.3	4.11	0.0	No	n/a	-2.1893167232918103	n/a	n/a	n/a	ShowResult	Gain
210.028	3.959	0.02	1276.136	66.0	3	4.11	2.06	19.5575	955.0	5.0	Outcome2	6.3	4.11	0.0	No	n/a	-2.1893167232918103	n/a	n/a	n/a	ISITrial	Gain
214.006	3.0	0.019	1280.114	67.0	3	-3.0	-3.0	19.1825	955.0	1.2	Certain	3.9	-9.44	2.9185	Yes	4.0	13.3374858437146	2.635	216.641	n/a	GetAnswer	Mixed
216.664	4.0	0.023	1282.772	67.0	3	-3.0	-3.0	19.1825	955.0	1.2	Certain	3.9	-9.44	2.9185	Yes	n/a	13.3374858437146	n/a	n/a	n/a	ShowChoice	Mixed
220.676	1.0	0.012	1286.784	67.0	3	-3.0	-3.0	19.1825	955.0	1.2	Certain	3.9	-9.44	2.9185	Yes	n/a	13.3374858437146	n/a	n/a	n/a	ShowResult	Mixed
221.696	4.199	0.02	1287.804	67.0	3	-3.0	-3.0	19.1825	955.0	1.2	Certain	3.9	-9.44	2.9185	Yes	n/a	13.3374858437146	n/a	n/a	n/a	ISITrial	Mixed
225.908	2.918	0.013	1292.016	67.0	3	-3.0	-3.0	19.1825	955.0	1.2	Certain	3.9	-9.44	2.9185	Yes	n/a	13.3374858437146	n/a	n/a	n/a	TrialHappPreview	Mixed
228.851	4.012	0.025	1294.959	67.0	3	-3.0	-3.0	19.1825	955.0	1.2	Certain	3.9	-9.44	2.9185	Yes	n/a	13.3374858437146	n/a	n/a	532.0	TrialHappiness	Mixed
228.851	0.123	n/a	1295.68	67.0	3	-3.0	-3.0	19.1825	955.0	1.2	Certain	3.9	-9.44	2.9185	Yes	n/a	13.3374858437146	n/a	n/a	532.0	TrialHappinessSliderResponse	Mixed
232.863	3.674	4.012	1298.971	67.0	3	-3.0	-3.0	19.1825	955.0	1.2	Certain	3.9	-9.44	2.9185	Yes	n/a	13.3374858437146	n/a	n/a	n/a	ISIRate	Mixed
236.557	3.0	0.02	1302.665	68.0	3	-1.5	-8.0	18.995	955.0	0.2	Outcome2	-15.32	-1.5	0.0	No	2.0	13.8165345413364	2.574	239.131	n/a	GetAnswer	Mixed
239.148	4.0	0.017	1305.256	68.0	3	-1.5	-8.0	18.995	955.0	0.2	Outcome2	-15.32	-1.5	0.0	No	n/a	13.8165345413364	n/a	n/a	n/a	ShowChoice	Mixed
243.16	1.0	0.012	1309.268	68.0	3	-1.5	-8.0	18.995	955.0	0.2	Outcome2	-15.32	-1.5	0.0	No	n/a	13.8165345413364	n/a	n/a	n/a	ShowResult	Mixed
244.18	2.185	0.02	1310.288	68.0	3	-1.5	-8.0	18.995	955.0	0.2	Outcome2	-15.32	-1.5	0.0	No	n/a	13.8165345413364	n/a	n/a	n/a	ISITrial	Mixed
246.386	3.0	0.021	1312.494	69.0	3	12.5	-0.9	20.5575	955.0	1.68	Outcome2	-1.8	12.5	0.0	No	2.0	14.295583238958098	1.486	247.872	n/a	GetAnswer	Loss
247.891	4.0	0.018	1313.999	69.0	3	12.5	-0.9	20.5575	955.0	1.68	Outcome2	-1.8	12.5	0.0	No	n/a	14.295583238958098	n/a	n/a	n/a	ShowChoice	Loss
251.903	1.0	0.012	1318.011	69.0	3	12.5	-0.9	20.5575	955.0	1.68	Outcome2	-1.8	12.5	0.0	No	n/a	14.295583238958098	n/a	n/a	n/a	ShowResult	Loss
252.922	2.0	0.019	1319.03	69.0	3	12.5	-0.9	20.5575	955.0	1.68	Outcome2	-1.8	12.5	0.0	No	n/a	14.295583238958098	n/a	n/a	n/a	ISITrial	Loss
254.945	3.0	0.023	1321.053	70.0	3	12.3	-1.24	22.095	955.0	5.0	Outcome1	12.3	-2.47	3.65125	Yes	2.0	14.7746319365798	1.753	256.698	n/a	GetAnswer	Loss
256.717	4.0	0.019	1322.825	70.0	3	12.3	-1.24	22.095	955.0	5.0	Outcome1	12.3	-2.47	3.65125	Yes	n/a	14.7746319365798	n/a	n/a	n/a	ShowChoice	Loss
260.729	1.0	0.012	1326.837	70.0	3	12.3	-1.24	22.095	955.0	5.0	Outcome1	12.3	-2.47	3.65125	Yes	n/a	14.7746319365798	n/a	n/a	n/a	ShowResult	Loss
261.749	2.623	0.02	1327.857	70.0	3	12.3	-1.24	22.095	955.0	5.0	Outcome1	12.3	-2.47	3.65125	Yes	n/a	14.7746319365798	n/a	n/a	n/a	ISITrial	Loss
264.39	3.651	0.018	1330.498	70.0	3	12.3	-1.24	22.095	955.0	5.0	Outcome1	12.3	-2.47	3.65125	Yes	n/a	14.7746319365798	n/a	n/a	n/a	TrialHappPreview	Loss
268.068	4.012	0.027	1334.176	70.0	3	12.3	-1.24	22.095	955.0	5.0	Outcome1	12.3	-2.47	3.65125	Yes	n/a	14.7746319365798	n/a	n/a	552.0	TrialHappiness	Loss
268.068	0.62	n/a	1334.549	70.0	3	12.3	-1.24	22.095	955.0	5.0	Outcome1	12.3	-2.47	3.65125	Yes	n/a	14.7746319365798	n/a	n/a	552.0	TrialHappinessSliderResponse	Loss
272.08	6.605	4.012	1338.188	70.0	3	12.3	-1.24	22.095	955.0	5.0	Outcome1	12.3	-2.47	3.65125	Yes	n/a	14.7746319365798	n/a	n/a	n/a	ISIRate	Loss
278.716	3.0	0.031	1344.824	71.0	3	4.39	2.19	22.6438	955.0	1.82	Outcome2	6.7	4.39	0.0	No	2.0	-2.3077576443941097	2.139	280.855	n/a	GetAnswer	Gain
280.873	4.0	0.018	1346.981	71.0	3	4.39	2.19	22.6438	955.0	1.82	Outcome2	6.7	4.39	0.0	No	n/a	-2.3077576443941097	n/a	n/a	n/a	ShowChoice	Gain
284.885	1.0	0.012	1350.993	71.0	3	4.39	2.19	22.6438	955.0	1.82	Outcome2	6.7	4.39	0.0	No	n/a	-2.3077576443941097	n/a	n/a	n/a	ShowResult	Gain
285.904	5.499	0.019	1352.012	71.0	3	4.39	2.19	22.6438	955.0	1.82	Outcome2	6.7	4.39	0.0	No	n/a	-2.3077576443941097	n/a	n/a	n/a	ISITrial	Gain
291.421	3.0	0.018	1357.529	72.0	3	-2.0	-2.0	22.3938	955.0	2.48	Certain	-10.07	5.3	3.0805	Yes	4.0	15.3703284258211	2.781	294.202	n/a	GetAnswer	Gain
294.229	4.0	0.027	1360.337	72.0	3	-2.0	-2.0	22.3938	955.0	2.48	Certain	-10.07	5.3	3.0805	Yes	n/a	15.3703284258211	n/a	n/a	n/a	ShowChoice	Gain
298.241	1.0	0.012	1364.349	72.0	3	-2.0	-2.0	22.3938	955.0	2.48	Certain	-10.07	5.3	3.0805	Yes	n/a	15.3703284258211	n/a	n/a	n/a	ShowResult	Gain
299.261	5.672	0.02	1365.369	72.0	3	-2.0	-2.0	22.3938	955.0	2.48	Certain	-10.07	5.3	3.0805	Yes	n/a	15.3703284258211	n/a	n/a	n/a	ISITrial	Gain
304.944	3.08	0.011	1371.052	72.0	3	-2.0	-2.0	22.3938	955.0	2.48	Certain	-10.07	5.3	3.0805	Yes	n/a	15.3703284258211	n/a	n/a	n/a	TrialHappPreview	Gain
308.054	4.012	0.03	1374.162	72.0	3	-2.0	-2.0	22.3938	955.0	2.48	Certain	-10.07	5.3	3.0805	Yes	n/a	15.3703284258211	n/a	n/a	512.0	TrialHappiness	Gain
308.054	0.0	n/a	1374.162	72.0	3	-2.0	-2.0	22.3938	955.0	2.48	Certain	-10.07	5.3	3.0805	Yes	n/a	15.3703284258211	n/a	n/a	512.0	TrialHappinessSliderResponse	Gain
312.066	4.322	4.012	1378.174	72.0	3	-2.0	-2.0	22.3938	955.0	2.48	Certain	-10.07	5.3	3.0805	Yes	n/a	15.3703284258211	n/a	n/a	n/a	ISIRate	Gain
316.412	3.0	0.024	1382.52	73.0	3	1.9	-6.0	22.6313	955.0	1.2	Outcome1	1.9	-14.61	0.0	No	n/a	16.5062287655719	n/a	n/a	n/a	GetAnswer	Mixed
319.438	4.0	0.026	1385.546	73.0	3	1.9	-6.0	22.6313	955.0	1.2	Outcome1	1.9	-14.61	0.0	No	n/a	16.5062287655719	n/a	n/a	n/a	ShowChoice	Mixed
323.45	1.0	0.012	1389.558	73.0	3	1.9	-6.0	22.6313	955.0	1.2	Outcome1	1.9	-14.61	0.0	No	n/a	16.5062287655719	n/a	n/a	n/a	ShowResult	Mixed
324.469	4.616	0.019	1390.577	73.0	3	1.9	-6.0	22.6313	955.0	1.2	Outcome1	1.9	-14.61	0.0	No	n/a	16.5062287655719	n/a	n/a	n/a	ISITrial	Mixed
329.117	3.0	0.032	1395.225	74.0	3	12.1	-2.46	24.1438	955.0	4.2	Outcome1	12.1	-4.91	3.05625	Yes	2.0	17.007927519818804	2.766	331.883	n/a	GetAnswer	Loss
331.908	4.0	0.025	1398.016	74.0	3	12.1	-2.46	24.1438	955.0	4.2	Outcome1	12.1	-4.91	3.05625	Yes	n/a	17.007927519818804	n/a	n/a	n/a	ShowChoice	Loss
335.92	1.0	0.012	1402.028	74.0	3	12.1	-2.46	24.1438	955.0	4.2	Outcome1	12.1	-4.91	3.05625	Yes	n/a	17.007927519818804	n/a	n/a	n/a	ShowResult	Loss
336.94	3.909	0.02	1403.048	74.0	3	12.1	-2.46	24.1438	955.0	4.2	Outcome1	12.1	-4.91	3.05625	Yes	n/a	17.007927519818804	n/a	n/a	n/a	ISITrial	Loss
340.868	3.056	0.019	1406.976	74.0	3	12.1	-2.46	24.1438	955.0	4.2	Outcome1	12.1	-4.91	3.05625	Yes	n/a	17.007927519818804	n/a	n/a	n/a	TrialHappPreview	Loss
343.944	4.012	0.02	1410.052	74.0	3	12.1	-2.46	24.1438	955.0	4.2	Outcome1	12.1	-4.91	3.05625	Yes	n/a	17.007927519818804	n/a	n/a	588.0	TrialHappiness	Loss
343.945	1.668	n/a	1410.393	74.0	3	12.1	-2.46	24.1438	955.0	4.2	Outcome1	12.1	-4.91	3.05625	Yes	n/a	17.007927519818804	n/a	n/a	588.0	TrialHappinessSliderResponse	Loss
347.956	4.225	4.012	1414.064	74.0	3	12.1	-2.46	24.1438	955.0	4.2	Outcome1	12.1	-4.91	3.05625	Yes	n/a	17.007927519818804	n/a	n/a	n/a	ISIRate	Loss
352.202	3.0	0.021	1418.31	75.0	3	10.9	-2.66	25.5063	955.0	2.0	Outcome2	-5.32	10.9	0.0	No	n/a	16.2185730464326	n/a	n/a	n/a	GetAnswer	Loss
355.228	4.0	0.026	1421.336	75.0	3	10.9	-2.66	25.5063	955.0	2.0	Outcome2	-5.32	10.9	0.0	No	n/a	16.2185730464326	n/a	n/a	n/a	ShowChoice	Loss
359.24	1.0	0.012	1425.348	75.0	3	10.9	-2.66	25.5063	955.0	2.0	Outcome2	-5.32	10.9	0.0	No	n/a	16.2185730464326	n/a	n/a	n/a	ShowResult	Loss
360.26	4.979	0.02	1426.368	75.0	3	10.9	-2.66	25.5063	955.0	2.0	Outcome2	-5.32	10.9	0.0	No	n/a	16.2185730464326	n/a	n/a	n/a	ISITrial	Loss
365.258	3.0	0.019	1431.366	76.0	3	9.14	4.57	26.6488	955.0	2.8	Outcome1	9.14	11.5	0.0	No	2.0	-2.35598338995847	1.286	366.544	n/a	GetAnswer	Loss
366.562	4.0	0.018	1432.67	76.0	3	9.14	4.57	26.6488	955.0	2.8	Outcome1	9.14	11.5	0.0	No	n/a	-2.35598338995847	n/a	n/a	n/a	ShowChoice	Loss
370.574	1.0	0.012	1436.682	76.0	3	9.14	4.57	26.6488	955.0	2.8	Outcome1	9.14	11.5	0.0	No	n/a	-2.35598338995847	n/a	n/a	n/a	ShowResult	Loss
371.594	3.931	0.02	1437.702	76.0	3	9.14	4.57	26.6488	955.0	2.8	Outcome1	9.14	11.5	0.0	No	n/a	-2.35598338995847	n/a	n/a	n/a	ISITrial	Loss
375.555	3.0	0.03	1441.663	77.0	3	8.31	4.16	27.6876	955.0	1.82	Outcome1	8.31	10.7	4.0	Yes	2.0	-2.39061910154775	1.556	377.111	n/a	GetAnswer	Loss
377.127	4.0	0.016	1443.235	77.0	3	8.31	4.16	27.6876	955.0	1.82	Outcome1	8.31	10.7	4.0	Yes	n/a	-2.39061910154775	n/a	n/a	n/a	ShowChoice	Loss
381.139	1.0	0.012	1447.247	77.0	3	8.31	4.16	27.6876	955.0	1.82	Outcome1	8.31	10.7	4.0	Yes	n/a	-2.39061910154775	n/a	n/a	n/a	ShowResult	Loss
382.158	7.022	0.019	1448.266	77.0	3	8.31	4.16	27.6876	955.0	1.82	Outcome1	8.31	10.7	4.0	Yes	n/a	-2.39061910154775	n/a	n/a	n/a	ISITrial	Loss
389.196	4.0	0.016	1455.304	77.0	3	8.31	4.16	27.6876	955.0	1.82	Outcome1	8.31	10.7	4.0	Yes	n/a	-2.39061910154775	n/a	n/a	n/a	TrialHappPreview	Loss
393.225	4.012	0.029	1459.333	77.0	3	8.31	4.16	27.6876	955.0	1.82	Outcome1	8.31	10.7	4.0	Yes	n/a	-2.39061910154775	n/a	n/a	628.0	TrialHappiness	Loss
393.225	1.719	n/a	1459.645	77.0	3	8.31	4.16	27.6876	955.0	1.82	Outcome1	8.31	10.7	4.0	Yes	n/a	-2.39061910154775	n/a	n/a	628.0	TrialHappinessSliderResponse	Loss
397.237	8.0	4.012	1463.345	77.0	3	8.31	4.16	27.6876	955.0	1.82	Outcome1	8.31	10.7	4.0	Yes	n/a	-2.39061910154775	n/a	n/a	n/a	ISIRate	Loss
405.261	3.0	0.024	1471.369	78.0	3	3.84	1.92	28.1676	955.0	4.2	Outcome2	6.1	3.84	0.0	No	2.0	-2.26292940732352	2.178	407.439	n/a	GetAnswer	Gain
407.467	4.0	0.028	1473.575	78.0	3	3.84	1.92	28.1676	955.0	4.2	Outcome2	6.1	3.84	0.0	No	n/a	-2.26292940732352	n/a	n/a	n/a	ShowChoice	Gain
411.479	1.0	0.012	1477.587	78.0	3	3.84	1.92	28.1676	955.0	4.2	Outcome2	6.1	3.84	0.0	No	n/a	-2.26292940732352	n/a	n/a	n/a	ShowResult	Gain
412.499	2.078	0.02	1478.607	78.0	3	3.84	1.92	28.1676	955.0	4.2	Outcome2	6.1	3.84	0.0	No	n/a	-2.26292940732352	n/a	n/a	n/a	ISITrial	Gain
414.605	3.0	0.028	1480.713	79.0	3	0.7	-8.0	28.2551	955.0	0.3	Outcome2	-16.46	0.7	2.7295	Yes	n/a	17.1562853907135	n/a	n/a	n/a	GetAnswer	Mixed
417.631	4.0	0.026	1483.739	79.0	3	0.7	-8.0	28.2551	955.0	0.3	Outcome2	-16.46	0.7	2.7295	Yes	n/a	17.1562853907135	n/a	n/a	n/a	ShowChoice	Mixed
421.643	1.0	0.012	1487.751	79.0	3	0.7	-8.0	28.2551	955.0	0.3	Outcome2	-16.46	0.7	2.7295	Yes	n/a	17.1562853907135	n/a	n/a	n/a	ShowResult	Mixed
422.663	3.829	0.02	1488.771	79.0	3	0.7	-8.0	28.2551	955.0	0.3	Outcome2	-16.46	0.7	2.7295	Yes	n/a	17.1562853907135	n/a	n/a	n/a	ISITrial	Mixed
426.508	2.73	0.016	1492.616	79.0	3	0.7	-8.0	28.2551	955.0	0.3	Outcome2	-16.46	0.7	2.7295	Yes	n/a	17.1562853907135	n/a	n/a	n/a	TrialHappPreview	Mixed
429.266	4.012	0.028	1495.374	79.0	3	0.7	-8.0	28.2551	955.0	0.3	Outcome2	-16.46	0.7	2.7295	Yes	n/a	17.1562853907135	n/a	n/a	676.0	TrialHappiness	Mixed
429.266	1.317	n/a	1495.733	79.0	3	0.7	-8.0	28.2551	955.0	0.3	Outcome2	-16.46	0.7	2.7295	Yes	n/a	17.1562853907135	n/a	n/a	676.0	TrialHappinessSliderResponse	Mixed
433.278	2.918	4.012	1499.386	79.0	3	0.7	-8.0	28.2551	955.0	0.3	Outcome2	-16.46	0.7	2.7295	Yes	n/a	17.1562853907135	n/a	n/a	n/a	ISIRate	Mixed
436.22	3.0	0.024	1502.328	80.0	3	-4.0	-4.0	27.7551	955.0	1.5	Certain	-12.61	4.1	0.0	No	4.0	16.7112117780294	1.782	438.002	n/a	GetAnswer	Mixed
438.025	4.0	0.023	1504.133	80.0	3	-4.0	-4.0	27.7551	955.0	1.5	Certain	-12.61	4.1	0.0	No	n/a	16.7112117780294	n/a	n/a	n/a	ShowChoice	Mixed
442.037	1.0	0.012	1508.145	80.0	3	-4.0	-4.0	27.7551	955.0	1.5	Certain	-12.61	4.1	0.0	No	n/a	16.7112117780294	n/a	n/a	n/a	ShowResult	Mixed
443.057	3.336	0.02	1509.165	80.0	3	-4.0	-4.0	27.7551	955.0	1.5	Certain	-12.61	4.1	0.0	No	n/a	16.7112117780294	n/a	n/a	n/a	ISITrial	Mixed
446.417	3.0	0.024	1512.525	81.0	3	1.3	-7.0	27.9176	955.0	0.66	Outcome1	1.3	-15.73	3.92375	Yes	2.0	17.027180067950198	2.106	448.523	n/a	GetAnswer	Mixed
448.54	4.0	0.017	1514.648	81.0	3	1.3	-7.0	27.9176	955.0	0.66	Outcome1	1.3	-15.73	3.92375	Yes	n/a	17.027180067950198	n/a	n/a	n/a	ShowChoice	Mixed
452.552	1.0	0.012	1518.66	81.0	3	1.3	-7.0	27.9176	955.0	0.66	Outcome1	1.3	-15.73	3.92375	Yes	n/a	17.027180067950198	n/a	n/a	n/a	ShowResult	Mixed
453.572	3.919	0.02	1519.68	81.0	3	1.3	-7.0	27.9176	955.0	0.66	Outcome1	1.3	-15.73	3.92375	Yes	n/a	17.027180067950198	n/a	n/a	n/a	ISITrial	Mixed
457.517	3.924	0.026	1523.625	81.0	3	1.3	-7.0	27.9176	955.0	0.66	Outcome1	1.3	-15.73	3.92375	Yes	n/a	17.027180067950198	n/a	n/a	n/a	TrialHappPreview	Mixed
461.462	4.012	0.021	1527.57	81.0	3	1.3	-7.0	27.9176	955.0	0.66	Outcome1	1.3	-15.73	3.92375	Yes	2{-2}2{-2}2{-2}2{-2}2{-2}2{-2}2{-2}	17.027180067950198	2.567	464.029	612.0	TrialHappiness	Mixed
461.463	2.179	n/a	1527.959	81.0	3	1.3	-7.0	27.9176	955.0	0.66	Outcome1	1.3	-15.73	3.92375	Yes	n/a	17.027180067950198	n/a	n/a	612.0	TrialHappinessSliderResponse	Mixed
465.474	7.695	4.012	1531.582	81.0	3	1.3	-7.0	27.9176	955.0	0.66	Outcome1	1.3	-15.73	3.92375	Yes	n/a	17.027180067950198	n/a	n/a	n/a	ISIRate	Mixed
473.197	3.0	0.028	1539.305	n/a	3	n/a	n/a	n/a	n/a	n/a	n/a	n/a	n/a	n/a	n/a	n/a	n/a	n/a	n/a	n/a	CurrentEarnings	n/a
476.223	-0.001	0.026	1542.331	n/a	3	n/a	n/a	n/a	n/a	n/a	n/a	n/a	n/a	n/a	n/a	{SPACE}	n/a	5.671	481.894	n/a	Goodbye	n/a
